time,seconds_elapsed,z,y,x
1772537136983853000,0.09085302734375,0.10251111092567443,-0.17602759803533552,0.21723025377839802
1772537136993901300,0.1009013671875,-0.22335165926814077,0.22765768589898944,0.26623583835735914
1772537137003949000,0.110948974609375,0.13013444638848304,1.1859008061498404,1.0823827101387082
1772537137013998300,0.120998291015625,0.247118903824687,1.6374275993198155,1.1037659821681678
1772537137024046000,0.131046142578125,0.379256506729126,1.2694587948024272,0.49296354992985725
1772537137034094000,0.141093994140625,0.9987859969109296,0.5829558094136417,0.3240354086361825
1772537137044143000,0.15114306640625,1.4942998158454894,-0.5558554749116301,-0.25207784140631556
1772537137054191000,0.161191162109375,1.7268904281020163,-1.3055137123934923,-0.7340292911954224
1772537137064239400,0.1712392578125,1.6375585322231054,-1.5905943903438746,-1.0001961559697985
1772537137074287900,0.181287841796875,1.3843407270014285,-1.3935938546456397,-0.8770385628566145
1772537137084336000,0.191336181640625,1.2512877628177403,-0.6600680559929459,-0.3223986012145877
1772537137094383900,0.2013837890625,1.272476681318879,0.09588007541336119,0.19864333446919916
1772537137104433000,0.211432861328125,1.347673668861389,0.4344278473962098,0.2143481224708259
1772537137114481000,0.22148095703125,0.569356469258666,0.5714217312254011,0.07245557987987995
1772537137124529000,0.23152880859375,-0.6090168639957905,0.9069538086488842,0.20093714449480174
1772537137134578000,0.241577880859375,1.2356097166925668,0.874615135101974,0.4327516578122973
1772537137144626000,0.2516259765625,1.49828976226449,0.8551269561041146,0.2729619317419827
1772537137154674000,0.261673828125,2.2466572292834517,0.8702659999817609,0.20464096744880078
1772537137164723000,0.271722900390625,3.201391318500042,0.6353108505509794,0.012604191637784241
1772537137174771000,0.28177099609375,3.6165099967271086,0.6538242662325501,0.13264131464287637
1772537137184819000,0.29181884765625,3.778992469012737,0.7794723609872162,0.2672299639612436
1772537137194868000,0.301867919921875,4.3203398183614015,0.655081572817266,0.11794292720481753
1772537137204916000,0.311916015625,4.577660382726788,0.25955986772477624,-0.4004330041401088
1772537137214964000,0.3219638671875,4.36474886893034,0.012281973946094512,-0.6028310149677097
1772537137225013000,0.332012939453125,3.843219149729609,-0.04259308718815446,-0.5442977235868572
1772537137235061000,0.34206103515625,3.051325260195136,-0.05922887242957949,-0.331977599812299
1772537137245108700,0.352108642578125,1.9703484713315962,-0.19041312013193964,-0.16310359985865652
1772537137255158000,0.362157958984375,0.8898825545996427,-0.15851926774308084,-0.039991745583340524
1772537137265205800,0.372205810546875,0.5344897385388613,0.0647869449481368,0.4394943370055407
1772537137275254000,0.38225390625,0.28771336454153057,0.07563377152457833,0.9972044268079101
1772537137285302800,0.392302734375,-0.42476913462579247,-0.1840272184871137,1.307757984188944
1772537137295351000,0.40235107421875,-1.3100415650814772,-0.6892752265810966,1.4711515799701214
1772537137305399000,0.41239892578125,-2.139415582704544,-1.4689613764494656,1.4280696863517164
1772537137315447800,0.42244775390625,-2.6752982369065283,-1.949140263608098,1.1954602963294834
1772537137325496000,0.43249609375,-3.149655286043882,-2.094445829512924,0.8563243491951376
1772537137335543800,0.442543701171875,-3.691826226735115,-2.0907129265949127,0.45402854685783384
1772537137345593000,0.452593017578125,-4.074492249646783,-2.0718232249468564,0.04417816442251205
1772537137355640800,0.462640869140625,-4.739786296659708,-2.115560075342655,-0.28832192489393055
1772537137365689000,0.472689208984375,-5.6291088792890305,-2.1765914671495556,-0.5716270445391536
1772537137375737900,0.48273779296875,-6.385273283794522,-2.1088456723958253,-0.8322370789039879
1772537137385785900,0.492785888671875,-7.0368509401440615,-1.8527441284313797,-0.9176620304722338
1772537137395833900,0.502833740234375,-7.588913160252571,-1.5861717515960334,-0.557644769481197
1772537137405883000,0.5128828125,-8.096103388455509,-1.4823744002521038,-0.05398490736149251
1772537137415931000,0.522930908203125,-8.592040985760093,-1.6316799955785273,0.23827910622172055
1772537137425979000,0.532978759765625,-9.085159433990716,-1.801830079882592,0.3835786807771772
1772537137436028000,0.54302783203125,-9.54933469633162,-1.7517209179759023,0.6288043182011693
1772537137446076000,0.553075927734375,-9.843236394119263,-1.517147022947669,0.6683284462727606
1772537137456124000,0.5631240234375,-9.633570730376244,-1.0564176632769404,0.48859366428256035
1772537137466173000,0.5731728515625,-8.68173236260116,-0.37683147153928875,0.34656668165698645
1772537137476221000,0.583220947265625,-7.452818928676844,0.3393924791786819,0.19797829468920825
1772537137486269000,0.59326904296875,-6.25289836500287,1.009747828169167,0.21699542210921643
1772537137496318000,0.60331787109375,-4.963223296123743,1.6024065548211335,0.17739684056192637
1772537137506366000,0.613365966796875,-3.4271079533338544,2.087477597935498,0.01565071972683072
1772537137516414000,0.6234140625,-2.1767034030914307,2.2914608321279286,-0.2740720849409699
1772537137526463000,0.633462890625,-1.2255986102879046,2.228025301788747,-0.328241920415312
1772537137536511000,0.643510986328125,-0.8284662551283836,2.327383501641452,-0.027109029265120623
1772537137546559000,0.65355908203125,-0.7842413289546966,2.2864269296139477,0.0950410307733342
1772537137556608000,0.66360791015625,-0.5156412456840277,1.9796546443372964,0.12956139574088155
1772537137566656000,0.673656005859375,0.34774317809045313,1.7971297932371497,0.20129275299943983
1772537137576704000,0.6837041015625,2.0506173553109166,1.6885427233986556,0.31779300711527464
1772537137586752800,0.693752685546875,3.979986166000366,1.3857416798405349,0.17816840945631265
1772537137596801000,0.703801025390625,5.713621392187476,0.9890588220141827,0.03761317988373339
1772537137606849000,0.71384912109375,7.191972528272867,0.7102465568087994,0.1275173957578838
1772537137616897800,0.723897705078125,8.400972470459342,0.7034783778481185,0.46543008470758795
1772537137626946000,0.733946044921875,9.357731343501806,0.6080098058450967,0.7506173648376018
1772537137636993800,0.743993896484375,10.216171881133317,0.36690303844939914,0.643366438973695
1772537137647043000,0.75404296875,10.876908410972357,0.16713870059363542,0.28605763322375716
1772537137657090800,0.7640908203125,11.476586953258513,0.11067549348510801,0.08468428926877677
1772537137667138800,0.774138916015625,11.879107431197166,0.21383125898987054,0.017488894939422607
1772537137677187800,0.784187744140625,11.845897235512732,0.5737655178725719,-0.04596504783928394
1772537137687235800,0.79423583984375,11.807274367129802,1.0770151917561888,-0.010093670121580361
1772537137697284000,0.8042841796875,11.797185519313812,1.6140703968688845,0.044669966527447105
1772537137707332900,0.814332763671875,11.858497189366817,2.2349022018209097,0.09615618894100189
1772537137717381000,0.824381103515625,12.182053436183928,2.3991835402220487,0.057676455355808134
1772537137727428900,0.834428955078125,12.447083844274282,2.148860433528572,-0.13182539515011013
1772537137737476900,0.844476806640625,12.199827577805518,1.6602406118914483,-0.2965862606965005
1772537137747526000,0.85452587890625,11.285988393557071,0.9108094611637294,-0.43044403845705087
1772537137757574000,0.864573974609375,9.313611631268262,0.11125015156790613,-0.4655062186837196
1772537137767623000,0.874622802734375,6.259103064861893,-0.4130506397813558,0.0011886983279138803
1772537137777671000,0.8846708984375,3.1756156567305323,-0.5717815044485032,0.8310733688868581
1772537137787719000,0.894718994140625,0.5181634576380253,-0.5973591594278812,1.7288535448685287
1772537137797767000,0.904766845703125,-1.6079583437293767,-0.6328408071756363,2.576698161944747
1772537137807816000,0.91481591796875,-3.640512219083309,-0.5899176112502813,2.4836367241486905
1772537137817864000,0.924864013671875,-4.8238826299726965,-0.448480338146165,1.4015236247316003
1772537137827912700,0.93491259765625,-5.448775693014264,0.006862944572046399,-0.05477185648810118
1772537137837961000,0.9449609375,-5.8150645816206925,0.6002081921834498,-0.9917848859772086
1772537137848009000,0.955009033203125,-6.686371030566096,0.6905963191170245,-0.8822025214910507
1772537137858057000,0.965056884765625,-8.863368448168039,0.4225354207569733,-0.42827042074501515
1772537137868106000,0.97510595703125,-11.649420723688602,0.08843245368800126,-0.4010135074418038
1772537137878154000,0.985154052734375,-13.331425715881585,-0.41246253769509494,-0.5558522965738549
1772537137888202000,0.995201904296875,-13.464475757455824,-1.0710242807783186,-0.42447135725561524
1772537137898250800,1.005250732421875,-13.651294798618554,-1.6321229170404374,0.2590675176305696
1772537137908299000,1.015299072265625,-14.536580088555812,-2.0156547630012036,0.8196265305906534
1772537137918347000,1.025346923828125,-15.277285058122873,-2.264251045902073,1.3395856394737957
1772537137928396000,1.03539599609375,-15.358962639856337,-2.569590668027103,1.7703797334775329
1772537137938443800,1.04544384765625,-14.212643902510404,-2.5736153934985397,1.7458230921089648
1772537137948491800,1.05549169921875,-12.152992176872491,-2.2077784864433108,1.4159985786773264
1772537137958540800,1.065540771484375,-10.16801078455448,-1.5428718313127756,0.9507935348972678
1772537137968588800,1.0755888671875,-8.585697754213214,-0.6442275858476758,0.6605433453544974
1772537137978637000,1.085636962890625,-7.401698982292413,0.3239300850981846,0.38455143479946996
1772537137988685800,1.095685791015625,-6.350448638650775,1.3347928522393107,-0.10368439248874783
1772537137998734000,1.105734130859375,-4.760196632003784,1.976867059445381,-0.9407491107448935
1772537138008781800,1.11578173828125,-2.907499557584524,2.445142596711963,-1.441961433582008
1772537138018831000,1.1258310546875,-1.6366747351258992,2.9548417389959094,-1.8861599296905098
1772537138028878800,1.13587890625,-0.5999404080927372,3.2134716323941945,-2.094748465721309
1772537138038926800,1.1459267578125,0.9584878887921571,3.267011791662872,-1.8230799347907303
1772537138048976000,1.155975830078125,2.98712429844141,2.881896914294362,-1.6877917589008806
1772537138059024000,1.16602392578125,4.80315489924252,1.9892107004508375,-1.6444602744355796
1772537138069072100,1.176072021484375,5.99353138950169,1.1648122792832554,-1.370596571548283
1772537138079124500,1.18612451171875,7.01781247767508,0.7902255179308354,-0.782876981798932
1772537138089172500,1.19617236328125,8.050790667045115,0.46925614580176767,-0.13515446650758384
1772537138099220500,1.206220458984375,8.997878625422716,0.24316549002379179,0.34017741901129483
1772537138109269500,1.21626953125,10.109697711795567,0.205833245973289,0.6116618255466223
1772537138119317500,1.2263173828125,11.101153219687937,0.2928388908617198,0.6065463091637939
1772537138129365500,1.236365478515625,11.893152323162555,0.5213065779693424,0.5426050212595611
1772537138139414500,1.24641455078125,12.539782001715897,0.9715509301133454,0.6090816728603095
1772537138149462500,1.256462646484375,12.776909672880173,1.4651206292428076,0.6696176823657005
1772537138159510500,1.266510498046875,12.895375893306731,2.0009861861795186,0.8472434363126754
1772537138169559600,1.2765595703125,12.737305976766347,2.422095483123511,1.0419915169090033
1772537138179607600,1.286607666015625,12.552698766434192,2.6971488341867924,1.2643226009577513
1772537138189655600,1.296655517578125,12.148736857515573,2.8011390777543186,1.4176320250980554
1772537138199704600,1.30670458984375,11.60830194683671,2.7071964732095597,1.2797177384883165
1772537138209752600,1.316752685546875,11.247615700542926,2.4772280261501667,1.000254900419712
1772537138219800600,1.326800537109375,10.487082579433917,2.165829542377591,0.567714401140064
1772537138229849600,1.336849609375,9.335276935109496,1.8177979027345776,0.37505050640664994
1772537138239897600,1.346897705078125,7.788719693282246,1.2914686742976307,0.6167218854151666
1772537138249945600,1.356945556640625,5.922413780227303,0.4182512771643698,0.7072385340992361
1772537138259994600,1.36699462890625,3.910418124255538,-0.7206599604040383,0.6406837757609785
1772537138270042600,1.377042724609375,1.806647855427861,-1.6265896867021918,0.5844964629843831
1772537138280090600,1.387090576171875,-0.7148042201131581,-1.6582240113720297,0.8631889012023806
1772537138290139400,1.397139404296875,-3.5676720238000152,-1.2524731732100247,1.3625604184783995
1772537138300187600,1.407187744140625,-6.202578629085421,-0.5692360577493906,1.52044124218747
1772537138310235400,1.4172353515625,-7.821671530291438,0.06743205262944102,0.9194830353543162
1772537138320284700,1.42728466796875,-8.424519934785366,0.45546413261890406,-0.3137665280781686
1772537138330332400,1.43733251953125,-8.93460939156115,0.3395123792313039,-1.56941657775864
1772537138340380700,1.447380615234375,-9.813845464462041,-0.3202346281137317,-2.311255081400275
1772537138350429400,1.457429443359375,-10.983711081612109,-0.9668241938523947,-2.3072880774654445
1772537138360477400,1.4674775390625,-11.665830591219663,-1.6164152064293622,-1.9857789724364876
1772537138370525700,1.477525634765625,-11.75132626993656,-2.2577584690123795,-1.136143818681687
1772537138380574500,1.487574462890625,-12.295733591377735,-2.8849530869945883,0.0671618573859334
1772537138390622700,1.497622802734375,-13.02714232481122,-3.4589249410942196,0.98275789523907
1772537138400670500,1.50767041015625,-13.277164548861979,-3.848927005982399,1.7767247185900807
1772537138410719700,1.5177197265625,-13.002806340456008,-4.121639493007958,2.492888244357705
1772537138420767500,1.527767578125,-12.348555665504932,-4.400153944310546,2.7990783458322284
1772537138430815500,1.5378154296875,-11.592572462785244,-4.509015885567665,2.2202496993511915
1772537138440864500,1.547864501953125,-10.492658918261528,-4.081393407337368,1.138013485011086
1772537138450912500,1.55791259765625,-9.219933230617642,-3.320993264958262,0.33445144257992504
1772537138460960500,1.56796044921875,-7.869412940153479,-2.3374374242745337,-0.48528863138779993
1772537138471008500,1.578008544921875,-6.472461153382063,-1.1023762813754379,-1.089714368201047
1772537138481057500,1.5880576171875,-5.692489172309637,0.32625600729510185,-1.3291302964329719
1772537138491105500,1.59810546875,-5.344970450624824,1.6553239060163496,-1.5592492578789592
1772537138501153500,1.608153564453125,-4.82432277495563,2.824703785476088,-1.4846006979994475
1772537138511202600,1.61820263671875,-3.935016558939218,3.9005306442305443,-1.1983543372705578
1772537138521250600,1.62825048828125,-2.7322482046186924,4.491001505449414,-1.12609077283144
1772537138531298600,1.638298583984375,-1.3087515252709387,4.6948368556037545,-0.8668589680172503
1772537138541347600,1.64834765625,0.3683101653009653,4.237345016549527,-0.8349724221520125
1772537138551395600,1.6583955078125,2.190012966519594,3.5033737391516566,-0.8449778294682502
1772537138561443600,1.668443603515625,3.962248264735937,2.850159713771939,-0.6687102851971983
1772537138571492400,1.678492431640625,5.656030203962326,2.295793746765703,-0.421846671307832
1772537138581540600,1.68854052734375,6.9625389187425375,1.7732352690391242,-0.09795096340328455
1772537138591588600,1.698588623046875,8.07687495637238,1.4185954633027313,0.36428412465527654
1772537138601637600,1.7086376953125,9.118138743528723,1.5155354960978031,1.0253940178513525
1772537138611685600,1.718685546875,10.154558597785234,1.7134144220657646,1.4927717294953762
1772537138621733600,1.728733642578125,11.346984421789646,1.765333702134341,1.6377232212655246
1772537138631782700,1.73878271484375,12.232736160194873,1.852135641144216,1.7112147200644015
1772537138641830400,1.748830322265625,12.641256170809267,2.0113935984253883,1.637123501806706
1772537138651878700,1.758878662109375,13.0383312428236,2.106442702907324,1.5717333302684127
1772537138661927400,1.768927490234375,13.410652981853485,2.332328995219618,1.6179773411795495
1772537138671975700,1.7789755859375,13.683650423300266,2.567680158230662,1.716618332673609
1772537138682023400,1.7890234375,13.50652158602476,2.526995681142807,1.842165451271832
1772537138692072700,1.79907275390625,13.082724511301517,2.4752614022523165,1.9853927495978771
1772537138702120400,1.809120361328125,12.685817781591414,2.4173048878461123,2.2125429243661463
1772537138712168400,1.81916845703125,12.057034725373983,2.1643612233906984,2.526501760146022
1772537138722217500,1.829217529296875,11.210088226181268,1.6890511113122104,2.6839061985149977
1772537138732265500,1.839265380859375,10.066932921302318,0.9424822181478142,2.473879884766042
1772537138742313700,1.849313720703125,8.52386118350327,0.05802899512052535,2.0021555222198364
1772537138752362500,1.859362548828125,6.214381879603862,-0.7439370833560824,1.7537293351888656
1772537138762410800,1.86941064453125,3.455827851861715,-1.3560714948505161,1.6818556468501686
1772537138772458500,1.87945849609375,0.9506652323424816,-1.9878541712753472,1.785078997698426
1772537138782507800,1.8895078125,-1.3686638499200343,-2.4747312408983704,1.854717620461434
1772537138792555500,1.899555419921875,-3.962294441965222,-2.6471228205189106,1.540851431401074
1772537138802603500,1.909603515625,-6.195779470464587,-2.3695409738913176,0.967694181619957
1772537138812652500,1.919652587890625,-7.9458128737449645,-1.0595746660031378,0.05398446897007524
1772537138822700500,1.929700439453125,-9.057975074467063,0.15167195913158357,-0.9685950759824364
1772537138832748500,1.93974853515625,-9.066560531982779,0.19909217421524225,-1.9410398131303488
1772537138842797600,1.949797607421875,-9.602846506288648,-0.050441170340031385,-2.2852947107136248
1772537138852845600,1.959845458984375,-11.436771660220622,-0.12156740131229161,-2.3545935801282525
1772537138862893600,1.9698935546875,-12.84920100210905,-0.3526036237336695,-2.411934154593199
1772537138872942300,1.9799423828125,-12.790670487207173,-0.7342389153581113,-2.5146485330060124
1772537138882990600,1.989990478515625,-12.290851664555072,-0.8210594129379838,-2.1713886378094553
1772537138893038600,2.00003857421875,-11.903796466773748,-0.92395652750656,-1.4212307802423834
1772537138903087600,2.010087646484375,-11.857381921601295,-1.4708743704639375,-0.9271707403127103
1772537138913135600,2.020135498046875,-11.860531325542926,-2.01175877847597,-0.5775489819340408
1772537138923183400,2.030183349609375,-11.622599352258444,-2.4169834008067843,0.04802797171846032
1772537138933232600,2.040232666015625,-11.285331390953063,-2.8090450285732746,0.5305501340676099
1772537138943280400,2.0502802734375,-10.615006364035606,-3.063015405727923,0.7357825646035373
1772537138953328600,2.06032861328125,-9.542663548004626,-2.9351503655761477,0.5750009048864245
1772537138963377400,2.07037744140625,-8.2494065289855,-2.318056139717251,0.2688843070395291
1772537138973425700,2.08042578125,-6.903688085845112,-1.3225425886057316,-0.028262364018708467
1772537138983473700,2.0904736328125,-5.589338594436645,-0.09589534604772924,-0.23125687943473458
1772537138993522700,2.100522705078125,-4.224386458516121,1.0260003131814301,-0.1923043407060206
1772537139003570400,2.1105703125,-3.0726071176767347,1.8058128659084438,-0.10534151204600929
1772537139013618400,2.120618408203125,-2.278061252328753,2.0268115323096514,-0.012173837396502494
1772537139023667500,2.13066748046875,-1.6889555419832467,1.9568327178068459,0.19505422393605112
1772537139033715500,2.140715576171875,-0.8744844944596291,1.804648790565133,0.4542379518248141
1772537139043763700,2.150763671875,0.5252449403315782,1.5796312439113855,0.5375066021420061
1772537139053812500,2.1608125,2.0946564035236834,1.2196599409539253,0.5147568640649318
1772537139063860700,2.17086083984375,3.4432647228866813,1.0341936295744032,0.694970223352313
1772537139073904600,2.180904541015625,4.3756051939874885,0.8579721164021641,0.7108585512273013
1772537139083954000,2.190953857421875,5.1479029871702195,0.7634636946681886,0.710581195590645
1772537139094001700,2.201001708984375,6.09025164206624,0.9036381812948733,0.8094735314972699
1772537139104049700,2.211049560546875,7.234253334641457,1.109635604853928,0.8958359100461005
1772537139114098000,2.221097900390625,8.475510117310286,1.3268757955044508,1.0510839010335504
1772537139124146700,2.231146728515625,9.502013557708263,1.3088311663784087,1.1539384185694157
1772537139134195000,2.24119482421875,10.221681584465504,1.1571170486055313,1.1239677893280982
1772537139144242700,2.25124267578125,10.789797113752364,1.1740239058732986,1.3024657229997216
1772537139154292000,2.2612919921875,11.325634175246954,1.2626283642604947,1.5264713161319494
1772537139164339700,2.271339599609375,12.009474517297743,1.3562718397282063,1.7847678859226404
1772537139174387700,2.2813876953125,12.521941224598883,1.4716199281342326,1.9741383651338515
1772537139184436700,2.291436767578125,12.694316729867458,1.6089613832920788,2.0668616570167244
1772537139194484700,2.301484619140625,12.802086199712752,1.604113943260908,2.1705545250728724
1772537139204532700,2.31153271484375,12.856442059278487,1.5463992747865616,2.333349570439011
1772537139214581800,2.321581787109375,12.455794389474391,1.5988251892030239,2.409782091125846
1772537139224629800,2.331629638671875,11.876402263891697,1.3391131996564567,2.3031416253104804
1772537139234677800,2.341677734375,11.295006397271155,0.748212568718195,2.1216924406178292
1772537139244726800,2.351726806640625,10.547760627758503,0.3995193964265287,1.8453943501904606
1772537139254774800,2.36177490234375,9.508683536991477,0.2734766032658517,1.4403670039974152
1772537139264822800,2.37182275390625,7.93587950875163,0.20997107643038032,1.3723288021683693
1772537139274871800,2.381871826171875,5.794020624548197,0.030391046610474585,1.6137079932972789
1772537139284919800,2.391919921875,2.678329567426443,-0.5198239381961525,1.756566166049987
1772537139294967800,2.4019677734375,-0.6303092428714037,-1.429744487696141,1.6147864361837505
1772537139305016800,2.412016845703125,-3.224517342543602,-1.8810468244604766,1.5838684430897234
1772537139315064800,2.42206494140625,-5.643938199630379,-1.4168304994568228,1.4351657820925117
1772537139325112800,2.43211279296875,-7.631501425135135,-0.7139543252855539,0.9762686062850058
1772537139335161600,2.44216162109375,-9.151306269115208,-0.7913792180106043,0.10921879187077284
1772537139345209900,2.4522099609375,-10.66994323835969,-1.3638988274753092,-0.6093375473175198
1772537139355257900,2.4622578125,-12.245184138357638,-1.3607028079129755,-0.5649298119228333
1772537139365307000,2.472306884765625,-13.50672733772993,-1.264593234592676,-0.4260165043383837
1772537139375355000,2.48235498046875,-14.049785582649706,-1.5905749549910426,-0.7343145378775894
1772537139385403000,2.49240283203125,-14.172082759541272,-1.5961179760709403,-0.6355004548389465
1772537139395452000,2.502451904296875,-14.28126443427205,-1.2080979518454522,-0.15714885617271065
1772537139405499600,2.512499755859375,-13.7720628662467,-1.0360738903630524,-0.0556603662930429
1772537139415548000,2.5225478515625,-12.676897977554797,-1.2254793678224085,-0.13651084955260157
1772537139425596700,2.5325966796875,-11.4731815287292,-1.4841758967161178,-0.07019384549297392
1772537139435645000,2.54264501953125,-10.324672003340721,-1.9584787314482033,0.0462233334492892
1772537139445692700,2.552692626953125,-9.609046529972552,-2.3652812706202266,0.2630824158277362
1772537139455742000,2.562741943359375,-9.101949240750073,-2.6778815313979982,0.49231546128466724
1772537139465789700,2.572789794921875,-8.7280627366215,-2.7695985688477753,0.6485419419154524
1772537139475837700,2.582837646484375,-8.355474455609917,-2.4978096264079213,0.7824107525266707
1772537139485886700,2.59288671875,-7.923603380024432,-1.9632474071547388,0.9498651680059731
1772537139495934700,2.602934814453125,-7.11281657397151,-1.4325604218997061,0.9898574981112033
1772537139505983000,2.61298291015625,-5.9910430798172944,-0.6690402478039265,0.9826074539177119
1772537139516031700,2.62303173828125,-4.553080068221688,0.06774130124170333,0.7937279730938375
1772537139526080000,2.633080078125,-2.812649190545082,0.3779349392691627,0.521202094681561
1772537139536127700,2.643127685546875,-1.3162374971121549,0.5483359661269933,0.20295725214555857
1772537139546177000,2.653177001953125,-0.077093761074543,0.6865774388644844,-0.10321575206369162
1772537139556224800,2.663224853515625,0.9900947409331798,0.8142932798039167,-0.2960048075467348
1772537139566272800,2.673272705078125,1.8629051647007464,0.9776876793026924,-0.2683097220219672
1772537139576321800,2.68332177734375,2.5015923598170278,1.1730784417167306,-0.11974442366883158
1772537139586369800,2.693369873046875,3.2893022416651245,1.3123609479397536,-0.013082184413075446
1772537139596417800,2.703417724609375,4.153782643982768,1.3880790367469191,0.04157280422970652
1772537139606466800,2.713466796875,5.127259427592158,1.6321847302302717,0.1285289108879864
1772537139616514600,2.7235146484375,6.39529081993997,1.8879804231159387,0.1596523634262383
1772537139626562800,2.733562744140625,7.641809468659758,2.091906228032708,0.2915438826151192
1772537139636611600,2.743611572265625,8.538162680578232,2.1905935428865253,0.5647257407180964
1772537139646659800,2.753659912109375,9.203611041370033,2.183982161922753,0.7762152588874102
1772537139656707800,2.763707763671875,9.828926129215954,2.0485107384204864,0.9427217259921133
1772537139666756900,2.7737568359375,10.438796395170687,1.8893492272511123,1.0791618483960628
1772537139676804900,2.783804931640625,11.064834536594152,1.7863478485904634,1.1887351527929306
1772537139686852600,2.7938525390625,11.47297694606781,1.6704472408682107,1.3112936109691857
1772537139696900900,2.80390087890625,11.698879458862542,1.5933588866211472,1.421537069712579
1772537139706949600,2.81394970703125,11.878527585482596,1.570548504398018,1.505972864113003
1772537139716998000,2.823997802734375,11.989031448727845,1.6283702865086496,1.5406167458623647
1772537139727046000,2.8340458984375,11.761152082902193,1.879116294789314,1.6269063514359294
1772537139737095000,2.844094970703125,11.312834314906597,2.013325735531747,1.7066478505402802
1772537139747143000,2.854142822265625,10.697181958419083,1.8468381192579864,1.557293155375123
1772537139757190700,2.864190673828125,9.941547130745649,1.559946592493355,1.3079039685308933
1772537139767240000,2.874239990234375,9.102473556885123,1.2029340662762522,1.246894204033911
1772537139777287700,2.88428759765625,7.571975469455123,0.887588013921678,1.2887629224702715
1772537139787336000,2.8943359375,5.614878693884611,0.19142244330495595,1.2270476400524377
1772537139797384700,2.904384765625,3.6150726574003693,-0.7337135032445192,0.9131577778555452
1772537139807433000,2.914432861328125,1.3560650651097297,-1.4000338245652615,0.6401868590895086
1772537139817480700,2.924480712890625,-0.9185866710364818,-1.7347030015490947,0.3760244660053402
1772537139827530000,2.934530029296875,-2.8450147520989177,-0.9814693897984922,0.3165850195650011
1772537139837577700,2.94457763671875,-4.356624014663696,0.760349873496592,0.6176433841742575
1772537139847625700,2.954625732421875,-5.6462529063135385,1.4401387481994925,-0.0930954131308943
1772537139857674800,2.9646748046875,-7.140251108863949,0.13563333606570957,-1.2900275355786084
1772537139867722800,2.97472265625,-9.21189722367823,-1.188080999733135,-1.3605201448224484
1772537139877771000,2.98477099609375,-11.901902615851164,-1.8869819135978816,-0.9631473319705575
1772537139887819800,2.99481982421875,-13.60924780100584,-3.017488164784014,-0.9321322351776062
1772537139897868000,3.004867919921875,-14.227704693520069,-3.7792768389120694,-0.9558660889212042
1772537139907915800,3.014915771484375,-14.58268951330185,-3.4869498430952426,-0.663656801199913
1772537139917964800,3.02496484375,-15.145197139579057,-2.838141651459038,-0.0077676383268088095
1772537139928012800,3.0350126953125,-15.372645128250122,-2.3028968567691743,0.4440802034910768
1772537139938060800,3.045060791015625,-14.665913739955425,-2.085713218611479,0.5531855250500142
1772537139948109800,3.05510986328125,-13.118031971526145,-1.9717723666548728,0.5299693385049701
1772537139958157800,3.06515771484375,-11.721962228286266,-2.1055599287234243,0.3671504008065909
1772537139968205600,3.07520556640625,-10.51497596400976,-2.342819117312878,0.09183825267665087
1772537139978254800,3.0852548828125,-9.356745839595794,-2.0677090676262972,-0.0431037401240319
1772537139988302600,3.095302490234375,-8.093749518805742,-1.5002493718996643,-0.1951351071525365
1772537139998350800,3.105350830078125,-6.565445726549625,-1.030576388925314,-0.33984351088181136
1772537140008399600,3.115399658203125,-4.9840527336627245,-0.3557539044581354,-0.34722762978374955
1772537140018448000,3.12544775390625,-3.4127012423187493,0.3607296470440924,-0.3680884123090654
1772537140028496000,3.135495849609375,-1.820273645198345,0.9499204783897847,-0.38090383554473517
1772537140038545000,3.145544921875,-0.24186522108018396,1.3351739605113864,-0.2623629424467683
1772537140048593000,3.155593017578125,1.169127366003394,1.3939037973776458,-0.02008504891246557
1772537140058640600,3.165640625,2.491179686874151,1.2579232553094624,0.13678747453689574
1772537140068690000,3.17568994140625,3.787722887957096,1.1052614083576946,0.2981746989317238
1772537140078738000,3.185738037109375,5.099048063108325,1.0267525197882206,0.4301144411765039
1772537140088786000,3.195785888671875,6.068859309947491,1.0409951993480324,0.49856633837297554
1772537140098835000,3.2058349609375,6.589502309441566,1.0616930463965981,0.6287965002208947
1772537140108883000,3.215883056640625,7.01055739198029,1.1955453442644328,0.9170005708888173
1772537140118931000,3.225930908203125,7.403758837431669,1.2469158313438296,1.1793449547655879
1772537140128979000,3.23597900390625,8.171014544793962,1.2255149505924432,1.4027462983943522
1772537140139027700,3.24602783203125,9.080829880353807,1.2497358572006225,1.4882649195954203
1772537140149076000,3.256075927734375,9.794382054579257,1.2424721498079596,1.509512436416
1772537140159124700,3.266124755859375,10.246480510157346,1.286292732964456,1.5550991524621844
1772537140169173000,3.276173095703125,10.60614150505662,1.4265977141030133,1.4933257101163266
1772537140179221000,3.286220947265625,10.997429810363053,1.5308689665690063,1.3969947491303085
1772537140189268700,3.296268798828125,11.461501612329482,1.6441715206220746,1.321626058282703
1772537140199318000,3.306318115234375,11.815546520912646,1.8036738080531358,1.1767802188441157
1772537140209365800,3.31636572265625,11.781433823430538,2.045986919031292,1.02155721616745
1772537140219414000,3.3264140625,11.382516338419913,2.285394956217706,1.0613383146747946
1772537140229462800,3.336462890625,10.638445691812038,2.454405953489244,1.1078241715177892
1772537140239511000,3.346510986328125,10.018852488744258,2.2672572419807313,1.0966514739878475
1772537140249559000,3.35655908203125,9.130008045020698,1.7296894111707806,0.9349873323477804
1772537140259608000,3.366608154296875,7.732700284418463,1.0114382654741405,0.7354623927384615
1772537140269656000,3.376656005859375,5.766892379125952,0.3148269969165325,0.7035631335221231
1772537140279703800,3.386703857421875,3.805995626750588,-0.30879677684158086,0.8287726907290518
1772537140289753000,3.396753173828125,1.9387100550085306,-0.48677360924854873,1.0222460021492092
1772537140299800800,3.40680078125,0.5187433033525943,-0.9371673067353665,1.0455439486935734
1772537140309849000,3.41684912109375,-1.2767355078071354,-1.6769855565957723,0.8233713431421666
1772537140319897900,3.42689794921875,-4.132642825320363,-1.404262840437144,0.5366195171091706
1772537140329946000,3.436946044921875,-6.892257760292291,-0.38008623555153603,0.5291116256970911
1772537140339993900,3.446993896484375,-8.735302040225267,0.2354372338593006,0.28990364112742245
1772537140350043000,3.45704296875,-9.903901582962273,-0.13243205580636858,-0.650604208207503
1772537140360091000,3.4670908203125,-10.391537800389528,-0.6494178479671477,-1.167484274971485
1772537140370139000,3.477138916015625,-10.580047278857231,-0.9939395797930657,-1.6286235306173562
1772537140380188000,3.48718798828125,-10.717058040755987,-1.7928987315386533,-2.161689373832941
1772537140390236000,3.49723583984375,-10.93850182057619,-2.2007550175473094,-1.9629427251197396
1772537140400284000,3.507283935546875,-11.264873124814033,-2.415985914202034,-1.2269795432522892
1772537140410333000,3.5173330078125,-11.486729577088356,-2.6599621360868215,-0.07773973082788288
1772537140420381000,3.527380859375,-11.623722803330422,-2.9614588190481066,0.9718906103964895
1772537140430429000,3.537428955078125,-11.116114641976356,-3.4588854858666656,1.6029995522782206
1772537140440478000,3.54747802734375,-10.155212093257903,-3.7771179073125123,2.061690391858667
1772537140450526000,3.55752587890625,-9.203630915114283,-3.9296000868484375,2.1915061276867984
1772537140460574000,3.567573974609375,-8.207194111678003,-4.061026618874073,1.9203730188071726
1772537140470623000,3.577623046875,-7.11164110045135,-3.9706791162118313,1.3740049186870456
1772537140480671000,3.5876708984375,-6.099889238983392,-3.470836035901308,0.8062319922927766
1772537140490718700,3.59771875,-5.548450703731179,-2.666362066257,0.24603739219829437
1772537140500768000,3.60776806640625,-5.290612252971529,-1.6580974623829126,-0.1902447778277099
1772537140510815700,3.617815673828125,-4.869931264442205,-0.5857749584876001,-0.5110170930147171
1772537140520864000,3.627864013671875,-4.120846004542708,0.5008090027332306,-0.7478571794092654
1772537140530912800,3.637912841796875,-3.2580911108434196,1.3812977060437202,-0.9246203982427715
1772537140540961000,3.6479609375,-2.3883611174345014,1.921163292402029,-0.9896563495159149
1772537140551009000,3.658009033203125,-1.4077508286833762,2.0461063076272605,-0.8775111488044262
1772537140561058000,3.66805810546875,-0.22946751179993152,1.8787164818167685,-0.6053133333027363
1772537140571106000,3.67810595703125,0.9546282907545566,1.5618958268649876,-0.4210764175876975
1772537140581153800,3.68815380859375,1.9574433970510958,1.2108480542711912,-0.2617845580369234
1772537140591202000,3.6982021484375,2.945707999947667,1.0365812553633005,-0.13491700448989868
1772537140601250800,3.708250732421875,3.934232130563259,1.1235557013958692,0.027949790938198566
1772537140611299000,3.718299072265625,4.9359816534549,1.3736732025146483,0.2718485636726022
1772537140621347000,3.72834716796875,5.754880454292893,1.6385498813480137,0.7160602115236222
1772537140631395800,3.738395751953125,6.47306321092844,1.9042193179942666,1.2192029179014265
1772537140641443800,3.74844384765625,7.217112230226397,2.010042476077378,1.6405683815635739
1772537140651491800,3.758491943359375,8.267285300025343,1.9363013864316045,1.9129891921661792
1772537140661540900,3.768540771484375,9.496589779093862,1.7075037367172539,2.0489108436539767
1772537140671588900,3.7785888671875,10.482983911943435,1.5905121188879012,1.9606053682133555
1772537140681636900,3.788636962890625,11.199563325035571,1.6146164864443242,1.7693289092503488
1772537140691686000,3.798685791015625,11.501900258213281,1.8649721802331507,1.6067393233284353
1772537140701734000,3.80873388671875,11.480015758663415,2.3538138279274103,1.4953325198940932
1772537140711782000,3.818781982421875,11.36105737080574,2.775667367367446,1.2980081590689718
1772537140721831000,3.828830810546875,11.26821425193548,3.101964437325299,1.0768654080219566
1772537140731879000,3.83887890625,11.124356400620936,3.3150942700475454,0.963306248859316
1772537140741927000,3.848927001953125,10.614818147987126,3.1902161367520687,0.7481302972622216
1772537140751976000,3.858975830078125,9.948094944953917,2.623390062753856,0.32049875894263385
1772537140762024000,3.86902392578125,8.882294682434202,1.7892182894602418,-0.3047385874919593
1772537140772072000,3.879072021484375,7.23032943919599,0.9858920285463333,-0.4113593256935477
1772537140782121000,3.889120849609375,4.86751601999402,0.23363953678756952,-0.02846957702860236
1772537140792169000,3.8991689453125,2.075883898514509,-0.3217448134809732,0.05638130097873509
1772537140802217000,3.909217041015625,-0.13515607394278048,-0.2508630587890744,0.31273594292141493
1772537140812266000,3.919265869140625,-1.7081079862207174,0.0735435212470591,0.7380292475517839
1772537140822314000,3.92931396484375,-3.4607360821694133,0.3790449098050594,0.5403782120555639
1772537140832362000,3.939362060546875,-4.470631502115726,0.5211417427964509,0.1194400338947773
1772537140842411000,3.949410888671875,-4.947622991409897,0.22701062016710638,-1.034696464530006
1772537140852459000,3.959458984375,-5.001332954287529,-0.9068301822692155,-2.147879167406261
1772537140862506800,3.9695068359375,-6.008070786985755,-1.8980225091807543,-1.7775867422468958
1772537140872556000,3.97955615234375,-8.725209100756048,-2.503693716010451,-0.7378766873385757
1772537140882603800,3.989603759765625,-10.985922912442684,-3.0692998928248882,0.20796412052214144
1772537140892652000,3.999652099609375,-12.067697573685646,-3.6361402876093982,0.7119756456237286
1772537140902700800,4.00970068359375,-11.796240931940078,-3.9219121626943347,0.8806666902258992
1772537140912748800,4.019748779296875,-10.443965906763076,-3.929349034696817,0.9936252531468868
1772537140922797000,4.029797119140625,-9.270669146120548,-3.9227182183802127,0.728233464398235
1772537140932845800,4.039845703125,-8.891409132260083,-3.9719004747003313,0.49155996674224733
1772537140942894000,4.04989404296875,-8.71461405698359,-3.61960387108922,0.5466580229774117
1772537140952941800,4.05994189453125,-8.17174870428741,-3.163734080278873,0.07639175028502941
1772537140962991000,4.0699912109375,-7.148128125849365,-2.974056142553687,-0.6558950811572373
1772537140973038800,4.080038818359375,-5.932075342541933,-2.5979008167102933,-1.074787871095538
1772537140983086800,4.0900869140625,-5.009976863992214,-2.123874314701557,-1.4658356456443666
1772537140993135900,4.100135986328125,-4.6680701369702815,-1.8616309069812296,-1.6448587722338734
1772537141003183900,4.110183837890625,-4.723483981156349,-1.5456483102887868,-1.302077308204025
1772537141013231900,4.12023193359375,-4.795659575051069,-1.2698565619483588,-0.751212188925594
1772537141023279900,4.13027978515625,-4.956273330855369,-1.4207245842859149,-0.3765059659119695
1772537141033329000,4.140328857421875,-5.121954891443252,-1.5533467558369038,0.08268500521034002
1772537141043377000,4.150376953125,-4.630529218605161,-1.319213590313494,0.5122323870886117
1772537141053425000,4.1604248046875,-3.556456802302599,-1.1419593730926514,0.5449768649574369
1772537141063474000,4.170473876953125,-2.282091530758142,-0.8610054196834563,0.2734470849104225
1772537141073522400,4.1805224609375,-0.47963411275744433,-0.41537984991390253,-0.19279723878949878
1772537141083570200,4.190570068359375,1.3270049748420714,0.0897550166618079,-0.8201243971101939
1772537141093619500,4.200619384765625,2.5301445005625487,0.7979004364728927,-1.1126396089754997
1772537141103667200,4.210667236328125,3.1261797179102895,1.4943736117340622,-0.9740234577067196
1772537141113715500,4.220715576171875,3.2746377564966678,2.036555950602144,-0.6521032876588404
1772537141123764200,4.23076416015625,3.882922214564681,2.4661063281551003,-0.10620514313802122
1772537141133812200,4.240812255859375,5.073666953614354,2.5575544855356216,0.34642332766354084
1772537141143860200,4.250860107421875,6.705465607136488,2.262067564383149,0.6619361148871481
1772537141153909200,4.2609091796875,8.125546340560913,1.9497880599923432,0.9758134098634124
1772537141163957200,4.270957275390625,9.335672071906924,1.5915037602737545,1.291707159228623
1772537141174005200,4.281005126953125,10.25005427699089,1.331806529904902,1.5453376369044183
1772537141184054300,4.29105419921875,11.077180807948112,1.2674474549800157,1.7359429186075925
1772537141194102300,4.301102294921875,11.9496498709321,1.3915125183269381,1.8108561207726597
1772537141204150300,4.311150390625,12.600303398174047,1.4855204431928692,1.8419548772610723
1772537141214199300,4.32119921875,12.659558720219135,1.5041053166754543,1.7639103913329541
1772537141224247300,4.331247314453125,12.221602187240123,1.5782055950224398,1.5162372146263718
1772537141234295300,4.34129541015625,11.882799271452427,1.6397228706501423,1.2753072285696863
1772537141244344300,4.35134423828125,11.048569630491732,1.7589694277994334,1.2073307668652384
1772537141254392300,4.361392333984375,9.453506424170731,1.685696832448244,0.9369289679348468
1772537141264440300,4.3714404296875,7.980743901872635,1.4284513791456819,0.48069604290053247
1772537141274489300,4.3814892578125,6.241265794876218,1.0899269880384206,0.21373218252956866
1772537141284537300,4.391537353515625,4.041364471548795,0.6932799321778118,0.14837057949863372
1772537141294585300,4.40158544921875,2.21868610329628,0.081488635032624,0.3419366107035428
1772537141304634400,4.41163427734375,0.9814420634001493,-0.6975732454575598,0.327190073274821
1772537141314682400,4.421682373046875,-0.24263620545268058,-1.2957804000169038,0.27148659849241374
1772537141324730400,4.43173046875,-1.9488129313498734,-1.4761628322608769,0.1554215939886868
1772537141334779100,4.441779052734375,-3.7503134870171544,-0.7460854935616255,0.231764755891636
1772537141344827400,4.451827392578125,-5.444527387920021,0.6383208460219204,0.4766467675097286
1772537141354875400,4.46187548828125,-7.247755205771327,1.3157264788500964,0.19415785961821674
1772537141364924200,4.471924072265625,-8.807243240842222,0.5428356151450425,-0.38743184907399114
1772537141374972400,4.481972412109375,-9.834315421038866,-0.31255211078710854,-0.48990072829313575
1772537141385020200,4.492020263671875,-10.736332065546511,-1.434713654410839,-0.4944053462360054
1772537141395069400,4.5020693359375,-11.382128215885162,-2.9309844780683516,-0.5631603180322796
1772537141405117200,4.5121171875,-11.744841584092377,-3.5531560071915385,0.08688347981348633
1772537141415165200,4.522165283203125,-12.157531573867796,-3.4729759705394505,1.1387945523861795
1772537141425213400,4.53221337890625,-12.666079646420478,-3.3850235463201996,1.962337014311552
1772537141435262200,4.54226220703125,-12.615733607017994,-3.3333503499671813,2.29740717331171
1772537141445310500,4.552310546875,-12.002308278930187,-3.482359884956479,2.185695395581424
1772537141455358200,4.562358154296875,-11.11800849289894,-3.5636893839046357,1.6008393055044114
1772537141465407500,4.572407470703125,-9.91796868675947,-3.347305517822504,0.7513754897285252
1772537141475455200,4.582455322265625,-8.541846337527037,-2.776428122606873,-0.11819544066116214
1772537141485503200,4.592503173828125,-7.151613045355677,-1.9002502682328224,-0.8126192821770906
1772537141495552300,4.60255224609375,-6.090760176110267,-0.8768643022682517,-1.408989430567622
1772537141505600300,4.612600341796875,-5.478222152251005,0.08756388155939057,-1.9393293559506535
1772537141515648300,4.622648193359375,-4.904506903260946,1.036743314057216,-2.194003643590957
1772537141525697300,4.632697265625,-4.125550236710906,1.9313669987693427,-2.2189595134101805
1772537141535745300,4.642745361328125,-3.0180408302307127,2.6584137376010415,-2.0322524081893265
1772537141545793300,4.652793212890625,-1.5194757581561802,2.7551068098977205,-1.5391583637475967
1772537141555842300,4.66284228515625,0.08227145597338675,2.2311367118075487,-0.9145160605967044
1772537141565890300,4.672890380859375,1.3848895930558442,1.4379758710771797,-0.18280629839003085
1772537141575938300,4.682938232421875,2.5224603758007285,0.5662690246373414,0.5527399732396007
1772537141585987300,4.6929873046875,3.7409675665229556,-0.10499098157528787,1.1492992144614458
1772537141596035300,4.703035400390625,5.056389655598998,-0.39166590644717214,1.6744016775824129
1772537141606083300,4.713083251953125,6.446207937228679,-0.3779639827005565,1.9639896038241684
1772537141616132400,4.72313232421875,7.957359519153833,-0.23884583672638982,2.075131911103427
1772537141626180400,4.733180419921875,9.168926096957922,0.003353402081131935,2.1969864587940275
1772537141636228400,4.743228271484375,10.011417370307445,0.26829558389876035,2.2791489014349877
1772537141646277000,4.753277099609375,10.62307510420084,0.4200824381142854,2.3284208818651733
1772537141656325400,4.763325439453125,11.10401971503496,0.5067492795024067,2.2961603881210086
1772537141666373400,4.773373291015625,11.390063685059546,0.6297399916160852,2.1505479482240974
1772537141676422400,4.78342236328125,11.448048256516456,0.7043666319247335,1.9558324547231196
1772537141686470100,4.79347021484375,11.433584846878052,1.0699538750678301,1.7054335063144563
1772537141696518100,4.80351806640625,11.895899576044082,1.3868262602068484,1.3309021284110842
1772537141706567200,4.813567138671875,12.224054841089249,1.5543696691438555,1.179242371173948
1772537141716615200,4.823615234375,11.716132206958532,1.7580811006575823,1.0279955786518753
1772537141726663400,4.833663330078125,10.872709205716848,1.7491143887393175,1.1369387684516608
1772537141736712200,4.843712158203125,9.932453139185904,1.5907603945605455,1.3431678818747401
1772537141746760400,4.853760498046875,8.699484876912832,1.1470027740873396,1.1591112911626695
1772537141756808200,4.86380810546875,7.4615721439749,0.1445741828903556,0.7175248772487044
1772537141766857500,4.873857421875,5.962917055529355,-0.5782037925809621,0.2954338757909834
1772537141776905200,4.8839052734375,3.9774277136892078,-0.7193776655085384,-0.03250160902366042
1772537141786953200,4.893953125,1.6658873856067657,-0.8539036248542368,-0.16990531576275825
1772537141797002200,4.904002197265625,-0.9007499855726957,-0.85674177088961,0.040394992621988056
1772537141807050200,4.91405029296875,-3.2930063568800687,-0.05461743311136961,0.7804291502553969
1772537141817098500,4.924098388671875,-5.13057542027235,0.9163215025834739,1.174131896292418
1772537141827147300,4.934147216796875,-5.729747182080149,1.3913032594904302,1.2007598640423267
1772537141837195500,4.944195556640625,-6.003150281718373,1.9115990529820321,0.9303329306706786
1772537141847243300,4.9542431640625,-7.058899690344929,1.3147764846488832,-0.27432737487629055
1772537141857291300,4.964291259765625,-8.400504268425703,0.1063700696424581,-1.11401002054587
1772537141867340300,4.97434033203125,-9.416852225512265,-0.3318925884099677,-1.3268448158442974
1772537141877388300,4.98438818359375,-9.92882676538229,-0.8303449084818363,-1.5350110348097978
1772537141887436300,4.994436279296875,-9.939170464742183,-1.4285567392162979,-1.5053142540737985
1772537141897485300,5.0044853515625,-10.106568181598186,-1.4409703767180442,-0.5647895266693085
1772537141907533300,5.014533203125,-10.597517469096184,-1.4210104154899716,0.4987260589793324
1772537141917581300,5.024581298828125,-11.502249802303314,-1.7695089419923722,1.2656038729399441
1772537141927630000,5.034630126953125,-11.908070490831136,-1.9599716003544627,1.9110949028521775
1772537141937678300,5.04467822265625,-11.59358485469818,-2.1762600432381034,2.13664918673113
1772537141947726300,5.054726318359375,-10.804349370718002,-2.455339727208018,1.8785753197804091
1772537141957775400,5.064775390625,-9.429308971503376,-2.585369836439192,1.5107640439122914
1772537141967823400,5.0748232421875,-8.054380800491572,-2.516898357759416,0.8809168655946851
1772537141977871400,5.084871337890625,-7.043812595850229,-2.0546245451256633,0.44186683829054235
1772537141987920400,5.09492041015625,-6.264332782208919,-1.3770279197700321,0.5066311330154538
1772537141997968100,5.104968017578125,-5.3703831243008375,-0.7948019590009003,0.5853079254977405
1772537142008016400,5.115016357421875,-4.367348822295665,-0.421799544230476,0.5516079004697502
1772537142018065200,5.125065185546875,-3.274639510062337,-0.03874330729166977,0.5430536418098956
1772537142028113400,5.135113525390625,-2.2039608278512954,0.2736563437469303,0.4073877917140722
1772537142038161200,5.1451611328125,-0.9339759633481503,0.3712011009695008,0.08441730889566242
1772537142048210400,5.15521044921875,0.5693979703128338,0.3748749671766534,-0.318940277454257
1772537142058258200,5.165258056640625,1.9383774620532987,0.4879577044665813,-0.6245140005961061
1772537142068306200,5.17530615234375,3.083513127094507,0.6396158542685211,-0.6761172004528343
1772537142078354700,5.185354736328125,3.928604938331246,0.7469662219189107,-0.601030687547475
1772537142088402400,5.19540234375,4.537189256128668,0.669396002439037,-0.45554275081306694
1772537142098450700,5.20545068359375,5.016799403488636,0.5720769071985036,-0.26135040440335866
1772537142108499500,5.21549951171875,5.34279427562952,0.5308091868625954,-0.1040744147196412
1772537142118547700,5.225547607421875,5.73625466427803,0.49004134234022345,0.12038082187622785
1772537142128595700,5.235595703125,6.301363997486233,0.46169239601660517,0.28157968409210443
1772537142138644700,5.245644775390625,6.825926800772547,0.3504435961555689,0.38762978279888627
1772537142148692500,5.2556923828125,7.304733230534196,0.4080607225395739,0.3226047913111746
1772537142158740500,5.265740478515625,7.841419602334499,0.5539140219876543,0.33606311556026336
1772537142168788700,5.275788818359375,8.389750819221138,0.6991813382413238,0.5276436720363795
1772537142178837500,5.28583740234375,8.745539941123127,0.7776968757472932,0.535915825819224
1772537142188885800,5.2958857421875,8.888978105720877,0.8316017036098986,0.6316983591422438
1772537142198933500,5.30593359375,8.89300020084381,0.9496954374622553,0.9236774183042347
1772537142208982800,5.315982666015625,9.002899668455123,0.9632716890025883,1.171163401875645
1772537142219030500,5.326030517578125,9.17443112411499,0.8134081675324588,1.2719495887048542
1772537142229078500,5.33607861328125,9.263436856779455,0.8024305541832,1.3950726950265466
1772537142239127600,5.34612744140625,9.122094787678122,0.7740808772072195,1.5428665706157683
1772537142249175600,5.356175537109375,8.652855227684974,0.5972404284190386,1.6045961738198995
1772537142259223800,5.366223876953125,7.923297090554237,0.5245274397119879,1.724712499541044
1772537142269272600,5.3762724609375,7.070796464365721,0.46792672382891176,1.7415629504464565
1772537142279320600,5.386320556640625,6.411506626203656,0.3746102883584797,1.7306512419402598
1772537142289368600,5.39636865234375,5.622326087281108,0.39164362155012783,1.8079995622977614
1772537142299417600,5.40641748046875,4.380221163350344,0.4678140572346747,1.7936578793428837
1772537142309465600,5.416465576171875,2.7973101671159264,0.5818018901381641,1.636429966584593
1772537142319513600,5.426513671875,1.0935901867210864,0.10738755785562097,0.953211994215846
1772537142329562600,5.436562744140625,-0.716596948748827,-1.1315214926432817,-0.3143320530064404
1772537142339610600,5.446610595703125,-2.7394728951752185,-2.1463965276330708,-1.4013086668066679
1772537142349658400,5.456658447265625,-4.879593411278725,-2.488145433744788,-1.763838641270995
1772537142359707600,5.466707763671875,-7.290305476731062,-2.569019590140879,-1.6240096070811152
1772537142369755400,5.47675537109375,-9.347451357027888,-2.349542872609943,-1.0425510504879056
1772537142379803600,5.4868037109375,-10.700477492833137,-1.375007081466913,-0.09337810252979398
1772537142389852400,5.496852294921875,-11.912898641639947,-0.6015399157112464,-0.0972026292540133
1772537142399900700,5.506900634765625,-13.165813128876685,-0.5891756337765603,-0.5985556757360696
1772537142409948700,5.51694873046875,-14.22542739623785,-0.938388080701977,-0.9874233297668397
1772537142419997700,5.526997802734375,-14.928677372157573,-1.3420295254945753,-1.0720321426466106
1772537142430045700,5.537045654296875,-15.445267296868561,-1.1089356398910284,-0.6820422065876424
1772537142440093400,5.547093505859375,-15.865530352246761,-0.6180520380403847,-0.11756284184604883
1772537142450142700,5.557142822265625,-15.60663157877922,-0.22982417975049466,0.2945366346903145
1772537142460190500,5.5671904296875,-14.513434190768002,0.08876147557981312,0.5906978018425405
1772537142470238700,5.57723876953125,-13.142698795270919,0.11834865846149623,0.48926747189089653
1772537142480287500,5.58728759765625,-11.601388221925497,0.0649064796745777,-0.01207315350100398
1772537142490335700,5.597335693359375,-9.917473012197018,0.31965105607211586,-0.3653250120103359
1772537142500383500,5.607383544921875,-7.937406279927492,0.7570904333092272,-0.7175650631286203
1772537142510432500,5.6174326171875,-5.9083887620061635,0.992014822275564,-0.9369228304550051
1772537142520480500,5.62748046875,-4.065386567649245,1.187220072054863,-1.1342843084201215
1772537142530528500,5.637528564453125,-2.721403569999337,1.5124061120308934,-1.3537524042531848
1772537142540576800,5.64757666015625,-1.207046470031142,1.736324026879668,-1.4289604977115988
1772537142550625500,5.65762548828125,0.7873311116635799,1.6958011700943112,-1.594194022271037
1772537142560673500,5.667673583984375,3.0029958213120698,1.5224400147892534,-1.7488630443267523
1772537142570721500,5.677721435546875,5.5034547931849955,1.1903778054334222,-1.7901207912579178
1772537142580770600,5.6877705078125,7.508547830161452,0.6881619315769523,-1.6530388638190925
1772537142590818600,5.697818603515625,8.854093254822493,0.3439833871655166,-1.104894840067625
1772537142600866600,5.707866455078125,9.728484225779772,0.2816050377290696,-0.4097296786651015
1772537142610915600,5.71791552734375,10.382001910281181,0.593309737906605,0.1184355330273509
1772537142620963600,5.727963623046875,11.09997482355833,0.916946429548785,0.7409595288500189
1772537142631011600,5.738011474609375,11.621221049642562,0.9936595938079058,1.3378564775936306
1772537142641060600,5.748060546875,11.865097610545158,0.8834040793005377,1.568861720354855
1772537142651108600,5.758108642578125,12.218480840349196,0.7533359030812978,1.9040328555114565
1772537142661156600,5.768156494140625,12.581008330595493,0.7567309523470699,2.1579368894316255
1772537142671205600,5.77820556640625,12.575018150269985,0.7329236680410802,2.258578845484555
1772537142681253600,5.788253662109375,12.477288428401947,0.6228742705650627,2.2803743515767154
1772537142691301600,5.798301513671875,12.052715108609199,0.7770064092651009,2.0312363630145787
1772537142701350700,5.8083505859375,11.402374885100125,1.0433854554854334,1.8191414262980221
1772537142711398700,5.818398681640625,10.578929673004149,1.2369245986834168,1.7247383646346628
1772537142721446400,5.8284462890625,9.771760472926497,1.5362006829857826,1.8823580531895159
1772537142731495700,5.83849560546875,8.863155097678304,1.6572390919879079,2.245601875011623
1772537142741543400,5.84854345703125,8.112356604120135,1.417826963148266,2.7282266940176485
1772537142751591700,5.858591796875,7.359765966448188,0.7480768135093152,2.7538424890503284
1772537142761640400,5.868640380859375,6.542168895858526,-0.2695220934864133,2.1668071552380916
1772537142771688700,5.878688720703125,5.376801174649596,-0.964316814141348,1.2027081485658884
1772537142781736700,5.88873681640625,3.632729894644022,-0.7264829674690961,0.4448828251108527
1772537142791785500,5.898785400390625,1.4190245023697614,-0.22186441638506949,0.07745338816717266
1772537142801833700,5.908833740234375,-0.8741273515850305,-0.11038096751794219,-0.18838322173953057
1772537142811881500,5.918881591796875,-2.7738106335848567,0.16109408666715025,-0.355203430968523
1772537142821930800,5.9289306640625,-4.403617821028829,0.6986940661810338,-0.5570917387083173
1772537142831978500,5.938978515625,-5.3731274545729155,0.7356758893586695,-1.0978932907424868
1772537142842026800,5.94902685546875,-5.948406299617886,0.3739030168719589,-1.744859361643344
1772537142852075500,5.959075439453125,-6.9010080529809,0.16975414378903805,-2.113550196824968
1772537142862123500,5.96912353515625,-8.672399301588534,0.7383678318563849,-2.3166798829279838
1772537142872171500,5.979171630859375,-10.718515838348864,1.600283279056847,-2.039419377209246
1772537142882219500,5.989219482421875,-11.732857716310024,1.5091101392254231,-1.977244076064229
1772537142892268500,5.9992685546875,-11.795693819451332,1.316122784691304,-1.7439616821512578
1772537142902316500,6.009316650390625,-11.346759965384006,1.1123965939998626,-0.9420540558636188
1772537142912365600,6.019365478515625,-11.166612657070159,0.1406493741294369,0.016515958254039287
1772537142922413600,6.02941357421875,-11.639937440550327,-1.3343331257730722,0.8724769540295004
1772537142932461600,6.039461669921875,-11.924827564364671,-2.4488759380213914,1.91208347549811
1772537142942509600,6.049509521484375,-11.594297971403599,-3.125382722313702,2.87476662402302
1772537142952558600,6.05955859375,-10.284287385982275,-3.520698675701022,3.381872973334789
1772537142962606600,6.069606689453125,-8.145123732212186,-3.6648809366643427,3.3184637464806435
1772537142972654600,6.079654541015625,-6.343644803854823,-4.081347230108082,2.55225141069144
1772537142982703600,6.08970361328125,-5.25568005580008,-4.449967776532471,1.361446758148074
1772537142992751600,6.099751708984375,-4.848341948446631,-4.629315166640281,-0.14265271330848336
1772537143002799600,6.109799560546875,-4.852941551196575,-4.608717784291506,-1.8465290533088146
1772537143012848600,6.1198486328125,-4.662682014191151,-3.2543834884971377,-2.807717579361796
1772537143022896600,6.129896728515625,-4.358655228230357,-0.7594974944509565,-3.248395938520133
1772537143032944600,6.139944580078125,-4.053369382119179,1.7743410383239386,-3.5292689356476066
1772537143042993700,6.14999365234375,-3.415626189854741,3.8493504920914767,-3.6323721672475338
1772537143053041700,6.160041748046875,-2.4063795892059803,4.940714527195691,-3.555538518413901
1772537143063089700,6.170089599609375,-1.4981711043208836,5.213469392058253,-3.3465821719840165
1772537143073138400,6.180138427734375,-0.4415267926812172,4.735079726403951,-3.004766630376875
1772537143083186700,6.190186767578125,0.9968313557118177,3.781881760713458,-2.4440488101258873
1772537143093234400,6.200234375,2.4422920295864343,2.7358950366884467,-1.5755702780827878
1772537143103283700,6.21028369140625,3.8457156427204606,1.5370928095199168,-0.4913512924276292
1772537143113331500,6.22033154296875,5.358895515602827,-0.06667568130418658,0.608941168411076
1772537143123379700,6.230379638671875,6.557987227237224,-1.4531148418895898,1.7368936434611677
1772537143133428500,6.240428466796875,7.590193263190984,-2.224441451952606,2.85256385230422
1772537143143476500,6.2504765625,8.814155212187767,-2.741675958177447,3.537202651256323
1772537143153524700,6.260524658203125,10.112530304872989,-2.7968545323029157,3.8042233563810584
1772537143163573500,6.270573486328125,11.116121656239033,-2.4326854123294352,3.906499489507079
1772537143173621800,6.280621826171875,11.731031669926642,-1.8985992861554026,3.8070489351958035
1772537143183669500,6.29066943359375,11.81665945059061,-1.188848988430947,3.583703997929394
1772537143193717500,6.300717529296875,11.558628107607364,-0.4556382836094126,3.3494214870631693
1772537143203766500,6.3107666015625,11.260975532853603,0.07468816123753785,3.1944264479234814
1772537143213814500,6.320814453125,11.012365513688325,0.413163671701774,2.9547517226248976
1772537143223862500,6.330862548828125,10.694643964374064,0.698595720373094,2.4658231272995472
1772537143233911600,6.34091162109375,10.286605599796772,0.9337162164334207,1.6627391507089138
1772537143243959600,6.35095947265625,9.663224110361933,1.2068250823654234,0.9035996759153903
1772537143254007600,6.361007568359375,8.781879082483053,1.5443787287443875,0.5475140552848577
1772537143264056600,6.371056640625,7.444727392157912,1.5235267871126532,0.09882847689017653
1772537143274104600,6.3811044921875,5.249239209097624,1.2164816031787544,-0.35835561138913036
1772537143284152600,6.391152587890625,2.929740030965209,0.9586307313289493,-0.3082185385622084
1772537143294201600,6.40120166015625,0.6718862848848104,0.611690174858272,0.11710939899012446
1772537143304249600,6.41124951171875,-1.7321604774594306,0.1471578427080065,0.44834085661023854
1772537143314297600,6.421297607421875,-3.577069966742396,-0.5011998286817223,0.36648368052616714
1772537143324346600,6.4313466796875,-4.661727489945292,-1.0600531702350824,0.02045505126863718
1772537143334394600,6.44139453125,-4.981553902584314,-0.8243992979504168,-0.6842486305907368
1772537143344442600,6.451442626953125,-4.8550662882655855,0.11848841399205848,-1.2007974926389753
1772537143354491600,6.46149169921875,-5.544470694184303,0.6243016730196773,-1.6128984304800629
1772537143364539600,6.47153955078125,-7.250861939615011,0.37345158331003037,-1.7778779802784324
1772537143374587600,6.481587646484375,-9.514577855727076,-0.20006207869332282,-1.6026377332285047
1772537143384636700,6.49163671875,-11.028721605205535,-0.5892906019257381,-1.3521606050170958
1772537143394684700,6.5016845703125,-11.705092926549911,-0.910631547313556,-1.1590120685718952
1772537143404732700,6.511732666015625,-11.991162615537643,-1.381982765698433,-0.6477450924493372
1772537143414781700,6.52178173828125,-12.197124748587608,-1.8376799764208493,-0.04132701277509331
1772537143424829400,6.531829345703125,-12.15847616124153,-2.225801634389907,0.43716874360218644
1772537143434877700,6.541877685546875,-11.617584154444932,-2.454879123958945,0.7180028700239955
1772537143444926500,6.551926513671875,-11.102393575137853,-2.7612062958166,0.6330994581118226
1772537143454974700,6.561974609375,-10.57165588260889,-2.929954550498724,0.26118147757723925
1772537143465022500,6.5720224609375,-9.738134682178497,-2.718302389113605,-0.08103110052347183
1772537143475071700,6.58207177734375,-8.7990774700433,-2.330505433054268,-0.7266093703277409
1772537143485119500,6.592119384765625,-7.848528557556867,-1.8049729079529642,-1.407776109255105
1772537143495167500,6.60216748046875,-6.55249447503984,-1.1946767447363584,-1.931934423393756
1772537143505215700,6.6122158203125,-4.904418640455603,-0.5605796904219315,-2.1475467205815018
1772537143515264500,6.622264404296875,-3.3548031801015137,0.024093773097172377,-1.9930837424919008
1772537143525312800,6.632312744140625,-2.304279981690645,0.5123239378295839,-1.6308908910274504
1772537143535360500,6.642360595703125,-1.6575345678031443,0.707674149037525,-1.5582554245360194
1772537143545409800,6.652409912109375,-0.5888473516702651,0.9692433107580989,-1.6233584496960043
1772537143555457500,6.66245751953125,1.019727662652731,1.3661613655798137,-1.5129994017489254
1772537143565505500,6.672505615234375,3.00312616969347,1.5883619551166892,-1.545265740711987
1772537143575554600,6.682554443359375,5.182077643972635,1.3466869959115981,-1.364365860465169
1772537143585602600,6.6926025390625,6.651581456735729,0.8140949076876044,-0.8595267254330218
1772537143595650600,6.702650634765625,7.1120035040229554,0.4817106998357922,0.21919782752431927
1772537143605699600,6.712699462890625,7.350872465896606,0.21990780242457986,1.16653355011791
1772537143615747600,6.72274755859375,7.935612382248044,-0.09957162340767681,2.052453630827367
1772537143625795600,6.732795654296875,8.690043094828724,-0.37331659528613087,2.9443916566520927
1772537143635844600,6.7428447265625,9.51830126016438,-0.6398511243291198,3.5885394552618264
1772537143645892600,6.752892578125,10.340828188371658,-0.9720162095375359,3.99282869643867
1772537143655940600,6.762940673828125,10.988338156890869,-1.1225733392950146,4.14349242837578
1772537143665989600,6.77298974609375,11.434489686763285,-0.969724372273311,3.8475790985047813
1772537143676037600,6.78303759765625,11.47853458019495,-0.40413302770182485,3.2317157296150922
1772537143686085600,6.793085693359375,11.209988857460022,0.4675471499267965,2.5619573966696856
1772537143696134700,6.803134765625,10.868393096083402,1.1824744118977337,1.9150681903973221
1772537143706182400,6.813182373046875,10.403831464773416,1.7433476419061422,1.4754948698714374
1772537143716230700,6.823230712890625,9.72196037696898,2.2993796424284576,1.1715951443564145
1772537143726279400,6.833279541015625,9.028627399429679,2.4446111201837657,0.8303727463368326
1772537143736327700,6.84332763671875,8.259728601035475,2.156910615123808,0.3224277542438358
1772537143746375700,6.853375732421875,7.034685871064663,2.2329314862698317,-0.2778668010488152
1772537143756424700,6.8634248046875,5.713703225252032,1.969019268554449,-0.9824928876273333
1772537143766472700,6.87347265625,4.223782062882185,1.3469225582331419,-1.650946421584487
1772537143776520400,6.8835205078125,2.6589064895540475,1.196806596371904,-1.8475816311016677
1772537143786569500,6.893569580078125,1.0163082095980644,0.8920775804258883,-1.8829685863032937
1772537143796617500,6.903617431640625,-0.6443547193586826,0.2686334740836173,-1.749194614368677
1772537143806665700,6.913665771484375,-2.230485846683383,-0.03645436523742974,-1.1926526915628461
1772537143816713500,6.92371337890625,-3.5642011328190564,-0.4242393385980278,-0.8073415609698742
1772537143826762800,6.9337626953125,-4.46094538988173,-0.3403770332366228,-0.3787735455177724
1772537143836810500,6.943810546875,-5.308286441349983,0.6974050492838024,-0.47710094101801515
1772537143846858500,6.9538583984375,-6.258850551405549,1.6122925735414027,-1.0545866484574973
1772537143856907500,6.963907470703125,-6.829990396949649,1.627073232435435,-1.81715478252545
1772537143866955500,6.97395556640625,-7.279421679145098,1.3471917305633425,-2.2266487527385355
1772537143877003800,6.984003662109375,-8.435955521035194,0.5584709181070328,-2.3713281495690346
1772537143887052500,6.994052490234375,-9.478816221994162,-0.6994619087483733,-1.9347714003853498
1772537143897100800,7.004100830078125,-10.021751717317104,-1.7949334522366522,-0.8327826570227742
1772537143907148500,7.0141484375,-10.607338605886698,-2.5548577937975523,0.736045161062479
1772537143917197800,7.02419775390625,-11.425870326977968,-3.279301364393532,2.2312772893220183
1772537143927245600,7.03424560546875,-12.075389881753921,-3.96389281707257,3.0620006757274267
1772537143937293600,7.04429345703125,-12.003484336972235,-4.546753495548665,3.216495364129543
1772537143947342600,7.054342529296875,-10.963488962316513,-4.79748679047823,2.5574106931507585
1772537143957390600,7.064390625,-9.570048398536443,-4.349493139870464,1.5041630382120608
1772537143967438600,7.0744384765625,-8.277514433094858,-3.7179385731130834,0.2639084183230996
1772537143977487600,7.084487548828125,-7.229591188049316,-3.048989510723948,-0.852509101755917
1772537143987535400,7.094535400390625,-6.613581688687205,-2.037871855506301,-1.4340601589381694
1772537143997583600,7.10458349609375,-6.3447419514417644,-1.086411527263373,-1.8012851593509316
1772537144007632400,7.11463232421875,-5.912953877964616,-0.15059758963203057,-1.9648647792235017
1772537144017680600,7.1246806640625,-5.407884879699349,0.9807024970792233,-2.0707547189325095
1772537144027728600,7.134728759765625,-4.418029792740941,2.0863588230386374,-2.4165711667440832
1772537144037776600,7.144776611328125,-2.6911487169891593,3.015124650523066,-2.8262124364733694
1772537144047825700,7.15482568359375,-0.432884636542201,3.7580192390888927,-2.916923219490051
1772537144057873400,7.164873291015625,1.2908949660629034,4.146562921862304,-2.8985861832886934
1772537144067921700,7.174921630859375,2.390201192343235,3.818946585999429,-2.636919114151597
1772537144077970200,7.18497021484375,3.0397552339106797,3.0053292326956984,-1.9746444149598479
1772537144088018200,7.19501806640625,3.421040031597018,1.9753492022283374,-1.200444879809022
1772537144098066400,7.20506640625,4.189360737842321,1.0294239309545605,-0.47129269313067196
1772537144108115200,7.215115234375,5.445068655189871,0.21157136950017882,0.4129714370653033
1772537144118163200,7.2251630859375,6.585581921127438,-0.4083609110625461,1.3961720345705746
1772537144128211200,7.235211181640625,7.601317299273609,-0.8385894436053931,2.446196051287651
1772537144138260200,7.24526025390625,8.716876741218567,-1.2680344610877334,3.4680037350848316
1772537144148308200,7.25530810546875,9.623163318130374,-1.5846024564526975,4.20191392994523
1772537144158356200,7.265356201171875,10.346900201761722,-1.781362315262854,4.5363662493079895
1772537144168405200,7.2754052734375,10.965672736096382,-1.5111710172779858,4.562872855700552
1772537144178453200,7.285453369140625,11.212988623797893,-0.839013221975416,4.3633504003092645
1772537144188501000,7.2955009765625,11.051810219848155,-0.21705475108101963,3.891927651058137
1772537144198550300,7.30555029296875,10.757585281455516,0.5390893412888049,3.479034539926052
1772537144208598000,7.315597900390625,10.486270094007253,1.4259570781119166,3.105085784216225
1772537144218646300,7.325646240234375,10.268534521055221,2.011349613153189,2.7239555925697085
1772537144228695000,7.335695068359375,10.075193384647369,2.353702038116008,2.3593260154776274
1772537144238743300,7.345743408203125,9.602194764381647,2.5273449329718947,2.0069336964070796
1772537144248791300,7.355791259765625,8.4367995706439,2.398645780083537,1.4213336560949683
1772537144258840300,7.36584033203125,7.0424401384532445,1.8113991416081785,0.7493181918725371
1772537144268888300,7.375888427734375,5.396363368731737,1.215485797074437,0.12376345005184411
1772537144278936000,7.38593603515625,3.5940427288532253,0.653300534619391,-0.46417190134003755
1772537144288985300,7.3959853515625,1.8024147479027508,0.17799232223704456,-0.6737871500700712
1772537144299033000,7.406033203125,0.22260756290256975,-0.09780658649653196,-0.8027344325006007
1772537144309081300,7.416081298828125,-1.0727695170104503,-0.4386568632680922,-0.92487977983132
1772537144319130000,7.426130126953125,-2.189683296173811,-0.8528269355334341,-1.07126875705868
1772537144329178400,7.436178466796875,-3.188913529720902,-1.1905846531171351,-1.4799750840254127
1772537144339226400,7.446226318359375,-4.166675443303585,-0.8829555318154394,-1.9541310576327144
1772537144349275100,7.456275146484375,-5.234619147592783,-0.11362714636493473,-2.570541685141623
1772537144359323100,7.4663232421875,-6.749527451702952,0.4375488289609551,-2.9556475024208426
1772537144369371100,7.47637109375,-8.568167358219624,1.2237557589001953,-2.729703196310997
1772537144379419400,7.48641943359375,-10.146866289716959,1.88953072129786,-1.998397777121514
1772537144389468200,7.49646826171875,-11.413477293872832,1.8970703230224548,-1.515437734811753
1772537144399516200,7.50651611328125,-12.360623704439401,1.5729310156203806,-0.7535757031865418
1772537144409564200,7.516564208984375,-13.05543084618449,1.001720881319046,0.5708268340721726
1772537144419613200,7.52661328125,-13.047968839740753,-0.07578318993262946,1.7394867286942899
1772537144429661200,7.5366611328125,-12.489635868799686,-1.2470765748634933,2.331433507684618
1772537144439709200,7.546709228515625,-11.22528228818178,-2.339766159483045,2.2793483695298433
1772537144449758200,7.55675830078125,-9.55164706492722,-3.3549832128435373,1.6870519003190099
1772537144459806200,7.56680615234375,-8.183657753267884,-4.083395979331433,0.8869275041863321
1772537144469854200,7.576854248046875,-6.844154531380534,-4.157970158800483,0.09111351859867572
1772537144479903200,7.5869033203125,-5.53675558976233,-3.79258260294795,-0.6025983752556144
1772537144489951200,7.596951171875,-4.732089312416314,-3.27803762806803,-1.207998071667552
1772537144499999200,7.606999267578125,-4.38134695250988,-2.2656308098226785,-1.5308454395629465
1772537144510048300,7.61704833984375,-4.108297488614917,-0.7926759798228741,-1.5013522185750305
1772537144520096300,7.62709619140625,-3.6207647315621374,0.84067472544685,-1.3670543688967822
1772537144530144300,7.637144287109375,-3.127006816384196,2.2215261490277944,-1.661624321334809
1772537144540193300,7.647193359375,-2.2501941712379456,3.1367507962852716,-2.1213969648025928
1772537144550241300,7.6572412109375,-0.8760147727668285,3.472963695579767,-2.5086247426718473
1772537144560289000,7.6672890625,0.4133621899485588,3.3255288625612853,-2.6163389751985666
1772537144570337300,7.677337158203125,1.2925257821351288,3.0921786641091105,-2.3211114356346427
1772537144580386000,7.687385986328125,1.8037363518953322,2.8037632887780664,-1.8729843679055571
1772537144590434300,7.697434326171875,2.2392817320793865,2.4088506554946303,-1.3271291857436298
1772537144600482300,7.707482421875,2.7660493519335985,2.037272720569372,-0.7707169537320733
1772537144610531300,7.71753125,3.5182506980270145,1.6035922574743628,-0.09101181178987025
1772537144620579300,7.727579345703125,4.5830894220381975,1.1841191834300755,0.8061464329011738
1772537144630627000,7.737626953125,5.457497928652167,0.7342087394155562,1.673918570240587
1772537144640676400,7.74767626953125,6.370215999916195,0.13232362699583172,2.2865016022853553
1772537144650724000,7.75772412109375,7.618614471033215,-0.7519081353005022,2.7331407695442436
1772537144660772400,7.7677724609375,8.86786342149973,-1.6316552995286882,2.933581508824229
1772537144670821000,7.777821044921875,10.019317768168449,-2.107223039630055,3.0527418489947915
1772537144680869000,7.787869140625,10.900229665327071,-2.226094187595695,2.998623013055324
1772537144690917400,7.79791748046875,11.443570818841456,-1.920795920394361,2.674743525633216
1772537144700966100,7.807966064453125,11.798583695673942,-1.3220545128278434,2.2525100469648835
1772537144711014100,7.81801416015625,11.667688201785086,-0.5176682945322245,1.8294209743805228
1772537144721062100,7.828062255859375,11.170739381611346,0.3936214244291186,1.6381380856767296
1772537144731111200,7.838111083984375,10.34250225906372,1.151030056842044,1.702147178120166
1772537144741159200,7.8481591796875,9.439547456923126,1.7056567936763167,1.9126419861637054
1772537144751207200,7.858207275390625,8.765593133592605,1.7277464604094623,1.9403303496867417
1772537144761256200,7.868256103515625,7.905801765874028,1.3193923078812657,1.6870434247516095
1772537144771304200,7.87830419921875,6.740238814353942,0.9423686747707426,1.4346516950905321
1772537144781352200,7.888352294921875,4.952032624545693,1.2021886547364293,1.9229791096523403
1772537144791401200,7.898401123046875,3.074445439019799,-0.4582787516482174,1.6556640977561472
1772537144801449200,7.90844921875,0.6634428661882877,-2.5322072783112524,0.8315291498303413
1772537144811497200,7.918497314453125,-1.827676030409336,-2.399780483201891,1.0225691696889698
1772537144821546200,7.928546142578125,-3.096256873333454,-1.9259211544536052,0.7006406702041625
1772537144831594200,7.93859423828125,-3.7537037139773366,-1.9710925676971673,-0.3684824531279504
1772537144841642200,7.948642333984375,-4.175184912973642,-1.2990144135020671,-1.1502915864996612
1772537144851690200,7.958690185546875,-4.958470548638701,0.13659120304612443,-1.4636327287726103
1772537144861739300,7.9687392578125,-5.85686374195218,0.9078630324482917,-1.7290706947505472
1772537144871787300,7.978787353515625,-7.1213096770286555,1.3496119434475897,-2.228103481591493
1772537144881835300,7.988835205078125,-8.176337201121449,2.2525043478764593,-2.856592669428885
1772537144891884300,7.99888427734375,-9.069101448637246,2.5420225698828696,-3.137809365427494
1772537144901932300,8.008932373046875,-9.926996042823792,2.094453866688907,-2.628372819602489
1772537144911980000,8.01897998046875,-10.450668034750223,1.724967204954475,-1.325448393049836
1772537144922029300,8.029029296875,-10.829055941951275,1.079980544367805,0.05971987081691622
1772537144932077000,8.0390771484375,-11.011263105404376,-0.16102379790991544,0.849413181567192
1772537144942125300,8.049125244140624,-10.364842685687542,-1.3589336062833666,1.1204793626904488
1772537144952174000,8.059174072265625,-9.232968653279542,-2.4779221458941696,1.1528468239404261
1772537144962222000,8.06922216796875,-7.988152716824412,-3.4360599060744046,0.77613137999624
1772537144972270300,8.079270263671875,-6.828851748308539,-3.79858798084259,0.5802811833769083
1772537144982319000,8.089319091796876,-5.837049034413695,-3.494385546053946,0.3699811672531068
1772537144992367400,8.099367431640625,-5.185273225143551,-2.9897531856402755,0.15973317357748745
1772537145002415000,8.1094150390625,-4.783418517637252,-2.3354573563732206,0.12192542096972465
1772537145012464400,8.11946435546875,-4.336002666917443,-1.49549706280604,0.022349778974056243
1772537145022512000,8.12951220703125,-4.256524056532979,-0.8745609937619417,-0.05305325253456831
1772537145032560000,8.13956005859375,-4.629884490960836,-0.05082132876403629,0.06073197046890855
1772537145042609200,8.149609130859375,-4.7328836776643985,0.9537516540504991,-0.18286431218758226
1772537145052657200,8.1596572265625,-4.305034697201847,1.65653079758808,-0.5463336133286356
1772537145062705200,8.169705078125,-3.6505841157644987,2.056496622607857,-0.8844450397208332
1772537145072754200,8.179754150390625,-3.234266583141684,2.376975800067186,-1.0827890989825129
1772537145082803500,8.189803466796874,-2.2435914119720457,2.61154005048424,-1.138430468314141
1772537145092851500,8.1998515625,-0.8488543786406516,2.6405951723158356,-1.1239616518482565
1772537145102900500,8.209900390625,0.6673281831890344,2.4189713597536087,-1.0421337018586694
1772537145112948500,8.219948486328125,1.9316794257193803,2.0233640222042797,-0.670652359175682
1772537145122996500,8.22999658203125,3.1235487848848105,1.5921473188742994,-0.0666778732612729
1772537145133044500,8.24004443359375,4.559552479106188,0.873295723066479,0.6052541504614055
1772537145143093500,8.250093505859375,6.250400702968239,0.1373218736745417,1.1543646811574697
1772537145153141500,8.2601416015625,8.394045301544665,-0.7545663216590881,1.647457848816365
1772537145163189500,8.270189453125,10.483175635123253,-1.8423977987229823,2.0774685373574493
1772537145173238500,8.280238525390626,11.988279753577709,-2.3199562742501496,2.6082027227550744
1772537145183286500,8.29028662109375,12.891505189353227,-2.150874403699487,2.8304417446061967
1772537145193334500,8.30033447265625,13.366203599274158,-1.6384651256740093,2.7317314872682092
1772537145203383600,8.310383544921875,13.342560857880114,-0.758100633265078,2.5695576425403357
1772537145213431300,8.320431396484375,12.89933310649991,0.03456500782687217,2.4193719033785164
1772537145223479600,8.3304794921875,12.2397340562582,0.5450974225971847,2.459433426262438
1772537145233528300,8.3405283203125,11.52088903632164,1.1267758324861525,2.724423794603348
1772537145243576600,8.35057666015625,11.077225231611727,1.288905545811355,2.843913512858748
1772537145253624300,8.360624267578125,9.970615404319762,0.8248407581076026,3.0389617454454303
1772537145263673600,8.370673583984376,7.9587547729045145,0.3170863201506436,3.0371298538431524
1772537145273721300,8.380721435546874,5.842308562377095,-0.17214330394789576,2.5382567876085638
1772537145283769300,8.390769287109375,3.879429111751914,-0.5002689775723964,1.9699419363573192
1772537145293818400,8.400818359375,2.233283368447423,-0.40609614446833725,1.425408942709863
1772537145303866400,8.410866455078125,1.01512279920578,-0.5781576153516769,0.7724765107505023
1772537145313914600,8.42091455078125,-0.09877133987545966,-1.0433660931978375,0.10403510562255978
1772537145323963400,8.43096337890625,-0.9924445189297199,-1.0325107910539955,-0.6123765496872365
1772537145334011600,8.44101171875,-1.424250712585449,-0.8418195846330374,-1.3051643144339322
1772537145344059400,8.451059326171874,-1.9109587092518805,-0.4281376977434382,-1.9537343134000895
1772537145354108700,8.461108642578125,-2.5994407396286725,0.34697960983943194,-2.1817117327727376
1772537145364156400,8.471156494140626,-3.397959015738964,1.0749987373672425,-2.2256465899586675
1772537145374204400,8.481204345703125,-4.7489925164222715,0.8785895916908979,-1.9432069280363617
1772537145384252700,8.491252685546876,-6.568302869546413,1.222074454749748,-0.9549370644427836
1772537145394301400,8.501301513671875,-8.045884774824977,1.517307474206388,-0.31407384046167136
1772537145404349400,8.511349365234375,-8.738844242876768,0.8290998037915677,-0.25152079204544425
1772537145414397400,8.5213974609375,-8.654911575692891,0.4115807864245027,0.0053664954692125314
1772537145424446500,8.531446533203125,-8.73661955256462,-0.3331788653608411,0.22706235035434363
1772537145434494500,8.541494384765626,-9.38955856039524,-1.3530726052954791,0.2913419303022325
1772537145444542500,8.55154248046875,-9.284563231438398,-1.7993096214942632,0.3359963339343667
1772537145454591500,8.561591552734376,-8.527638948476314,-2.2020786673665045,0.25207301910072566
1772537145464639500,8.571639404296874,-7.744080925610661,-2.6922978870242833,0.17702727659717202
1772537145474687500,8.5816875,-7.09892131960988,-2.703878434702754,0.20337270107865332
1772537145484736500,8.591736572265624,-6.718035165852308,-2.5542840855628253,0.2060430893316865
1772537145494784300,8.6017841796875,-6.540555030921102,-2.2921005913361907,0.30176059459447857
1772537145504832500,8.61183251953125,-6.490242893788218,-1.9595348163723945,0.3280702171102166
1772537145514881300,8.62188134765625,-6.481945021042227,-1.6187255291983484,0.18241554550677536
1772537145524929500,8.631929443359375,-6.593225713878869,-1.4883032057791947,-0.2682511237025261
1772537145534977500,8.6419775390625,-6.489888673523068,-0.9977019280012697,-0.7366388891719281
1772537145545026600,8.652026611328125,-6.101914022809266,-0.22869550451412796,-1.3617051168233156
1772537145555074600,8.662074462890626,-5.552676212471723,0.6824939689431339,-1.9938037273295222
1772537145565122300,8.672122314453125,-4.694199434483051,1.791367868709564,-2.5281547880500552
1772537145575171600,8.682171630859376,-3.9058173524618147,2.7508354161888358,-2.727380306321382
1772537145585219300,8.69221923828125,-2.98089504866302,3.4396740049183365,-2.681067467957735
1772537145595267600,8.702267578125,-2.461233461421728,3.5061034563764926,-2.3238299008131027
1772537145605315300,8.7123154296875,-2.321822652643919,2.73786662902236,-1.8955086266636847
1772537145615364600,8.722364501953125,-1.5740075588107107,1.9779506168983876,-1.2403627564385533
1772537145625412400,8.732412353515626,0.1808703618913889,1.2970701475664972,-0.5150399187900125
1772537145635460400,8.74246044921875,1.8836983618825673,0.4638921345505863,0.027088644064217803
1772537145645509400,8.75250927734375,3.157304339492321,-0.5473707743566483,0.6801140150040388
1772537145655557400,8.762557373046874,4.388256585767865,-1.5676649117857218,1.3704803978227078
1772537145665605600,8.772605712890625,5.87773468054533,-2.0182874495923517,2.099610811060667
1772537145675654400,8.782654296875,7.428444365876913,-2.087079100137204,2.694396320608258
1772537145685702700,8.79270263671875,8.071123260977863,-1.9133372749514876,3.238742851772904
1772537145695750400,8.80275048828125,8.285822827234863,-1.7904180206388234,3.6588416565001007
1772537145705799700,8.812799560546875,9.01327317843139,-1.502696765051782,3.8091099593788385
1772537145715847400,8.822847412109375,9.933156903541088,-1.3498217868059872,3.6503234190016984
1772537145725895400,8.8328955078125,10.535401496922969,-1.3081621810756623,3.303174699673056
1772537145735944400,8.8429443359375,10.98602111212015,-1.0447786634095013,2.953475126817822
1772537145745992400,8.852992431640626,11.302911471307278,-0.38273802870195356,2.6906764233022926
1772537145756040400,8.86304052734375,10.823428165197372,-0.09166738962177187,2.4631568306997416
