time,seconds_elapsed,z,y,x
1772537136959988200,0.06698828125,0.5827001929283142,0.5331240892410278,0.8097823262214661
1772537136970036200,0.0770361328125,0.5238847732543945,0.5511552691459656,0.854921817779541
1772537136980085200,0.087085205078125,0.40111175179481506,0.39074084162712097,0.7997879981994629
1772537136990133200,0.09713330078125,0.22254838049411774,0.2671017348766327,0.6602711081504822
1772537137000181200,0.10718115234375,0.15303802490234375,0.4738714396953583,0.43301641941070557
1772537137010230000,0.11722998046875,0.29668280482292175,0.5316577553749084,0.22240564227104187
1772537137020278300,0.1272783203125,0.4636044204235077,0.2987896203994751,0.11102159321308136
1772537137030326000,0.137325927734375,0.5872560739517212,0.13004668056964874,0.09951833635568619
1772537137040375300,0.147375244140625,0.6575371026992798,0.12481623142957687,0.15806740522384644
1772537137050423000,0.157423095703125,0.6636615991592407,0.26130297780036926,0.256465345621109
1772537137060471000,0.167470947265625,0.6309310793876648,0.4310944080352783,0.36966779828071594
1772537137070519800,0.177519775390625,0.5656378269195557,0.4644094705581665,0.47935834527015686
1772537137080567800,0.18756787109375,0.4332837760448456,0.4192691743373871,0.5382874608039856
1772537137090616000,0.197615966796875,0.2622675597667694,0.4796331822872162,0.5297807455062866
1772537137100664800,0.207664794921875,0.12332645803689957,0.652879536151886,0.4719369113445282
1772537137110713000,0.217713134765625,-0.001561944023706019,0.45521411299705505,0.37817659974098206
1772537137120760800,0.2277607421875,-0.16712933778762817,0.28271666169166565,0.30370423197746277
1772537137130810000,0.23781005859375,-0.3364669680595398,0.10190985351800919,0.2935975193977356
1772537137140857900,0.24785791015625,-0.46587687730789185,-0.050397925078868866,0.3180597424507141
1772537137150905900,0.25790576171875,-0.48851802945137024,-0.06142687425017357,0.39739128947257996
1772537137160955000,0.267954833984375,-0.41599056124687195,-0.08469464629888535,0.6009167432785034
1772537137171003000,0.2780029296875,-0.3786871135234833,-0.16164721548557281,0.8742222785949707
1772537137181051100,0.288051025390625,-0.35273781418800354,-0.2185019850730896,1.1027199029922485
1772537137191100000,0.298099853515625,-0.3079056143760681,-0.12387160956859589,1.2641503810882568
1772537137201148200,0.308148193359375,-0.21298444271087646,0.15535150468349457,1.3366400003433228
1772537137211196000,0.31819580078125,-0.09548364579677582,0.4640749990940094,1.3227283954620361
1772537137221245000,0.328244873046875,-0.0014650048688054085,0.6504267454147339,1.2517203092575073
1772537137231293000,0.33829296875,0.09363594651222229,0.721627414226532,1.066516637802124
1772537137241341000,0.3483408203125,0.21209201216697693,0.7561877965927124,0.7817056775093079
1772537137251390000,0.358389892578125,0.2747037410736084,0.57988440990448,0.4694098234176636
1772537137261438000,0.36843798828125,0.22739852964878082,0.3905078172683716,0.13879036903381348
1772537137271486000,0.37848583984375,0.09321862459182739,0.25312361121177673,-0.2423471212387085
1772537137281535000,0.388534912109375,-0.050090063363313675,0.11158937960863113,-0.6593003869056702
1772537137291582700,0.398582763671875,-0.1462850421667099,-0.029036445543169975,-1.1032192707061768
1772537137301631000,0.408630859375,-0.149133563041687,-0.10007306933403015,-1.5273377895355225
1772537137311679700,0.4186796875,-0.058209508657455444,-0.049901511520147324,-1.8900760412216187
1772537137321728000,0.42872802734375,0.0509212389588356,0.07872410863637924,-2.1037943363189697
1772537137331776000,0.43877587890625,0.12291473895311356,0.19960205256938934,-2.1833102703094482
1772537137341825000,0.448824951171875,0.12867195904254913,0.32843539118766785,-2.1345367431640625
1772537137351873000,0.458873046875,0.082178495824337,0.42929571866989136,-1.9870593547821045
1772537137361920800,0.468920654296875,0.0025419872254133224,0.44882386922836304,-1.7763811349868774
1772537137371970000,0.478969970703125,-0.053168680518865585,0.4433603882789612,-1.5437349081039429
1772537137382017800,0.489017822265625,-0.069178007543087,0.43354716897010803,-1.3333981037139893
1772537137392066000,0.499066162109375,-0.08097687363624573,0.429508239030838,-1.1758852005004883
1772537137402114800,0.50911474609375,-0.09280876815319061,0.44339820742607117,-1.104541301727295
1772537137412163000,0.5191630859375,-0.07824420183897018,0.45784932374954224,-1.1268689632415771
1772537137422210800,0.5292109375,-0.032891903072595596,0.4220742881298065,-1.2217164039611816
1772537137432260000,0.539260009765625,0.023809991776943207,0.3125016987323761,-1.374706745147705
1772537137442307800,0.549307861328125,0.10215512663125992,0.13772323727607727,-1.5393438339233398
1772537137452355800,0.55935595703125,0.20871619880199432,-0.10168375074863434,-1.620710849761963
1772537137462404900,0.56940478515625,0.31059542298316956,-0.2116137146949768,-1.5888632535934448
1772537137472452900,0.579452880859375,0.3747032880783081,-0.19675247371196747,-1.3966506719589233
1772537137482501000,0.589501220703125,0.3784463703632355,-0.2116544544696808,-1.0408251285552979
1772537137492550000,0.5995498046875,0.3336227238178253,-0.2041826993227005,-0.567696213722229
1772537137502598000,0.609597900390625,0.26357224583625793,-0.0812692865729332,-0.06619632989168167
1772537137512646000,0.61964599609375,0.17804136872291565,0.09410865604877472,0.37975266575813293
1772537137522695000,0.62969482421875,0.058399926871061325,0.2655895948410034,0.694284200668335
1772537137532743000,0.639742919921875,-0.05760151147842407,0.3777933716773987,0.7890285849571228
1772537137542791000,0.649791015625,-0.16023653745651245,0.3233546316623688,0.723564088344574
1772537137552840000,0.65983984375,-0.2387973964214325,0.08386773616075516,0.6036784052848816
1772537137562888000,0.669887939453125,-0.3110438883304596,-0.2671044170856476,0.5701106190681458
1772537137572936000,0.67993603515625,-0.3759070634841919,-0.5361321568489075,0.6763981580734253
1772537137582985000,0.68998486328125,-0.3783867061138153,-0.6300439834594727,0.8935052156448364
1772537137593033000,0.700032958984375,-0.33023276925086975,-0.5979369282722473,1.1897767782211304
1772537137603081000,0.7100810546875,-0.2732834815979004,-0.49033883213996887,1.5458203554153442
1772537137613129700,0.720129638671875,-0.23930765688419342,-0.36809733510017395,1.930469036102295
1772537137623178000,0.730177978515625,-0.21566784381866455,-0.2385057806968689,2.2970635890960693
1772537137633226000,0.74022607421875,-0.14370018243789673,-0.1109590083360672,2.582465410232544
1772537137643275000,0.75027490234375,0.008835835382342339,0.03791116178035736,2.7382712364196777
1772537137653323000,0.760322998046875,0.197813481092453,0.1792653650045395,2.7582848072052
1772537137663370800,0.770370849609375,0.3533199727535248,0.25751781463623047,2.654613971710205
1772537137673420000,0.780419921875,0.4438900947570801,0.24288907647132874,2.4276716709136963
1772537137683467800,0.7904677734375,0.4426320195198059,0.1394689530134201,2.1369500160217285
1772537137693516000,0.80051611328125,0.3686475455760956,0.025657426565885544,1.821482539176941
1772537137703564800,0.810564697265625,0.21577437222003937,-0.06374728679656982,1.5286848545074463
1772537137713613000,0.820613037109375,0.06380508095026016,-0.07888629287481308,1.2569377422332764
1772537137723661000,0.8306611328125,-0.04965730011463165,0.135871022939682,0.9435989856719971
1772537137733708800,0.840708740234375,-0.13339267671108246,0.5358279943466187,0.5920012593269348
1772537137743758000,0.850758056640625,-0.16747181117534637,0.9401634931564331,0.1864103525876999
1772537137753805800,0.860805908203125,-0.11175768822431564,1.2646340131759644,-0.37601223587989807
1772537137763855000,0.870855224609375,-0.005890646018087864,1.288275122642517,-1.0918853282928467
1772537137773902800,0.88090283203125,0.08728297054767609,1.1044869422912598,-1.8776659965515137
1772537137783951000,0.890951171875,0.07242067158222198,0.7533579468727112,-2.5588297843933105
1772537137793998800,0.900998779296875,-0.009016664698719978,0.3301829695701599,-3.021851062774658
1772537137804048000,0.9110478515625,-0.019240539520978928,-0.2050679326057434,-3.1795854568481445
1772537137814096000,0.921095947265625,0.1422889679670334,-0.7244272232055664,-2.995276927947998
1772537137824145000,0.931144775390625,0.41614848375320435,-0.8889602422714233,-2.605109691619873
1772537137834193000,0.94119287109375,0.5086683034896851,-0.6250002384185791,-2.1077640056610107
1772537137844241000,0.951240966796875,0.2354458123445511,-0.06448312103748322,-1.6742920875549316
1772537137854289000,0.961288818359375,-0.14894181489944458,0.3996534049510956,-1.4380124807357788
1772537137864338000,0.971337890625,-0.3314615488052368,0.4873257279396057,-1.3572545051574707
1772537137874386000,0.981385986328125,-0.3098286986351013,0.3818139433860779,-1.2432376146316528
1772537137884434000,0.991433837890625,-0.29042917490005493,0.3299427628517151,-0.9671796560287476
1772537137894483000,1.00148291015625,-0.3692118525505066,0.36142265796661377,-0.6675493121147156
1772537137904531000,1.011531005859375,-0.4320334494113922,0.3042522966861725,-0.5195499658584595
1772537137914579000,1.021578857421875,-0.43584176898002625,0.15202069282531738,-0.5150987505912781
1772537137924628000,1.0316279296875,-0.395180881023407,-0.1507389098405838,-0.518093466758728
1772537137934676000,1.041676025390625,-0.29128989577293396,-0.39086174964904785,-0.4437723755836487
1772537137944724000,1.051723876953125,-0.11396785080432892,-0.41686195135116577,-0.2879311144351959
1772537137954773000,1.06177294921875,0.10989987105131149,-0.29776298999786377,-0.06537314504384995
1772537137964820700,1.07182080078125,0.2791602611541748,-0.18613897264003754,0.15745460987091064
1772537137974869000,1.081868896484375,0.37718668580055237,-0.14757853746414185,0.3220941424369812
1772537137984917800,1.091917724609375,0.449839323759079,-0.17614440619945526,0.40360286831855774
1772537137994966000,1.101966064453125,0.43952223658561707,-0.11537106335163116,0.4988345801830292
1772537138005014000,1.112013916015625,0.28858813643455505,0.006596649996936321,0.6541258692741394
1772537138015062800,1.122062744140625,0.09078209847211838,0.010705641470849514,0.8275781273841858
1772537138025111000,1.132111083984375,-0.16193537414073944,-0.14104686677455902,0.983056902885437
1772537138035158800,1.14215869140625,-0.4797136187553406,-0.2885010242462158,1.1545051336288452
1772537138045208000,1.1522080078125,-0.7397246956825256,-0.326440691947937,1.3341480493545532
1772537138055255800,1.162255859375,-0.8784109354019165,-0.2670964002609253,1.4965343475341797
1772537138065304000,1.172303955078125,-0.8885343670845032,-0.27669551968574524,1.6180293560028076
1772537138075356400,1.1823564453125,-0.8401588797569275,-0.3491348326206207,1.7042063474655151
1772537138085404700,1.19240478515625,-0.7801778316497803,-0.4156286418437958,1.752946376800537
1772537138095452700,1.20245263671875,-0.719683051109314,-0.49762603640556335,1.7958900928497314
1772537138105501700,1.212501708984375,-0.6486573815345764,-0.5286055207252502,1.8552922010421753
1772537138115549400,1.222549560546875,-0.5373452305793762,-0.5248634815216064,1.8984205722808838
1772537138125597400,1.232597412109375,-0.38449814915657043,-0.5012487173080444,1.9044281244277954
1772537138135646500,1.242646484375,-0.2577308714389801,-0.4084436893463135,1.839003324508667
1772537138145694500,1.252694580078125,-0.19042453169822693,-0.2936475872993469,1.7089028358459473
1772537138155742700,1.26274267578125,-0.21080917119979858,-0.18923437595367432,1.5525493621826172
1772537138165791500,1.27279150390625,-0.2734842598438263,-0.1017809584736824,1.3820972442626953
1772537138175839700,1.28283984375,-0.3518246114253998,-0.05649176985025406,1.2463207244873047
1772537138185887500,1.292887451171875,-0.4463053047657013,-0.11873464286327362,1.077439308166504
1772537138195936500,1.3029365234375,-0.544691264629364,-0.16832669079303741,0.8556254506111145
1772537138205984500,1.312984619140625,-0.6485758423805237,-0.08923773467540741,0.5613837242126465
1772537138216032500,1.323032470703125,-0.6906580924987793,0.11283627152442932,0.21855124831199646
1772537138226081500,1.33308154296875,-0.7248714566230774,0.24910622835159302,-0.10671766102313995
1772537138236129500,1.343129638671875,-0.7625879049301147,0.2580887973308563,-0.5056551694869995
1772537138246177500,1.353177490234375,-0.7618627548217773,0.2667621970176697,-1.0495003461837769
1772537138256226600,1.3632265625,-0.6945779919624329,0.3161587715148926,-1.724532127380371
1772537138266274600,1.373274658203125,-0.5293088555335999,0.45830124616622925,-2.3988823890686035
1772537138276322600,1.383322509765625,-0.26877713203430176,0.5608057975769043,-2.8573720455169678
1772537138286371600,1.39337158203125,-0.005889846943318844,0.38765397667884827,-2.9084935188293457
1772537138296419600,1.403419677734375,0.20918996632099152,-0.14687199890613556,-2.5409512519836426
1772537138306467600,1.413467529296875,0.3115496337413788,-0.7051725387573242,-1.931433081626892
1772537138316516600,1.4235166015625,0.24450162053108215,-0.8023236393928528,-1.3782902956008911
1772537138326564600,1.433564697265625,0.018367554992437363,-0.5292769074440002,-1.0420867204666138
1772537138336612400,1.4436123046875,-0.2173490971326828,-0.1606445461511612,-0.8814573287963867
1772537138346661600,1.45366162109375,-0.32029491662979126,0.015807459130883217,-0.7515389919281006
1772537138356709400,1.46370947265625,-0.33374014496803284,-0.04379595071077347,-0.49335750937461853
1772537138366757600,1.473757568359375,-0.39397045969963074,-0.07112184911966324,-0.2691230773925781
1772537138376806400,1.483806396484375,-0.48380422592163086,-0.0883580893278122,-0.26354801654815674
1772537138386854700,1.493854736328125,-0.4949040114879608,-0.1987093687057495,-0.4434890151023865
1772537138396902700,1.503902587890625,-0.445424348115921,-0.3636237382888794,-0.6686782240867615
1772537138406951700,1.51395166015625,-0.3811798393726349,-0.5090451240539551,-0.8352807760238647
1772537138416999700,1.523999755859375,-0.2843363881111145,-0.5952820181846619,-0.8886787295341492
1772537138427047400,1.53404736328125,-0.06371479481458664,-0.7151024341583252,-0.7906227707862854
1772537138437096700,1.5440966796875,0.18436424434185028,-0.8273613452911377,-0.5741010904312134
1772537138447144400,1.55414453125,0.350384384393692,-0.8159025311470032,-0.3803633153438568
1772537138457192700,1.564192626953125,0.47279977798461914,-0.6754013299942017,-0.2862975299358368
1772537138467240400,1.574240478515625,0.5147855877876282,-0.4304642975330353,-0.3004322648048401
1772537138477289500,1.58428955078125,0.48608869314193726,-0.14710049331188202,-0.4704380929470062
1772537138487337500,1.59433740234375,0.4081137180328369,0.018552113324403763,-0.6440498232841492
1772537138497385500,1.604385498046875,0.23975400626659393,0.01950099691748619,-0.6547762155532837
1772537138507434500,1.6144345703125,0.033195771276950836,-0.07264997065067291,-0.4317668378353119
1772537138517482500,1.624482421875,-0.1486416757106781,-0.21327552199363708,-0.02677462249994278
1772537138527530500,1.634530517578125,-0.33403390645980835,-0.33362218737602234,0.4615801274776459
1772537138537579500,1.64457958984375,-0.48282763361930847,-0.4134152829647064,0.9856979846954346
1772537138547627500,1.65462744140625,-0.578901469707489,-0.4008885622024536,1.4663466215133667
1772537138557675500,1.664675537109375,-0.6375250816345215,-0.2958526909351349,1.8682022094726562
1772537138567724500,1.674724609375,-0.6427547335624695,-0.09296322613954544,2.147495746612549
1772537138577772500,1.6847724609375,-0.5788308382034302,0.07893902063369751,2.3176307678222656
1772537138587820500,1.694820556640625,-0.4815264046192169,0.09993165731430054,2.4294493198394775
1772537138597869600,1.70486962890625,-0.41184908151626587,0.026615099981427193,2.4677836894989014
1772537138607917600,1.71491748046875,-0.38179901242256165,-0.07057163864374161,2.425523042678833
1772537138617965600,1.724965576171875,-0.387334942817688,-0.07975555211305618,2.3157334327697754
1772537138628014600,1.7350146484375,-0.3853018879890442,-0.06951622664928436,2.1284472942352295
1772537138638062600,1.7450625,-0.34401994943618774,-0.09932951629161835,1.8766709566116333
1772537138648110600,1.755110595703125,-0.2922297418117523,-0.1494579315185547,1.6177310943603516
1772537138658159600,1.76515966796875,-0.2623101770877838,-0.1464003622531891,1.3420158624649048
1772537138668207600,1.77520751953125,-0.26128432154655457,-0.07749719172716141,1.0531507730484009
1772537138678255600,1.785255615234375,-0.2527608871459961,0.026322683319449425,0.7262983322143555
1772537138688304600,1.7953046875,-0.22674712538719177,0.14803846180438995,0.38357454538345337
1772537138698352600,1.8053525390625,-0.18903569877147675,0.31736624240875244,0.08395375311374664
1772537138708400400,1.815400390625,-0.19095663726329803,0.4734754264354706,-0.1132754236459732
1772537138718449700,1.82544970703125,-0.2245875746011734,0.5916164517402649,-0.26359355449676514
1772537138728497400,1.835497314453125,-0.2190077155828476,0.7831222414970398,-0.4692838788032532
1772537138738545700,1.845545654296875,-0.10796854645013809,1.0567023754119873,-0.7555622458457947
1772537138748594400,1.855594482421875,0.07961200177669525,1.1969236135482788,-1.109097957611084
1772537138758642400,1.865642333984375,0.30909019708633423,1.159172534942627,-1.5151690244674683
1772537138768690700,1.875690673828125,0.4863475263118744,1.0096949338912964,-1.8881028890609741
1772537138778739500,1.885739501953125,0.626728355884552,0.818148672580719,-2.1743545532226562
1772537138788787700,1.89578759765625,0.7580810785293579,0.5516384243965149,-2.279676675796509
1772537138798835500,1.90583544921875,0.857312023639679,0.10739543288946152,-2.1230695247650146
1772537138808884700,1.915884765625,0.9732272028923035,-0.33268049359321594,-1.8399806022644043
1772537138818932500,1.925932373046875,0.9948400855064392,-0.623365581035614,-1.4574620723724365
1772537138828980500,1.93598046875,0.7939037680625916,-0.5028857588768005,-1.0346328020095825
1772537138839029500,1.946029541015625,0.42492544651031494,-0.1500166654586792,-0.7437300682067871
1772537138849077500,1.956077392578125,0.08185545355081558,-0.05530160665512085,-0.6693069934844971
1772537138859125500,1.96612548828125,-0.0800306499004364,-0.21259935200214386,-0.6773691773414612
1772537138869174500,1.976174560546875,-0.12244176119565964,-0.3366144895553589,-0.608357310295105
1772537138879222500,1.986222412109375,-0.20770259201526642,-0.36414065957069397,-0.4341927170753479
1772537138889270500,1.9962705078125,-0.39608556032180786,-0.30697938799858093,-0.23728099465370178
1772537138899319600,2.006319580078125,-0.5421263575553894,-0.21382281184196472,-0.14299523830413818
1772537138909367600,2.016367431640625,-0.593710720539093,-0.14601446688175201,-0.1478254199028015
1772537138919415600,2.02641552734375,-0.6004192233085632,-0.14191453158855438,-0.186420738697052
1772537138929464600,2.036464599609375,-0.5475078225135803,-0.21276819705963135,-0.24175536632537842
1772537138939512600,2.0465126953125,-0.4069320857524872,-0.28301599621772766,-0.31090009212493896
1772537138949560600,2.056560546875,-0.18336395919322968,-0.3427530825138092,-0.36325010657310486
1772537138959609600,2.066609619140625,0.011580223217606544,-0.3849751055240631,-0.38334259390830994
1772537138969657600,2.07665771484375,0.11836579442024231,-0.39463040232658386,-0.41594794392585754
1772537138979705600,2.08670556640625,0.09259491413831711,-0.4140986502170563,-0.4690638780593872
1772537138989754400,2.09675439453125,-0.05657113343477249,-0.40564924478530884,-0.5450827479362488
1772537138999802600,2.106802734375,-0.26437199115753174,-0.3690696358680725,-0.6464754343032837
1772537139009850600,2.1168505859375,-0.44697484374046326,-0.4215341806411743,-0.7424115538597107
1772537139019899600,2.126899658203125,-0.5521659851074219,-0.606701672077179,-0.8009443879127502
1772537139029947400,2.136947509765625,-0.5912545323371887,-0.8719556927680969,-0.7774174809455872
1772537139039995400,2.146995361328125,-0.5774335265159607,-1.0065102577209473,-0.6533037424087524
1772537139050044400,2.15704443359375,-0.5490798950195312,-0.9377280473709106,-0.41103893518447876
1772537139060092400,2.167092529296875,-0.555294394493103,-0.7859201431274414,-0.07686202228069305
1772537139070136800,2.17713671875,-0.5451863408088684,-0.6149888634681702,0.2955799996852875
1772537139080185900,2.187185791015625,-0.503221333026886,-0.4905095398426056,0.6819719076156616
1772537139090233900,2.19723388671875,-0.4401664733886719,-0.3917384743690491,1.05703866481781
1772537139100281600,2.207281494140625,-0.39532893896102905,-0.27282434701919556,1.423876404762268
1772537139110329900,2.217329833984375,-0.3945033848285675,-0.11124849319458008,1.7682551145553589
1772537139120378600,2.227378662109375,-0.40982240438461304,0.043898746371269226,2.0372707843780518
1772537139130427000,2.237427001953125,-0.39965686202049255,0.14883394539356232,2.205573320388794
1772537139140475000,2.247474853515625,-0.3805156350135803,0.18650250136852264,2.2604517936706543
1772537139150524000,2.25752392578125,-0.35031619668006897,0.15828470885753632,2.2071568965911865
1772537139160572000,2.267572021484375,-0.31081539392471313,0.17281252145767212,2.04754376411438
1772537139170619600,2.27761962890625,-0.26821547746658325,0.2288329154253006,1.7967737913131714
1772537139180669000,2.2876689453125,-0.2189967930316925,0.2973099648952484,1.5030180215835571
1772537139190716700,2.297716552734375,-0.21063686907291412,0.37957289814949036,1.2346938848495483
1772537139200765000,2.307764892578125,-0.23897822201251984,0.4584466516971588,0.9917124509811401
1772537139210813700,2.317813720703125,-0.2450007051229477,0.5989204049110413,0.7247294783592224
1772537139220862000,2.327862060546875,-0.27094149589538574,0.6911110877990723,0.5345608592033386
1772537139230910000,2.337909912109375,-0.2925783395767212,0.6512076258659363,0.4024513065814972
1772537139240958700,2.347958740234375,-0.2487512230873108,0.6734316945075989,0.12639814615249634
1772537139251006700,2.3580068359375,-0.1193399727344513,0.9063720107078552,-0.3320953845977783
1772537139261054700,2.3680546875,0.037103425711393356,1.2603378295898438,-0.8540829420089722
1772537139271103700,2.378103759765625,0.18805564939975739,1.5327531099319458,-1.3238242864608765
1772537139281151700,2.38815185546875,0.3163635730743408,1.6038973331451416,-1.7399011850357056
1772537139291199700,2.39819970703125,0.38799700140953064,1.4167758226394653,-1.9549492597579956
1772537139301248800,2.408248779296875,0.41950592398643494,1.0965403318405151,-1.9200483560562134
1772537139311296800,2.418296875,0.48055168986320496,0.6881964802742004,-1.7554713487625122
1772537139321344800,2.4283447265625,0.5613685250282288,0.3306812345981598,-1.5703518390655518
1772537139331393800,2.438393798828125,0.5692322850227356,0.11896473914384842,-1.402756690979004
1772537139341441800,2.44844189453125,0.4464544653892517,-0.02804708108305931,-1.277889370918274
1772537139351489800,2.45848974609375,0.17069850862026215,-0.17705386877059937,-1.2446781396865845
1772537139361538800,2.468538818359375,-0.06222688779234886,-0.2955400347709656,-1.2965205907821655
1772537139371586800,2.4785869140625,-0.0509694404900074,-0.3803047239780426,-1.2921545505523682
1772537139381634800,2.488634765625,0.0452100895345211,-0.5045398473739624,-1.1526299715042114
1772537139391683800,2.498683837890625,0.033611755818128586,-0.654000997543335,-0.9071094393730164
1772537139401731800,2.50873193359375,-0.06803417950868607,-0.7771857380867004,-0.5685113668441772
1772537139411779800,2.51877978515625,-0.18178871273994446,-0.7124914526939392,-0.2352047860622406
1772537139421828900,2.528828857421875,-0.24707795679569244,-0.4660329520702362,0.05784039571881294
1772537139431876900,2.538876953125,-0.25922757387161255,-0.17384102940559387,0.3320122957229614
1772537139441924900,2.5489248046875,-0.20529749989509583,0.05810591205954552,0.5352045893669128
1772537139451974000,2.558973876953125,-0.09932978451251984,0.2151581197977066,0.6053985357284546
1772537139462022000,2.56902197265625,0.040657948702573776,0.2769376039505005,0.5555604100227356
1772537139472069600,2.579069580078125,0.15313468873500824,0.1985437124967575,0.4125217795372009
1772537139482119000,2.589118896484375,0.19295427203178406,0.0518067367374897,0.18579170107841492
1772537139492166700,2.599166748046875,0.18080946803092957,-0.11852425336837769,-0.06268202513456345
1772537139502215000,2.60921484375,0.19243203103542328,-0.3011680841445923,-0.2640606760978699
1772537139512263700,2.619263671875,0.21646440029144287,-0.48183107376098633,-0.3691146671772003
1772537139522311700,2.629311767578125,0.20602214336395264,-0.5319603085517883,-0.38005730509757996
1772537139532360000,2.63935986328125,0.18422043323516846,-0.4872117340564728,-0.3309116065502167
1772537139542408700,2.64940869140625,0.16312740743160248,-0.43972358107566833,-0.2223459929227829
1772537139552457000,2.65945703125,0.12815876305103302,-0.39697104692459106,-0.0857418030500412
1772537139562504700,2.669504638671875,0.09057863801717758,-0.38111114501953125,0.05764438584446907
1772537139572554000,2.679553955078125,0.04935849457979202,-0.4236375391483307,0.20495474338531494
1772537139582601700,2.689601806640625,0.01296346914023161,-0.5078022480010986,0.3762066662311554
1772537139592649700,2.699649658203125,-0.011714180000126362,-0.5843113660812378,0.5548315048217773
1772537139602698800,2.70969873046875,-0.007470166776329279,-0.6165502667427063,0.7358473539352417
1772537139612746800,2.719746826171875,0.00999324582517147,-0.5574486255645752,0.962958812713623
1772537139622794800,2.729794677734375,-0.008012386038899422,-0.3894186019897461,1.2332030534744263
1772537139632843800,2.73984375,-0.06208547577261925,-0.2262752205133438,1.517504334449768
1772537139642891800,2.749891845703125,-0.1212497279047966,-0.0998845174908638,1.7764943838119507
1772537139652939800,2.759939697265625,-0.13943831622600555,0.03153076022863388,1.965883493423462
1772537139662988800,2.76998876953125,-0.09907358884811401,0.17434756457805634,2.0978922843933105
1772537139673036800,2.780036865234375,-0.0270697008818388,0.31648340821266174,2.179048776626587
1772537139683084800,2.790084716796875,0.05260169133543968,0.475350022315979,2.1928703784942627
1772537139693132800,2.8001328125,0.11134250462055206,0.6165156364440918,2.1360464096069336
1772537139703181800,2.810181884765625,0.14632605016231537,0.7307689785957336,2.042698621749878
1772537139713229800,2.820229736328125,0.17560404539108276,0.8420246839523315,1.8989230394363403
1772537139723277800,2.83027783203125,0.20071019232273102,0.8980703949928284,1.703391432762146
1772537139733326800,2.840326904296875,0.20239225029945374,0.8601219058036804,1.4649039506912231
1772537139743374800,2.850374755859375,0.20609590411186218,0.7888330817222595,1.1670280694961548
1772537139753422800,2.8604228515625,0.18932944536209106,0.7210841774940491,0.7997859120368958
1772537139763472000,2.870471923828125,0.18591606616973877,0.6635995507240295,0.32890865206718445
1772537139773520000,2.880519775390625,0.2142086923122406,0.5954087972640991,-0.2968290150165558
1772537139783568000,2.89056787109375,0.2391800880432129,0.5195369124412537,-1.004725456237793
1772537139793617000,2.900616943359375,0.2607825994491577,0.4294901192188263,-1.6899187564849854
1772537139803664600,2.91066455078125,0.2933298945426941,0.3933808505535126,-2.2721126079559326
1772537139813713000,2.920712890625,0.4027341306209564,0.3352762758731842,-2.599935293197632
1772537139823761700,2.93076171875,0.5145989060401917,0.19424670934677124,-2.610004186630249
1772537139833810000,2.940809814453125,0.5276433229446411,0.09115280956029892,-2.3763539791107178
1772537139843857700,2.950857666015625,0.47358861565589905,0.16373273730278015,-1.9975636005401611
1772537139853907000,2.960906982421875,0.2744182348251343,0.40298500657081604,-1.564884901046753
1772537139863954700,2.97095458984375,-0.05528003349900246,0.5621328353881836,-1.26115882396698
1772537139874002700,2.981002685546875,-0.3205561637878418,0.47884541749954224,-1.21721613407135
1772537139884051700,2.9910517578125,-0.3708883225917816,0.28255340456962585,-1.3042445182800293
1772537139894099700,3.001099609375,-0.19975385069847107,0.14170759916305542,-1.398493766784668
1772537139904148000,3.01114794921875,-0.019818179309368134,0.04330193251371384,-1.4588348865509033
1772537139914196700,3.02119677734375,-0.0070917317643761635,-0.15023717284202576,-1.4472438097000122
1772537139924245000,3.031244873046875,-0.1403248906135559,-0.4042699933052063,-1.3171502351760864
1772537139934292700,3.041292724609375,-0.29543083906173706,-0.5594446659088135,-1.0055826902389526
1772537139944342000,3.051342041015625,-0.3462335765361786,-0.5086251497268677,-0.5371745228767395
1772537139954389800,3.0613896484375,-0.26454776525497437,-0.3680688440799713,-0.008882175199687481
1772537139964437800,3.071437744140625,-0.11123917251825333,-0.24424836039543152,0.49047303199768066
1772537139974486800,3.08148681640625,0.04593367129564285,-0.1596756875514984,0.8439552187919617
1772537139984534800,3.09153466796875,0.15252402424812317,-0.1337367594242096,1.023697018623352
1772537139994582800,3.101582763671875,0.1921614557504654,-0.1566348820924759,1.0696320533752441
1772537140004631800,3.1116318359375,0.197588711977005,-0.25115206837654114,0.9786123633384705
1772537140014679800,3.1216796875,0.18174876272678375,-0.3936671316623688,0.7742299437522888
1772537140024727800,3.131727783203125,0.12285321950912476,-0.5410560369491577,0.4937279522418976
1772537140034776600,3.141776611328125,-0.017349163070321083,-0.6617047190666199,0.18943065404891968
1772537140044824800,3.151824951171875,-0.18541885912418365,-0.7728205919265747,-0.08521529287099838
1772537140054872800,3.161872802734375,-0.29028695821762085,-0.8561948537826538,-0.29762741923332214
1772537140064921900,3.171921875,-0.3287461996078491,-0.8535692095756531,-0.41634634137153625
1772537140074970000,3.18197021484375,-0.30948781967163086,-0.7606496810913086,-0.38220223784446716
1772537140085017900,3.192017822265625,-0.24512186646461487,-0.6189718842506409,-0.24050848186016083
1772537140095067100,3.202067138671875,-0.17614519596099854,-0.5409351587295532,-0.01125372014939785
1772537140105115000,3.212114990234375,-0.11953359097242355,-0.5279943346977234,0.2571151554584503
1772537140115163000,3.222162841796875,-0.08936610072851181,-0.5177091956138611,0.5051196217536926
1772537140125211000,3.2322109375,-0.06432945281267166,-0.47450047731399536,0.7701675295829773
1772537140135260000,3.242260009765625,-0.01907782070338726,-0.3350658714771271,1.0285143852233887
1772537140145308000,3.252307861328125,0.016345417127013206,-0.15957927703857422,1.287319302558899
1772537140155357000,3.26235693359375,0.03627651557326317,-0.052019257098436356,1.5190095901489258
1772537140165405000,3.272405029296875,0.06741845607757568,0.014842595905065536,1.6861133575439453
1772537140175453000,3.282452880859375,0.10850117355585098,0.101446732878685,1.761618733406067
1772537140185501000,3.2925009765625,0.16116784512996674,0.254520446062088,1.758935809135437
1772537140195550000,3.302550048828125,0.22923505306243896,0.48649027943611145,1.683526635169983
1772537140205598000,3.312597900390625,0.2780875563621521,0.7562211155891418,1.5638915300369263
1772537140215646000,3.32264599609375,0.2791687846183777,0.9737081527709961,1.4550774097442627
1772537140225695000,3.332695068359375,0.22625896334648132,1.0561883449554443,1.3933466672897339
1772537140235742700,3.34274267578125,0.11320538073778152,1.042546033859253,1.3574310541152954
1772537140245791000,3.352791015625,-0.02183712273836136,0.9669405221939087,1.1775954961776733
1772537140255839700,3.36283984375,-0.08166316896677017,0.870745837688446,0.7180548310279846
1772537140265888000,3.372887939453125,-0.033008284866809845,0.7417899370193481,-0.01649002730846405
1772537140275936000,3.38293603515625,0.09953511506319046,0.6167827844619751,-0.8435815572738647
1772537140285985000,3.392985107421875,0.22199630737304688,0.5291975140571594,-1.5062370300292969
1772537140296033000,3.403032958984375,0.2625546455383301,0.6091211438179016,-1.7849432229995728
1772537140306080800,3.413080810546875,0.32800450921058655,0.6716960668563843,-1.7445409297943115
1772537140316130000,3.423130126953125,0.46763697266578674,0.5246597528457642,-1.6026735305786133
1772537140326177800,3.433177734375,0.5819885730743408,0.2395513355731964,-1.500679850578308
1772537140336226000,3.44322607421875,0.5829566121101379,-0.05638338252902031,-1.3940961360931396
1772537140346274800,3.45327490234375,0.4111105799674988,-0.22318515181541443,-1.1969350576400757
1772537140356323000,3.463322998046875,0.07721489667892456,-0.27223044633865356,-0.8471294045448303
1772537140366370800,3.473370849609375,-0.14661820232868195,-0.2200908213853836,-0.4330563545227051
1772537140376420000,3.483420166015625,-0.14760303497314453,-0.034877024590969086,-0.09266575425863266
1772537140386467800,3.4934677734375,-0.1041431799530983,0.16769951581954956,0.11060880124568939
1772537140396515800,3.503515869140625,-0.13432557880878448,0.260612428188324,0.1768525391817093
1772537140406564900,3.51356494140625,-0.2635536193847656,0.21072155237197876,0.13207733631134033
1772537140416612900,3.52361279296875,-0.36543604731559753,0.044378384947776794,0.023783626034855843
1772537140426661000,3.5336611328125,-0.36502963304519653,-0.10762446373701096,-0.03146391734480858
1772537140436710000,3.5437099609375,-0.27538177371025085,-0.1927470862865448,0.024384168907999992
1772537140446758100,3.553758056640625,-0.13960503041744232,-0.2672325074672699,0.17518140375614166
1772537140456806000,3.563805908203125,0.02869316376745701,-0.31282421946525574,0.31296589970588684
1772537140466855000,3.57385498046875,0.20463941991329193,-0.26231151819229126,0.3272053003311157
1772537140476903000,3.58390283203125,0.3851895034313202,-0.13552507758140564,0.19447706639766693
1772537140486951000,3.593950927734375,0.5424672961235046,-0.029336316511034966,-0.059664130210876465
1772537140497000000,3.604,0.6196461915969849,-0.02793229930102825,-0.34193843603134155
1772537140507048000,3.6140478515625,0.6038355827331543,-0.11023010313510895,-0.5616438984870911
1772537140517096000,3.624095947265625,0.5080893039703369,-0.21217431128025055,-0.6857059001922607
1772537140527145000,3.63414501953125,0.35239773988723755,-0.28390946984291077,-0.7286893129348755
1772537140537192700,3.644192626953125,0.1812952160835266,-0.3525407314300537,-0.7010292410850525
1772537140547241000,3.654240966796875,-0.003094326937571168,-0.4265632927417755,-0.6007745265960693
1772537140557289700,3.664289794921875,-0.14353559911251068,-0.4364215135574341,-0.4794518053531647
1772537140567338000,3.674337890625,-0.17638622224330902,-0.3922479450702667,-0.3403637111186981
1772537140577386000,3.684385986328125,-0.11545149236917496,-0.34082815051078796,-0.19237662851810455
1772537140587433700,3.694433837890625,0.000496945867780596,-0.28656572103500366,-0.007152984384447336
1772537140597483000,3.70448291015625,0.1308823823928833,-0.24601829051971436,0.2363227903842926
1772537140607530800,3.71453076171875,0.20922592282295227,-0.21144379675388336,0.5414608716964722
1772537140617579000,3.7245791015625,0.2312507927417755,-0.19895383715629578,0.8646754026412964
1772537140627627800,3.734627685546875,0.24008263647556305,-0.21617969870567322,1.1718579530715942
1772537140637676000,3.744676025390625,0.2510703206062317,-0.2441335767507553,1.4464157819747925
1772537140647724000,3.75472412109375,0.25755617022514343,-0.22430473566055298,1.7319519519805908
1772537140657773000,3.76477294921875,0.2823755145072937,-0.13225656747817993,1.9950722455978394
1772537140667821000,3.774821044921875,0.3723922073841095,0.035832833498716354,2.1749958992004395
1772537140677868800,3.784868896484375,0.5046269297599792,0.25766509771347046,2.2696378231048584
1772537140687917800,3.794917724609375,0.6123190522193909,0.4073089063167572,2.2918660640716553
1772537140697965800,3.8049658203125,0.651084840297699,0.4305090308189392,2.2184221744537354
1772537140708014000,3.81501416015625,0.6387205719947815,0.3798655569553375,2.0378761291503906
1772537140718062800,3.825062744140625,0.5737777948379517,0.3434622883796692,1.7500814199447632
1772537140728111000,3.835111083984375,0.4622485935688019,0.33586907386779785,1.375035047531128
1772537140738158800,3.845158935546875,0.31837186217308044,0.349119633436203,0.9501605033874512
1772537140748207900,3.855207763671875,0.21593202650547028,0.3862318694591522,0.48253947496414185
1772537140758255900,3.865255859375,0.1640097051858902,0.4945008158683777,-0.0594063363969326
1772537140768303900,3.875303955078125,0.05601906031370163,0.5919762253761292,-0.6683918833732605
1772537140778353000,3.885352783203125,-0.061288923025131226,0.5590699315071106,-1.3546768426895142
1772537140788401000,3.89540087890625,-0.041245974600315094,0.4550788402557373,-2.0622715950012207
1772537140798449200,3.90544921875,0.024153539910912514,0.34106677770614624,-2.478306531906128
1772537140808498000,3.915497802734375,0.04987062141299248,0.1772426962852478,-2.4549031257629395
1772537140818546000,3.9255458984375,0.03021010011434555,-0.15509797632694244,-2.0976850986480713
1772537140828594000,3.935593994140625,0.046544067561626434,-0.3259948790073395,-1.5236375331878662
1772537140838643000,3.945642822265625,0.1054510548710823,-0.10734989494085312,-0.8813294768333435
1772537140848691000,3.95569091796875,0.061288125813007355,0.444344699382782,-0.22013822197914124
1772537140858739000,3.965739013671875,-0.1190720647573471,0.9950554966926575,0.2336745411157608
1772537140868788000,3.9757880859375,-0.2803072929382324,1.0655603408813477,0.3574686646461487
1772537140878836000,3.9858359375,-0.33550795912742615,0.660052478313446,0.23432408273220062
1772537140888883700,3.9958837890625,-0.26646897196769714,0.0800200030207634,-0.06053045392036438
1772537140898933000,4.00593310546875,-0.20323380827903748,-0.4241020083427429,-0.3478751480579376
1772537140908980700,4.015980712890625,-0.21531817317008972,-0.6837314367294312,-0.559403121471405
1772537140919029000,4.026029052734375,-0.19852668046951294,-0.6694574356079102,-0.7533501982688904
1772537140929077800,4.036077880859375,-0.20946134626865387,-0.6540912389755249,-0.8953174948692322
1772537140939126000,4.0461259765625,-0.2741255462169647,-0.7229880690574646,-0.9897523522377014
1772537140949174000,4.056174072265625,-0.2832373082637787,-0.7352375388145447,-1.0040225982666016
1772537140959223000,4.06622314453125,-0.2867833077907562,-0.6550726294517517,-0.8991628289222717
1772537140969271000,4.07627099609375,-0.2934342622756958,-0.4042225778102875,-0.7686380743980408
1772537140979318800,4.08631884765625,-0.27777010202407837,-0.03141304850578308,-0.6768509149551392
1772537140989368000,4.0963681640625,-0.30226239562034607,0.27593305706977844,-0.6461116671562195
1772537140999415800,4.106415771484375,-0.3921605944633484,0.494257390499115,-0.7028926014900208
1772537141009464000,4.116464111328125,-0.5001291036605835,0.5577018857002258,-0.7857920527458191
1772537141019512000,4.126511962890625,-0.5688496232032776,0.42667168378829956,-0.9029341340065002
1772537141029561000,4.13656103515625,-0.61971116065979,0.09599018096923828,-1.057404637336731
1772537141039608800,4.14660888671875,-0.624102771282196,-0.2935445308685303,-1.1923632621765137
1772537141049656800,4.15665673828125,-0.5499411821365356,-0.5651211738586426,-1.2523422241210938
1772537141059705900,4.166705810546875,-0.42027878761291504,-0.7207733392715454,-1.1553056240081787
1772537141069754400,4.17675439453125,-0.26896408200263977,-0.6802536249160767,-0.8486911058425903
1772537141079802400,4.18680224609375,-0.13562680780887604,-0.3840635120868683,-0.4376567006111145
1772537141089851400,4.196851318359375,-0.06078159064054489,-0.03988216817378998,0.011630024760961533
1772537141099899400,4.2068994140625,-0.06784136593341827,0.1780022233724594,0.39574626088142395
1772537141109947100,4.216947021484375,-0.15289421379566193,0.194154292345047,0.6887600421905518
1772537141119996400,4.226996337890625,-0.3041268587112427,0.09107664972543716,0.9623907804489136
1772537141130044200,4.237044189453125,-0.4477926790714264,-0.020744159817695618,1.217669129371643
1772537141140092400,4.247092529296875,-0.5306302905082703,-0.039024099707603455,1.446984052658081
1772537141150141200,4.25714111328125,-0.5417455434799194,-0.003885552054271102,1.6167761087417603
1772537141160189400,4.267189453125,-0.4905220568180084,0.02094256691634655,1.7464570999145508
1772537141170237200,4.2772373046875,-0.3770434260368347,0.0025209481827914715,1.796125888824463
1772537141180286500,4.287286376953125,-0.24697916209697723,-0.035943884402513504,1.78485107421875
1772537141190334200,4.297334228515625,-0.16398414969444275,0.007930094376206398,1.728577733039856
1772537141200382200,4.30738232421875,-0.1548130214214325,0.13574931025505066,1.609579086303711
1772537141210431200,4.31743115234375,-0.14107802510261536,0.27793389558792114,1.4016400575637817
1772537141220479200,4.327479248046875,-0.09517738223075867,0.3682595193386078,1.130399465560913
1772537141230527500,4.337527587890625,-0.04675951600074768,0.5245513916015625,0.8176575303077698
1772537141240576300,4.347576171875,-0.05369571968913078,0.6900959014892578,0.45963895320892334
1772537141250624500,4.35762451171875,-0.08502993732690811,0.6798107624053955,0.12113042175769806
1772537141260672300,4.36767236328125,-0.17051847279071808,0.5438923239707947,-0.18458741903305054
1772537141270721300,4.37772119140625,-0.29894542694091797,0.38020777702331543,-0.5782090425491333
1772537141280769300,4.387769287109375,-0.4119478762149811,0.2023051679134369,-1.1010810136795044
1772537141290817300,4.3978173828125,-0.46566516160964966,0.027778901159763336,-1.6105327606201172
1772537141300866300,4.4078662109375,-0.41875889897346497,-0.0007600661483593285,-2.0056025981903076
1772537141310914300,4.417914306640625,-0.28743311762809753,0.12549108266830444,-2.231414556503296
1772537141320962300,4.42796240234375,-0.0782117173075676,0.3042443096637726,-2.227857828140259
1772537141331011300,4.43801123046875,0.14901770651340485,0.3837689757347107,-1.9327551126480103
1772537141341059300,4.448059326171875,0.30491915345191956,0.29252082109451294,-1.3953107595443726
1772537141351107300,4.458107421875,0.3051591217517853,0.16918343305587769,-0.8451653718948364
1772537141361156400,4.46815625,0.049068477004766464,0.16033507883548737,-0.45579442381858826
1772537141371204400,4.478204345703125,-0.2605524957180023,0.22101706266403198,-0.3088366687297821
1772537141381252400,4.48825244140625,-0.38188639283180237,0.22226741909980774,-0.333272248506546
1772537141391301400,4.49830126953125,-0.2864783704280853,0.14162717759609222,-0.4125617444515228
1772537141401349400,4.508349365234375,-0.19585472345352173,0.03332014009356499,-0.5049012303352356
1772537141411397000,4.518397216796875,-0.16407601535320282,-0.12251047044992447,-0.6453566551208496
1772537141421445400,4.5284453125,-0.17412546277046204,-0.3480690121650696,-0.8337467908859253
1772537141431494100,4.538494140625,-0.17206257581710815,-0.5548925399780273,-1.0040322542190552
1772537141441542400,4.54854248046875,-0.12888340651988983,-0.6819199919700623,-1.087428331375122
1772537141451590400,4.55859033203125,-0.007473628968000412,-0.7661235332489014,-1.0434986352920532
1772537141461639400,4.568639404296875,0.155824214220047,-0.7718535661697388,-0.8688616156578064
1772537141471687400,4.5786875,0.3043511211872101,-0.6689850091934204,-0.6131566166877747
1772537141481735200,4.588735107421875,0.3992712199687958,-0.47574469447135925,-0.3594857454299927
1772537141491784400,4.598784423828125,0.45390838384628296,-0.2747095823287964,-0.20558059215545654
1772537141501832200,4.608832275390625,0.4663812816143036,-0.11636389046907425,-0.1833849996328354
1772537141511880400,4.61888037109375,0.3700590133666992,-0.11712156236171722,-0.2107039839029312
1772537141521929200,4.62892919921875,0.1719302237033844,-0.22430314123630524,-0.2786305546760559
1772537141531977500,4.6389775390625,-0.0979183092713356,-0.30153322219848633,-0.35756027698516846
1772537141542025200,4.649025146484375,-0.4065147638320923,-0.3468815088272095,-0.35872432589530945
1772537141552074200,4.65907421875,-0.663345992565155,-0.38941219449043274,-0.2445889711380005
1772537141562122200,4.669122314453125,-0.7838324904441833,-0.4485913813114166,-0.07846418023109436
1772537141572170200,4.679170166015625,-0.7508239150047302,-0.5361276268959045,0.09474781155586243
1772537141582219300,4.68921923828125,-0.6045231819152832,-0.624049186706543,0.2741311490535736
1772537141592267300,4.699267333984375,-0.4142376482486725,-0.6787920594215393,0.4318574070930481
1772537141602315300,4.709315185546875,-0.20845253765583038,-0.6616067290306091,0.6003252267837524
1772537141612364300,4.7193642578125,-0.0311022587120533,-0.558359682559967,0.7946385145187378
1772537141622412300,4.729412353515625,0.08850376307964325,-0.3915552496910095,0.9670555591583252
1772537141632460300,4.739460205078125,0.1579885631799698,-0.22978472709655762,1.1223913431167603
1772537141642509300,4.74950927734375,0.18951666355133057,-0.1024605929851532,1.2761340141296387
1772537141652557300,4.759557373046875,0.19375455379486084,-0.02448270656168461,1.4032914638519287
1772537141662605300,4.769605224609375,0.17714069783687592,0.022825421765446663,1.4632903337478638
1772537141672654300,4.779654296875,0.1660134643316269,0.0026818031910806894,1.4385746717453003
1772537141682702300,4.789702392578125,0.18759413063526154,-0.07702554017305374,1.3215044736862183
1772537141692750300,4.799750244140625,0.17970052361488342,-0.016683904454112053,1.1350528001785278
1772537141702799400,4.80979931640625,0.1356225460767746,0.228822261095047,0.8552395701408386
1772537141712847400,4.819847412109375,0.07381802797317505,0.46991050243377686,0.5329246520996094
1772537141722895400,4.829895263671875,-0.029333921149373055,0.524066150188446,0.32403454184532166
1772537141732944100,4.839944091796875,-0.12149607390165329,0.49229544401168823,0.1493348926305771
1772537141742992400,4.849992431640625,-0.17678461968898773,0.4522060751914978,-0.05269170552492142
1772537141753040400,4.860040283203125,-0.19422326982021332,0.4423510432243347,-0.304324209690094
1772537141763089400,4.87008935546875,-0.11773142963647842,0.5709564089775085,-0.681425154209137
1772537141773137400,4.880137451171875,0.02642308548092842,0.8117756843566895,-1.1034115552902222
1772537141783185200,4.89018505859375,0.17184819281101227,0.9421464800834656,-1.3883394002914429
1772537141793234400,4.900234375,0.2729950547218323,0.8151333928108215,-1.4639164209365845
1772537141803282200,4.9102822265625,0.3208555281162262,0.42663493752479553,-1.3939101696014404
1772537141813330400,4.920330322265625,0.33995702862739563,-0.029704898595809937,-1.2656161785125732
1772537141823379200,4.930379150390625,0.3080185353755951,-0.188119038939476,-1.1022306680679321
1772537141833427200,4.94042724609375,0.316990464925766,-0.07437116652727127,-0.9307175278663635
1772537141843475500,4.950475341796875,0.2467605173587799,0.010106430388987064,-0.7201123833656311
1772537141853523200,4.960523193359375,-0.027873443439602852,0.03662831708788872,-0.5199922919273376
1772537141863572500,4.970572509765625,-0.28277552127838135,0.04917500168085098,-0.42943260073661804
1772537141873620200,4.9806201171875,-0.34812361001968384,0.07546732574701309,-0.41196519136428833
1772537141883668200,4.990668212890625,-0.3257450759410858,0.19495511054992676,-0.4117228388786316
1772537141893717200,5.00071728515625,-0.3489835560321808,0.26997315883636475,-0.3891464173793793
1772537141903765200,5.01076513671875,-0.3980509638786316,0.28080877661705017,-0.42258960008621216
1772537141913813200,5.020813232421875,-0.431303471326828,0.19144506752490997,-0.5314367413520813
1772537141923862300,5.0308623046875,-0.43271175026893616,0.014514227397739887,-0.5926534533500671
1772537141933910300,5.04091015625,-0.3799995183944702,-0.14864008128643036,-0.55447918176651
1772537141943958300,5.050958251953125,-0.28032591938972473,-0.18768681585788727,-0.37503325939178467
1772537141954007300,5.06100732421875,-0.16602572798728943,-0.10089758783578873,-0.056414805352687836
1772537141964055300,5.07105517578125,0.005693572107702494,0.09154616296291351,0.2519869804382324
1772537141974103300,5.081103271484375,0.1680944710969925,0.2903844118118286,0.4393797516822815
1772537141984152300,5.09115234375,0.22287781536579132,0.36222025752067566,0.5027720332145691
1772537141994200300,5.101200439453125,0.2056940346956253,0.2941863536834717,0.4488920569419861
1772537142004248300,5.111248291015625,0.15348117053508759,0.12835611402988434,0.29467689990997314
1772537142014297300,5.12129736328125,0.07278738915920258,-0.11791465431451797,0.07848016172647476
1772537142024345300,5.131345458984375,-0.014903581701219082,-0.38904282450675964,-0.17601417005062103
1772537142034393300,5.141393310546875,-0.09355844557285309,-0.5889061093330383,-0.38660311698913574
1772537142044442400,5.1514423828125,-0.14615879952907562,-0.6632634401321411,-0.4819786250591278
1772537142054490400,5.161490478515625,-0.18405771255493164,-0.626950740814209,-0.4496387839317322
1772537142064538400,5.171538330078125,-0.21565000712871552,-0.5145632028579712,-0.3062398135662079
1772537142074586600,5.181586669921875,-0.2282499521970749,-0.36343467235565186,-0.10103686898946762
1772537142084634600,5.191634521484375,-0.24635091423988342,-0.22531194984912872,0.14757321774959564
1772537142094682600,5.2016826171875,-0.24006666243076324,-0.11140508949756622,0.3681492507457733
1772537142104731600,5.211731689453125,-0.20864562690258026,-0.041482727974653244,0.5466196537017822
1772537142114779600,5.221779541015625,-0.19523607194423676,-0.024204405024647713,0.709804356098175
1772537142124827600,5.23182763671875,-0.20431292057037354,-0.017237043008208275,0.8616108894348145
1772537142134876400,5.24187646484375,-0.20387136936187744,-0.007154315710067749,0.9706073999404907
1772537142144924700,5.251924560546875,-0.13831020891666412,-0.027290742844343185,1.041414737701416
1772537142154972700,5.26197265625,-0.0864960104227066,-0.03409858047962189,1.0907082557678223
1772537142165020700,5.272020751953125,-0.07221347838640213,-0.006853112485259771,1.1005009412765503
1772537142175069700,5.282069580078125,-0.0545673705637455,0.04673741012811661,1.057336449623108
1772537142185117400,5.292117431640625,-0.050039730966091156,0.06891249120235443,0.9723682999610901
1772537142195165700,5.302165771484375,-0.0738300159573555,0.01840856857597828,0.8616063594818115
1772537142205214500,5.31221435546875,-0.10826016217470169,-0.042398855090141296,0.72893887758255
1772537142215262700,5.3222626953125,-0.11583045870065689,-0.07498742640018463,0.5781680345535278
1772537142225310500,5.332310546875,-0.10091649740934372,-0.07000811398029327,0.398017942905426
1772537142235359700,5.34235986328125,-0.0749855637550354,-0.03964701294898987,0.19037047028541565
1772537142245407500,5.352407470703125,-0.029326729476451874,-0.029440445825457573,-0.06001034006476402
1772537142255455500,5.36245556640625,0.015005048364400864,-0.0597434900701046,-0.3466474413871765
1772537142265504500,5.37250439453125,0.08640839159488678,-0.0849793404340744,-0.6097885370254517
1772537142275552500,5.382552490234375,0.1505594104528427,-0.08452287316322327,-0.7924856543540955
1772537142285600800,5.392600830078125,0.20654332637786865,-0.03248390555381775,-0.909453809261322
1772537142295649500,5.4026494140625,0.2632817029953003,0.0567367821931839,-0.9629228711128235
1772537142305697800,5.41269775390625,0.3075157403945923,0.11883717030286789,-0.8916681408882141
1772537142315745500,5.42274560546875,0.32576265931129456,0.08171803504228592,-0.706676721572876
1772537142325794800,5.432794921875,0.37414082884788513,0.05347254499793053,-0.6060318350791931
1772537142335842600,5.442842529296875,0.5172774791717529,0.22604671120643616,-0.7680678963661194
1772537142345890600,5.452890625,0.7136997580528259,0.42368894815444946,-1.055669903755188
1772537142355939600,5.462939697265625,0.8854472637176514,0.3799739480018616,-1.2653889656066895
1772537142365987600,5.472987548828125,0.8909615874290466,0.1569986641407013,-1.1936852931976318
1772537142376035600,5.48303564453125,0.7165330648422241,-0.1270141452550888,-0.8447746634483337
1772537142386084600,5.493084716796875,0.5265389084815979,-0.33870935440063477,-0.48743730783462524
1772537142396132600,5.503132568359375,0.4287257790565491,-0.42833617329597473,-0.32475546002388
1772537142406180600,5.5131806640625,0.3785760700702667,-0.5368317365646362,-0.3129749596118927
1772537142416229400,5.5232294921875,0.36276301741600037,-0.5762835741043091,-0.4015149474143982
1772537142426277600,5.533277587890625,0.3943382501602173,-0.6549152731895447,-0.532436728477478
1772537142436325600,5.54332568359375,0.4620895981788635,-0.7686407566070557,-0.6653356552124023
1772537142446374700,5.553374755859375,0.5247148871421814,-0.8065249919891357,-0.7029573321342468
1772537142456422700,5.563422607421875,0.531997561454773,-0.7159088253974915,-0.5549931526184082
1772537142466470400,5.573470458984375,0.5496125221252441,-0.531832754611969,-0.20571906864643097
1772537142476518700,5.5835185546875,0.6145973801612854,-0.27456843852996826,0.26769721508026123
1772537142486567400,5.5935673828125,0.70061856508255,-0.006882140878587961,0.7531083822250366
1772537142496615700,5.60361572265625,0.7758485674858093,0.26668787002563477,1.173593521118164
1772537142506663700,5.61366357421875,0.7648524045944214,0.5027629733085632,1.5058878660202026
1772537142516712700,5.623712646484375,0.6974539160728455,0.6202547550201416,1.670310378074646
1772537142526760700,5.6337607421875,0.5728246569633484,0.5328401923179626,1.6564850807189941
1772537142536808400,5.643808349609375,0.3528060019016266,0.23462289571762085,1.5644606351852417
1772537142546857500,5.653857421875,0.06775321811437607,-0.12491370737552643,1.4448753595352173
1772537142556905500,5.663905517578125,-0.1885848343372345,-0.35862499475479126,1.281554102897644
1772537142566953700,5.67395361328125,-0.3444995880126953,-0.4045323133468628,1.1284902095794678
1772537142577002500,5.68400244140625,-0.4144251346588135,-0.3508184850215912,0.9984734058380127
1772537142587050800,5.69405078125,-0.4779745638370514,-0.2990700602531433,0.8899480104446411
1772537142597098500,5.704098388671875,-0.51152104139328,-0.3070635497570038,0.7739231586456299
1772537142607147800,5.714147705078125,-0.4823125898838043,-0.3342765271663666,0.6592252850532532
1772537142617195500,5.724195556640625,-0.478755921125412,-0.3387439548969269,0.6003966331481934
1772537142627243500,5.734243408203125,-0.5056277513504028,-0.3495106101036072,0.6083501577377319
1772537142637292500,5.74429248046875,-0.5164359211921692,-0.38672852516174316,0.6569722890853882
1772537142647340500,5.754340576171875,-0.5060338973999023,-0.39483919739723206,0.7221089601516724
1772537142657388800,5.764388916015625,-0.4156579375267029,-0.34127742052078247,0.6969285011291504
1772537142667437600,5.7744375,-0.2669091820716858,-0.22707097232341766,0.5735726952552795
1772537142677485800,5.78448583984375,-0.11783555895090103,-0.055504802614450455,0.4044279158115387
1772537142687533600,5.794533447265625,-0.004831240512430668,0.11066818982362747,0.2615402638912201
1772537142697582600,5.80458251953125,0.032464731484651566,0.21074658632278442,0.1555081009864807
1772537142707630600,5.814630615234375,0.027246534824371338,0.2584291696548462,0.0477086678147316
1772537142717678600,5.8246787109375,-0.021882928907871246,0.23513394594192505,-0.07887031137943268
1772537142727727600,5.8347275390625,-0.09552838653326035,0.1900452971458435,-0.21389950811862946
1772537142737775600,5.844775634765625,-0.1915888786315918,0.10760661959648132,-0.2807466983795166
1772537142747823400,5.8548232421875,-0.23526737093925476,0.07359965145587921,-0.3071066737174988
1772537142757872600,5.86487255859375,-0.15090322494506836,0.19093745946884155,-0.34426364302635193
1772537142767920400,5.87492041015625,0.03513002395629883,0.3784378468990326,-0.4291290044784546
1772537142777968600,5.88496875,0.25823020935058594,0.5040271878242493,-0.5913969874382019
1772537142788016600,5.8950166015625,0.4077509939670563,0.5223503112792969,-0.8471728563308716
1772537142798065700,5.905065673828125,0.4301588237285614,0.35476526618003845,-1.1364030838012695
1772537142808113700,5.91511376953125,0.3837415277957916,0.08154599368572235,-1.4121196269989014
1772537142818162700,5.92516259765625,0.3306266665458679,-0.23241913318634033,-1.643483281135559
1772537142828210700,5.935210693359375,0.2949637174606323,-0.44447359442710876,-1.720384955406189
1772537142838258400,5.945258544921875,0.26600050926208496,-0.425586998462677,-1.6518174409866333
1772537142848307700,5.9553076171875,0.16109886765480042,-0.2275250405073166,-1.518273949623108
1772537142858355500,5.96535546875,-0.006167082116007805,-0.034983549267053604,-1.470589280128479
1772537142868403700,5.97540380859375,-0.19194333255290985,0.007600928191095591,-1.4478358030319214
1772537142878451700,5.98545166015625,-0.28805282711982727,-0.05977172031998634,-1.2909241914749146
1772537142888500700,5.995500732421875,-0.37233680486679077,-0.04218740016222,-0.9769089818000793
1772537142898548500,6.005548583984375,-0.5041606426239014,0.11083570122718811,-0.5326849222183228
1772537142908597800,6.01559765625,-0.6455134749412537,0.2833920419216156,-0.0964096263051033
1772537142918645500,6.0256455078125,-0.6921904683113098,0.39831727743148804,0.15257543325424194
1772537142928693500,6.035693603515625,-0.6510443687438965,0.37752625346183777,0.2447703331708908
1772537142938741800,6.04574169921875,-0.5303989052772522,0.20696783065795898,0.27436789870262146
1772537142948790500,6.05579052734375,-0.3284252882003784,0.05446483939886093,0.31561920046806335
1772537142958838800,6.0658388671875,-0.019413378089666367,-0.012193815782666206,0.38040006160736084
1772537142968886500,6.075886474609375,0.3227460980415344,-0.003022687742486596,0.37973347306251526
1772537142978935600,6.085935546875,0.6215692758560181,0.007322094868868589,0.24673494696617126
1772537142988983600,6.095983642578125,0.8946154713630676,-0.02545502595603466,-0.07648465782403946
1772537142999031600,6.106031494140625,1.1265355348587036,-0.03350549563765526,-0.5635550022125244
1772537143009080600,6.11608056640625,1.2439923286437988,0.06057572737336159,-1.1041699647903442
1772537143019128600,6.126128662109375,1.2294560670852661,0.18199457228183746,-1.5288145542144775
1772537143029176600,6.136176513671875,1.0773022174835205,0.22975383698940277,-1.6714528799057007
1772537143039225600,6.1462255859375,0.7960510849952698,0.17904964089393616,-1.4450019598007202
1772537143049273600,6.156273681640625,0.40542393922805786,0.09247613698244095,-0.940625011920929
1772537143059321600,6.166321533203125,0.01516750082373619,-0.018196580931544304,-0.3522499203681946
1772537143069370600,6.17637060546875,-0.3069460988044739,-0.15046221017837524,0.1916048526763916
1772537143079418600,6.186418701171875,-0.6028560400009155,-0.21898427605628967,0.6038597822189331
1772537143089466600,6.196466552734375,-0.8931997418403625,-0.20986135303974152,0.8598207235336304
1772537143099515600,6.206515625,-1.163133144378662,-0.1520627737045288,1.0314414501190186
1772537143109563600,6.216563720703125,-1.3462969064712524,-0.09237121045589447,1.1767901182174683
1772537143119611400,6.226611328125,-1.3933722972869873,-0.05988117679953575,1.2992377281188965
1772537143129660700,6.23666064453125,-1.3263839483261108,-0.10381560772657394,1.4051610231399536
1772537143139708400,6.24670849609375,-1.1395421028137207,-0.16127170622348785,1.4982683658599854
1772537143149756700,6.256756591796875,-0.8652458786964417,-0.09995828568935394,1.5660237073898315
1772537143159805400,6.266805419921875,-0.5717971920967102,0.04278741031885147,1.6101309061050415
1772537143169853700,6.276853759765625,-0.3228563368320465,0.20492784678936005,1.6158891916275024
1772537143179901700,6.286901611328125,-0.14819586277008057,0.3428300619125366,1.5353819131851196
1772537143189949400,6.296949462890625,-0.04745939373970032,0.3893757164478302,1.3913381099700928
1772537143199998700,6.306998779296875,-0.03104686550796032,0.3504815697669983,1.2435966730117798
1772537143210046500,6.31704638671875,-0.0624103806912899,0.24739648401737213,1.0889891386032104
1772537143220094700,6.3270947265625,-0.08965185284614563,0.1385919600725174,0.929935872554779
1772537143230143500,6.3371435546875,-0.1004112958908081,0.10683057457208633,0.7432286143302917
1772537143240191700,6.347191650390625,-0.13803111016750336,0.18074049055576324,0.5427868366241455
1772537143250239500,6.357239501953125,-0.2263987809419632,0.2740323543548584,0.28897666931152344
1772537143260288500,6.36728857421875,-0.2589695155620575,0.472811758518219,-0.12576937675476074
1772537143270336500,6.37733642578125,-0.2384706288576126,0.7264472246170044,-0.6581776142120361
1772537143280384500,6.387384521484375,-0.25723713636398315,0.7409430742263794,-1.0771580934524536
1772537143290433500,6.39743359375,-0.2992258667945862,0.5406590104103088,-1.3432276248931885
1772537143300481500,6.4074814453125,-0.2745774984359741,0.13733495771884918,-1.4488986730575562
1772537143310529800,6.41752978515625,-0.1937263309955597,-0.43295010924339294,-1.3810147047042847
1772537143320578600,6.42757861328125,-0.08869631588459015,-0.8398118615150452,-1.246285080909729
1772537143330626600,6.43762646484375,0.06365887075662613,-0.8914428353309631,-1.0583553314208984
1772537143340674600,6.447674560546875,0.22126980125904083,-0.6005124449729919,-0.8475749492645264
1772537143350723600,6.4577236328125,0.27863162755966187,-0.09299039095640182,-0.7116016745567322
1772537143360771600,6.467771484375,0.18976540863513947,0.2781011164188385,-0.666101336479187
1772537143370819600,6.477819580078125,0.030557643622159958,0.26749348640441895,-0.6788696050643921
1772537143380868600,6.48786865234375,-0.11607521027326584,0.08815249800682068,-0.7082796692848206
1772537143390916600,6.49791650390625,-0.22985689342021942,-0.044499289244413376,-0.7117055654525757
1772537143400964600,6.507964599609375,-0.3234502375125885,-0.08144612610340118,-0.6602509021759033
1772537143411013600,6.518013671875,-0.3808959424495697,-0.024446753785014153,-0.5822271704673767
1772537143421061600,6.5280615234375,-0.3834927976131439,0.13281823694705963,-0.44509971141815186
1772537143431109600,6.538109619140625,-0.3387066721916199,0.33739349246025085,-0.20129981637001038
1772537143441158700,6.54815869140625,-0.1938331127166748,0.48937422037124634,0.08862946927547455
1772537143451206700,6.55820654296875,0.02474209852516651,0.557397186756134,0.35799434781074524
1772537143461254700,6.568254638671875,0.2210381031036377,0.5813193321228027,0.5724342465400696
1772537143471303700,6.5783037109375,0.3649556040763855,0.6067927479743958,0.6781798005104065
1772537143481351700,6.5883515625,0.4388253092765808,0.6116764545440674,0.6659886837005615
1772537143491399400,6.5983994140625,0.4560444951057434,0.6500152945518494,0.5652151703834534
1772537143501447700,6.60844775390625,0.4057038128376007,0.7420986294746399,0.4143196940422058
1772537143511496400,6.618496337890625,0.2960186004638672,0.8211479187011719,0.24134284257888794
1772537143521544700,6.628544677734375,0.1581110805273056,0.7515869140625,0.04258154705166817
1772537143531592700,6.6385927734375,0.05024692416191101,0.46131861209869385,-0.11997514218091965
1772537143541641500,6.648641357421875,-0.07926952093839645,0.0515257753431797,-0.15057618916034698
1772537143551689700,6.658689697265625,-0.253402441740036,-0.3133315443992615,-0.04880934953689575
1772537143561737500,6.668737548828125,-0.4080103933811188,-0.45960062742233276,0.14047323167324066
1772537143571786800,6.678786865234375,-0.5240997076034546,-0.35780447721481323,0.352070689201355
1772537143581834500,6.68883447265625,-0.610517680644989,-0.11095714569091797,0.497130423784256
1772537143591882800,6.6988828125,-0.687780499458313,0.03766615316271782,0.5581846833229065
1772537143601931500,6.708931640625,-0.6919686198234558,-0.020231235772371292,0.6389573216438293
1772537143611979500,6.7189794921875,-0.6428074240684509,-0.1174592524766922,0.7625972628593445
1772537143622027500,6.729027587890625,-0.5699247121810913,-0.17955830693244934,0.9080689549446106
1772537143632076500,6.73907666015625,-0.46183687448501587,-0.1805359572172165,1.053072214126587
1772537143642124500,6.74912451171875,-0.3032427132129669,-0.14020264148712158,1.154068112373352
1772537143652172500,6.759172607421875,-0.07860399782657623,-0.08833971619606018,1.2029693126678467
1772537143662221600,6.7692216796875,0.16827449202537537,-0.033959563821554184,1.1883940696716309
1772537143672269600,6.77926953125,0.4009857773780823,0.050928693264722824,1.0749287605285645
1772537143682317600,6.789317626953125,0.5530956983566284,0.1291891485452652,0.9184286594390869
1772537143692366600,6.79936669921875,0.5981566309928894,0.16588297486305237,0.7509123682975769
1772537143702414600,6.80941455078125,0.5400933027267456,0.1849203109741211,0.5576472878456116
1772537143712462600,6.819462646484375,0.4339112341403961,0.20571747422218323,0.35776132345199585
1772537143722511600,6.82951171875,0.3208049237728119,0.19785076379776,0.2164156585931778
1772537143732559600,6.8395595703125,0.25174248218536377,0.1779090166091919,0.11505415290594101
1772537143742607600,6.849607666015625,0.23172883689403534,0.18193304538726807,-0.006771353539079428
1772537143752656600,6.85965673828125,0.172186940908432,0.16170313954353333,-0.08546483516693115
1772537143762704600,6.86970458984375,0.05462409555912018,0.044673994183540344,-0.16116519272327423
1772537143772752600,6.879752685546875,-0.08468879014253616,-0.07721569389104843,-0.38555222749710083
1772537143782801700,6.8898017578125,-0.1838742345571518,-0.19474658370018005,-0.7665482759475708
1772537143792849700,6.899849609375,-0.24722284078598022,-0.32071784138679504,-1.1993029117584229
1772537143802897700,6.909897705078125,-0.2573508322238922,-0.44547948241233826,-1.5609670877456665
1772537143812945700,6.919945556640625,-0.16387762129306793,-0.5393588542938232,-1.6970176696777344
1772537143822994700,6.92999462890625,-0.020175309851765633,-0.6032541990280151,-1.5445284843444824
1772537143833042700,6.940042724609375,0.1638999879360199,-0.5733572840690613,-1.2465112209320068
1772537143843090400,6.95009033203125,0.2660521864891052,-0.49368029832839966,-0.8819273710250854
1772537143853139700,6.9601396484375,0.15541276335716248,-0.35465502738952637,-0.47297582030296326
1772537143863187500,6.9701875,-0.11879376322031021,-0.08481315523386002,-0.19253748655319214
1772537143873235700,6.980235595703125,-0.4225696325302124,0.16089487075805664,-0.13066479563713074
1772537143883284500,6.990284423828125,-0.6535277366638184,0.3307049572467804,-0.19773517549037933
1772537143893332500,7.00033251953125,-0.7603591084480286,0.500673234462738,-0.28071022033691406
1772537143903380700,7.010380615234375,-0.7907574772834778,0.6054478287696838,-0.35769715905189514
1772537143913429500,7.020429443359375,-0.7243872880935669,0.5498871207237244,-0.43448406457901
1772537143923477800,7.030477783203125,-0.5525385141372681,0.33291298151016235,-0.4697600305080414
1772537143933525500,7.040525390625,-0.26873719692230225,0.01113600842654705,-0.36273452639579773
1772537143943574800,7.05057470703125,0.06967388838529587,-0.24580976366996765,-0.10961917042732239
1772537143953622500,7.06062255859375,0.3382166624069214,-0.3765592575073242,0.16735383868217468
1772537143963670500,7.07067041015625,0.5059100389480591,-0.3798373341560364,0.3865668773651123
1772537143973719600,7.080719482421875,0.5902693867683411,-0.2753532826900482,0.46572110056877136
1772537143983767600,7.090767578125,0.6001489162445068,-0.1729363650083542,0.3552590310573578
1772537143993815600,7.100815673828125,0.5817712545394897,-0.17756573855876923,0.1102876216173172
1772537144003864600,7.110864501953125,0.5477472543716431,-0.3286018371582031,-0.18851052224636078
1772537144013912600,7.12091259765625,0.5082328915596008,-0.6027958393096924,-0.49597087502479553
1772537144023960600,7.130960693359375,0.46519404649734497,-0.8850739002227783,-0.7233611345291138
1772537144034008600,7.141008544921875,0.36075258255004883,-0.9697062373161316,-0.7781344056129456
1772537144044057600,7.1510576171875,0.10029570758342743,-0.8010532855987549,-0.5940007567405701
1772537144054105600,7.161105712890625,-0.2539483904838562,-0.5628657341003418,-0.24996909499168396
1772537144064153600,7.171153564453125,-0.6016578674316406,-0.33160749077796936,0.13982102274894714
1772537144074202400,7.181202392578125,-0.8642133474349976,-0.18989376723766327,0.4271595776081085
1772537144084250000,7.19125,-1.0042732954025269,-0.21652857959270477,0.5877242088317871
1772537144094298000,7.201298095703125,-1.0382556915283203,-0.33518946170806885,0.6910240054130554
1772537144104347100,7.21134716796875,-1.0148552656173706,-0.3622700572013855,0.7685448527336121
1772537144114395100,7.22139501953125,-0.9499282240867615,-0.3033124804496765,0.8438507914543152
1772537144124443400,7.231443359375,-0.85738205909729,-0.24269306659698486,0.9747598171234131
1772537144134492200,7.2414921875,-0.7445101141929626,-0.1684100478887558,1.1586074829101562
1772537144144540400,7.25154052734375,-0.5802782773971558,-0.09660083800554276,1.341843843460083
1772537144154588200,7.261588134765625,-0.3643249571323395,-0.012800217606127262,1.4791936874389648
1772537144164637400,7.271637451171875,-0.11436758935451508,0.0693279430270195,1.5403037071228027
1772537144174685200,7.281685302734375,0.11581475287675858,0.160548135638237,1.4973154067993164
1772537144184733200,7.291733154296875,0.2934478521347046,0.18992146849632263,1.4005380868911743
1772537144194782200,7.3017822265625,0.3850307762622833,0.1174110472202301,1.2688080072402954
1772537144204830200,7.311830322265625,0.4033184349536896,0.056102681905031204,1.0819180011749268
1772537144214878200,7.321878173828125,0.35746172070503235,0.07235994935035706,0.8548967838287354
1772537144224927200,7.33192724609375,0.279746949672699,0.1796637773513794,0.6208169460296631
1772537144234975000,7.34197509765625,0.20403355360031128,0.3669678866863251,0.36572712659835815
1772537144245023200,7.352023193359375,0.15604153275489807,0.5480977296829224,0.13446833193302155
1772537144255072000,7.362072021484375,0.11503497511148453,0.5903487801551819,-0.029990389943122864
1772537144265120300,7.372120361328125,0.11414894461631775,0.5500988364219666,-0.23928502202033997
1772537144275168300,7.382168212890625,0.11922413110733032,0.46619221568107605,-0.5561151504516602
1772537144285217300,7.39221728515625,0.05213484168052673,0.23957876861095428,-0.9272133708000183
1772537144295265300,7.402265380859375,-0.042866773903369904,-0.08617988973855972,-1.3058279752731323
1772537144305313000,7.41231298828125,-0.13606835901737213,-0.47077709436416626,-1.6447522640228271
1772537144315362300,7.4223623046875,-0.1695040762424469,-0.725130558013916,-1.960508108139038
1772537144325410000,7.43241015625,-0.05528536066412926,-0.6844297051429749,-2.204623222351074
1772537144335458300,7.442458251953125,0.20742535591125488,-0.43584734201431274,-2.2868118286132812
1772537144345507000,7.452507080078125,0.4561214745044708,-0.14519047737121582,-2.203545570373535
1772537144355555300,7.462555419921875,0.4760352373123169,0.15563566982746124,-2.1061878204345703
1772537144365603300,7.472603271484375,0.25272759795188904,0.4212431013584137,-2.042257308959961
1772537144375651000,7.482651123046875,-0.09136559814214706,0.5425556898117065,-1.8998175859451294
1772537144385700400,7.492700439453125,-0.36140453815460205,0.5371910333633423,-1.663285732269287
1772537144395748000,7.502748046875,-0.5259141325950623,0.515774667263031,-1.3665145635604858
1772537144405796400,7.51279638671875,-0.6409091353416443,0.42347216606140137,-0.9945143461227417
1772537144415845000,7.52284521484375,-0.7392882108688354,0.312320351600647,-0.5566105246543884
1772537144425893400,7.532893310546875,-0.7582831978797913,0.19485364854335785,-0.08275080472230911
1772537144435941000,7.542941162109375,-0.6648699045181274,0.10594400763511658,0.4270261526107788
1772537144445990400,7.552990478515625,-0.4231856167316437,0.10993129760026932,0.8403593897819519
1772537144456038100,7.5630380859375,-0.08465203642845154,0.0957568883895874,1.1019023656845093
1772537144466086100,7.573086181640625,0.23969940841197968,0.05895253270864487,1.1956706047058105
1772537144476135200,7.58313525390625,0.49037742614746094,0.0985441505908966,1.0928236246109009
1772537144486183200,7.59318310546875,0.6622583866119385,0.18679144978523254,0.7790084481239319
1772537144496231400,7.6032314453125,0.7893772125244141,0.24060088396072388,0.3080925941467285
1772537144506280200,7.6132802734375,0.8205319046974182,0.2018665373325348,-0.17581763863563538
1772537144516328400,7.623328369140625,0.7134672403335571,0.07165234535932541,-0.5635715126991272
1772537144526376200,7.633376220703125,0.5082075595855713,-0.12891803681850433,-0.8252710103988647
1772537144536425200,7.64342529296875,0.26036182045936584,-0.29045793414115906,-0.9157811999320984
1772537144546473200,7.65347314453125,0.015529957599937916,-0.2919895052909851,-0.8484532833099365
1772537144556521200,7.663521240234375,-0.22923052310943604,-0.15140576660633087,-0.7053882479667664
1772537144566569200,7.6735693359375,-0.4658347964286804,0.020081833004951477,-0.5443171262741089
1772537144576618200,7.6836181640625,-0.6640722751617432,0.13651949167251587,-0.4057597517967224
1772537144586666000,7.693666015625,-0.84400475025177,0.1691804975271225,-0.2622305452823639
1772537144596714200,7.70371435546875,-0.9691511988639832,0.1557437926530838,-0.11353348940610886
1772537144606763000,7.713762939453125,-1.0538320541381836,0.16183577477931976,0.0488429069519043
1772537144616811300,7.723811279296875,-1.115509271621704,0.17710207402706146,0.2742142379283905
1772537144626859300,7.733859375,-1.1375486850738525,0.12616859376430511,0.5987159013748169
1772537144636908300,7.743908203125,-1.1288807392120361,0.01452807616442442,1.0362460613250732
1772537144646956300,7.753956298828125,-1.1084494590759277,-0.050941742956638336,1.5062288045883179
1772537144657004000,7.764004150390625,-1.0410517454147339,-0.0466439351439476,1.8849196434020996
1772537144667053300,7.77405322265625,-0.8939515352249146,0.03062395565211773,2.1057651042938232
1772537144677101000,7.78410107421875,-0.6648017168045044,0.15868417918682098,2.1528546810150146
1772537144687149300,7.7941494140625,-0.3986307382583618,0.26846635341644287,2.0767929553985596
1772537144697198000,7.804197998046875,-0.15426626801490784,0.3579147458076477,1.9055216312408447
1772537144707246300,7.814246337890625,0.021888520568609238,0.45103615522384644,1.6295017004013062
1772537144717294300,7.82429443359375,0.10865937173366547,0.5351824760437012,1.324812889099121
1772537144727343400,7.83434326171875,0.13788063824176788,0.534149706363678,1.0600075721740723
1772537144737391400,7.844391357421875,0.053774282336235046,0.4556540846824646,0.8419594168663025
1772537144747439000,7.854439208984375,-0.09839394688606262,0.45096078515052795,0.6030009388923645
1772537144757488000,7.864488037109375,-0.19288423657417297,0.5484572649002075,0.2989715337753296
1772537144767536000,7.8745361328125,-0.16824093461036682,0.6140820384025574,-0.046715572476387024
1772537144777584400,7.88458447265625,-0.07088162750005722,0.03664403036236763,-0.48625272512435913
1772537144787633200,7.894633056640625,0.044746965169906616,0.17170225083827972,-1.1053463220596313
1772537144797681400,7.904681396484375,0.1518353372812271,0.11740732192993164,-1.6820138692855835
1772537144807729200,7.914729248046875,0.18334878981113434,-0.5803531408309937,-2.1232125759124756
1772537144817778200,7.924778076171875,0.2937104403972626,-1.1969183683395386,-2.4594016075134277
1772537144827826200,7.934826171875,0.583627462387085,-1.417453646659851,-2.7003629207611084
1772537144837874200,7.944874267578125,0.9281212091445923,-1.3471919298171997,-2.724766492843628
1772537144847922400,7.95492236328125,1.1493688821792603,-1.0798367261886597,-2.493007183074951
1772537144857971200,7.96497119140625,1.0307629108428955,-0.7388724684715271,-1.987488865852356
1772537144868019200,7.975019287109375,0.6385165452957153,-0.3822168707847595,-1.3854973316192627
1772537144878067200,7.985067138671875,0.25735536217689514,-0.020065587013959885,-0.8257450461387634
1772537144888116200,7.9951162109375,0.005228317808359861,0.23983070254325867,-0.380456805229187
1772537144898164200,8.005164306640625,-0.1961255669593811,0.38773149251937866,-0.09676169604063034
1772537144908212200,8.015212158203125,-0.41215479373931885,0.42282769083976746,0.06474544107913971
1772537144918261200,8.02526123046875,-0.6087077856063843,0.31247562170028687,0.12962830066680908
1772537144928309200,8.035309326171875,-0.6933239102363586,0.09145987778902054,0.11835087835788727
1772537144938357000,8.04535693359375,-0.6535080075263977,-0.09428602457046509,0.11197394132614136
1772537144948406300,8.05540625,-0.514732837677002,-0.23482608795166016,0.16386723518371582
1772537144958454000,8.0654541015625,-0.28722432255744934,-0.2529803216457367,0.23156239092350006
1772537144968502300,8.075502197265624,-0.044431645423173904,-0.20444688200950623,0.30365708470344543
1772537144978551000,8.085551025390625,0.18574616312980652,-0.16329625248908997,0.33630263805389404
1772537144988599300,8.095599365234374,0.34376534819602966,-0.1443968564271927,0.25866377353668213
1772537144998647300,8.105647216796875,0.4169516861438751,-0.1560700237751007,0.000024767397917457856
1772537145008696300,8.1156962890625,0.4490337371826172,-0.13497300446033478,-0.4296877086162567
1772537145018744300,8.125744384765625,0.4226186275482178,-0.17353610694408417,-0.9852550625801086
1772537145028792000,8.1357919921875,0.33320167660713196,-0.357406347990036,-1.521329641342163
1772537145038841300,8.14584130859375,0.2398136556148529,-0.5430212020874023,-1.8709251880645752
1772537145048889000,8.15588916015625,0.12794651091098785,-0.6044718027114868,-1.8856256008148193
1772537145058937300,8.165937255859374,-0.006238987669348717,-0.5183219909667969,-1.5784446001052856
1772537145068986000,8.175986083984375,-0.11635857075452805,-0.42436087131500244,-1.0666553974151611
1772537145079035600,8.18603564453125,-0.17507220804691315,-0.31552278995513916,-0.4082644581794739
1772537145089083400,8.19608349609375,-0.20499096810817719,-0.15361139178276062,0.24610111117362976
1772537145099132400,8.20613232421875,-0.2752837836742401,0.031075628474354744,0.7927277088165283
1772537145109180400,8.216180419921875,-0.4188220202922821,0.11052011698484421,1.192189335823059
1772537145119228400,8.226228515625,-0.597293496131897,0.09279065579175949,1.4496126174926758
1772537145129276400,8.2362763671875,-0.7567143440246582,-0.02961328625679016,1.6640738248825073
1772537145139325400,8.246325439453125,-0.8313624262809753,-0.21310561895370483,1.8824365139007568
1772537145149373400,8.25637353515625,-0.8134228587150574,-0.3604236841201782,2.1114163398742676
1772537145159421400,8.26642138671875,-0.7003974914550781,-0.37210512161254883,2.261864423751831
1772537145169470500,8.276470458984376,-0.5060765147209167,-0.31583359837532043,2.258310556411743
1772537145179518500,8.2865185546875,-0.26514458656311035,-0.2522096037864685,2.109401226043701
1772537145189566500,8.29656640625,-0.07648731768131256,-0.16804839670658112,1.8528863191604614
1772537145199615500,8.306615478515624,0.03671114146709442,-0.05489227548241615,1.491721749305725
1772537145209663500,8.31666357421875,0.06130011007189751,0.004733236040920019,1.078917145729065
1772537145219711500,8.32671142578125,0.0006759102689102292,0.0689803957939148,0.6627129912376404
1772537145229760500,8.336760498046875,-0.07770518213510513,0.1837455928325653,0.31991007924079895
1772537145239808500,8.34680859375,-0.12182337045669556,0.44874611496925354,0.14290443062782288
1772537145249856500,8.3568564453125,-0.15778669714927673,0.7437964081764221,0.026197781786322594
1772537145259905500,8.366905517578125,-0.11518837511539459,0.9345642328262329,-0.11749573796987534
1772537145269953500,8.37695361328125,0.015211709775030613,0.9797891974449158,-0.26727938652038574
1772537145280001300,8.387001220703125,0.13605263829231262,0.9641727209091187,-0.4754706621170044
1772537145290050600,8.397050537109376,0.21674935519695282,0.8405652642250061,-0.6610106825828552
1772537145300098300,8.407098388671875,0.2519768476486206,0.5535116791725159,-0.7319839596748352
1772537145310146600,8.417146484375,0.2576959729194641,0.15393896400928497,-0.7621080279350281
1772537145320195300,8.4271953125,0.30453699827194214,-0.2530178725719452,-0.8696227669715881
1772537145330243300,8.437243408203125,0.37352457642555237,-0.48721519112586975,-1.0962098836898804
1772537145340291600,8.44729150390625,0.4443894326686859,-0.4932214319705963,-1.3682570457458496
1772537145350340400,8.45734033203125,0.4997142255306244,-0.3533135950565338,-1.5286328792572021
1772537145360388600,8.467388671875,0.46125656366348267,-0.10016361624002457,-1.5172505378723145
1772537145370436400,8.477436279296874,0.26003319025039673,0.21355515718460083,-1.4046515226364136
1772537145380484600,8.487484619140625,0.014505705796182156,0.3682264983654022,-1.2997184991836548
1772537145390533400,8.497533447265624,-0.14360962808132172,0.2932435870170593,-1.1373604536056519
1772537145400581400,8.507581298828125,-0.1405736207962036,0.15799681842327118,-0.8741434812545776
1772537145410629600,8.517629638671876,-0.09297122061252594,0.11215610057115555,-0.5473414063453674
1772537145420678400,8.527678466796875,-0.0780165046453476,0.08391567319631577,-0.2803365886211395
1772537145430726700,8.5377265625,-0.08932828158140182,-0.050807252526283264,-0.17512734234333038
1772537145440774400,8.5477744140625,-0.1127752810716629,-0.1721845418214798,-0.15552061796188354
1772537145450823400,8.557823486328125,-0.13712669909000397,-0.1669008433818817,-0.14682753384113312
1772537145460871400,8.567871337890624,-0.10949453711509705,-0.06465329229831696,-0.09323061257600784
1772537145470919400,8.57791943359375,-0.007667240686714649,0.061356302350759506,0.0016314524691551924
1772537145480968400,8.587968505859376,0.14385703206062317,0.1770903617143631,0.12834545969963074
1772537145491016400,8.598016357421875,0.26005154848098755,0.2429380863904953,0.20969223976135254
1772537145501064400,8.608064453125,0.3564518690109253,0.27801084518432617,0.18383881449699402
1772537145511113500,8.618113525390624,0.4291963577270508,0.21693284809589386,0.07062942534685135
1772537145521161500,8.628161376953125,0.471353679895401,0.0593474805355072,-0.11294013261795044
1772537145531209500,8.63820947265625,0.5073172450065613,-0.15038684010505676,-0.32253116369247437
1772537145541258500,8.648258544921875,0.5392912030220032,-0.32712167501449585,-0.5347936153411865
1772537145551306500,8.658306396484376,0.5193901658058167,-0.4368084967136383,-0.6811122298240662
1772537145561354500,8.6683544921875,0.4466613829135895,-0.46807852387428284,-0.7083204388618469
1772537145571403500,8.678403564453125,0.3005363941192627,-0.4224071800708771,-0.6444399952888489
1772537145581451500,8.688451416015624,0.10769237577915192,-0.31452757120132446,-0.4866173267364502
1772537145591499500,8.69849951171875,-0.0723612830042839,-0.3171505331993103,-0.3118079602718353
1772537145601547500,8.708547607421876,-0.2185501754283905,-0.4158693850040436,-0.1761566549539566
1772537145611596500,8.718596435546875,-0.3703998923301697,-0.5268976092338562,0.005391569808125496
1772537145621644500,8.72864453125,-0.48899444937705994,-0.4868290424346924,0.3078795373439789
1772537145631692300,8.7386923828125,-0.5149579048156738,-0.3791300058364868,0.6778978109359741
1772537145641741600,8.748741455078125,-0.42792898416519165,-0.3675900101661682,1.0755820274353027
1772537145651789300,8.758789306640624,-0.22308021783828735,-0.41235479712486267,1.4248127937316895
1772537145661837600,8.768837646484375,-0.043592218309640884,-0.4175730049610138,1.6924185752868652
1772537145671886300,8.77888623046875,0.05241740122437477,-0.28404396772384644,1.7926626205444336
1772537145681934300,8.788934326171875,0.05716634914278984,-0.14673751592636108,1.6520283222198486
1772537145691982600,8.798982666015625,0.05760497227311134,-0.2022913247346878,1.4559378623962402
1772537145702031400,8.80903125,0.08593275398015976,-0.3100510835647583,1.2726770639419556
1772537145712079600,8.81907958984375,0.10307791829109192,-0.32282277941703796,1.154973030090332
1772537145722127400,8.82912744140625,0.0960351824760437,-0.2306060492992401,1.0403063297271729
1772537145732176600,8.8391767578125,0.10170771926641464,-0.10442893952131271,0.9775617122650146
1772537145742224400,8.849224365234376,0.06877107173204422,0.04326944425702095,0.912075400352478
1772537145752272400,8.8592724609375,-0.01432567648589611,0.18465933203697205,0.7624041438102722
