time,seconds_elapsed,z,y,x
1772572958949704000,0.201703857421875,-1.7250394821166992,-1.4331111907958984,0.4596205949783325
1772572958967538700,0.21953857421875,-1.8581452369689941,-1.9794437885284424,0.30190932750701904
1772572958985364500,0.237364501953125,-1.8306961059570312,-2.9349398612976074,0.16238504648208618
1772572959003208000,0.2552080078125,-2.2566909790039062,-3.5233187675476074,0.4767265021800995
1772572959021042700,0.273042724609375,-2.537893295288086,-3.275928497314453,1.148952603340149
1772572959038878000,0.2908779296875,-2.0563411712646484,-3.3443896770477295,1.4761297702789307
1772572959056713000,0.308712890625,-0.8730554580688477,-4.121521472930908,1.4735714197158813
1772572959074547500,0.32654736328125,0.8666391372680664,-4.5994086265563965,1.4699736833572388
1772572959092382200,0.34438232421875,1.2982311248779297,-4.59793758392334,1.1645574569702148
1772572959110217000,0.362217041015625,0.20750999450683594,-3.831671714782715,0.8126144409179688
1772572959128052200,0.38005224609375,-0.1289529800415039,-1.7991647720336914,0.32844632863998413
1772572959145885700,0.3978857421875,0.3808622360229492,0.42220258712768555,0.8776707649230957
1772572959163722800,0.41572265625,2.598240852355957,2.120579242706299,0.9741299748420715
1772572959188381400,0.44038134765625,10.784368515014648,2.748015880584717,2.579951286315918
1772572959206080000,0.458080078125,15.12164306640625,2.7892379760742188,5.000521659851074
1772572959223915000,0.4759150390625,13.925363540649414,2.7609963417053223,2.1598167419433594
1772572959241750000,0.49375,10.349377632141113,3.3013219833374023,-0.757670521736145
1772572959259584300,0.511584228515625,6.386761665344238,6.755295753479004,-0.19694840908050537
1772572959277419500,0.52941943359375,0.6890215873718262,9.89046859741211,-0.11804109811782837
1772572959295254500,0.547254638671875,-1.3276057243347168,8.973859786987305,-0.08992999792098999
1772572959313089500,0.565089599609375,0.1185617446899414,6.308828830718994,1.156159520149231
1772572959330923800,0.582923828125,1.8491802215576172,3.4200520515441895,1.896215558052063
1772572959348758800,0.6007587890625,2.4362964630126953,0.31917905807495117,1.1855547428131104
1772572959366594300,0.61859423828125,0.7616639137268066,-1.8752059936523438,-0.7395443320274353
1772572959384414700,0.636414794921875,-2.322568416595459,-2.8356850147247314,-1.452060341835022
1772572959402269400,0.65426953125,-3.694331169128418,-3.883591413497925,0.485824853181839
1772572959420085000,0.6720849609375,-1.8570585250854492,-3.132739543914795,0.8590259552001953
1772572959437934300,0.689934326171875,-0.976290225982666,-2.880157709121704,0.5670735836029053
1772572959455755300,0.70775537109375,-0.8003864288330078,-3.3537814617156982,0.02593325823545456
1772572959473602800,0.725602783203125,-1.4526433944702148,-3.604541301727295,-0.6726990342140198
1772572959491425300,0.74342529296875,-2.831653594970703,-3.8041484355926514,-0.8307727575302124
1772572959509263600,0.761263671875,-4.504878997802734,-3.599569320678711,-0.9224022626876831
1772572959527096800,0.779096923828125,-5.489401817321777,-3.7403440475463867,-0.7266378402709961
1772572959544941600,0.796941650390625,-4.182457447052002,-3.8562846183776855,-1.0325382947921753
1772572959562776300,0.8147763671875,-3.38260555267334,-3.8869118690490723,-0.6015233993530273
1772572959580611300,0.832611328125,-3.2453064918518066,-3.4067611694335938,0.136829674243927
1772572959598445600,0.850445556640625,-3.470266819000244,-3.251213550567627,0.041194796562194824
1772572959616280000,0.868280029296875,-3.115074634552002,-3.913182497024536,-0.6942696571350098
1772572959634118100,0.8861181640625,-2.492459297180176,-5.318497180938721,-1.111501932144165
1772572959651950000,0.9039501953125,-3.4961421489715576,-5.993885040283203,-0.8804838061332703
1772572959669785600,0.92178564453125,-3.7066636085510254,-5.335358619689941,-0.7920871376991272
1772572959687619800,0.939619873046875,-2.364086627960205,-4.096070766448975,-0.7013629078865051
1772572959705455400,0.957455322265625,-3.1608166694641113,-3.2562413215637207,-0.9010201692581177
1772572959723289900,0.975289794921875,-6.008803367614746,-2.521850109100342,-0.6933575868606567
1772572959741124600,0.99312451171875,-6.550446510314941,-2.115952968597412,0.1919843852519989
1772572959758959000,1.010958984375,-2.288221836090088,-1.1931109428405762,0.30438172817230225
1772572959776794600,1.028794677734375,2.156740188598633,0.08201360702514648,1.0048171281814575
1772572959794629400,1.04662939453125,5.899091720581055,1.771775245666504,2.8908705711364746
1772572959812464000,1.064464111328125,6.134641170501709,3.19063663482666,2.2509448528289795
1772572959830298400,1.08229833984375,4.884076118469238,4.491222858428955,0.14870482683181763
1772572959848129500,1.100129638671875,7.661754608154297,6.0425825119018555,0.5955513715744019
1772572959865968400,1.117968505859375,10.532453536987305,7.012505054473877,2.105452537536621
1772572959883803400,1.135803466796875,8.947534561157227,6.8302717208862305,-0.7077720165252686
1772572959901638000,1.153637939453125,7.283379077911377,4.4890875816345215,-4.040571689605713
1772572959919473000,1.171472900390625,7.1788153648376465,3.1179280281066895,-2.573700428009033
1772572959937308000,1.189307861328125,7.714633464813232,4.243496417999268,0.6277047395706177
1772572959955143000,1.207142822265625,7.571331977844238,3.9359755516052246,1.9973559379577637
1772572959972977400,1.224977294921875,5.735272407531738,2.685342311859131,1.902369737625122
1772572959990812000,1.24281201171875,2.4899001121520996,2.1168432235717773,2.580871105194092
1772572960008646700,1.260646728515625,-1.532071590423584,1.5097393989562988,2.248253107070923
1772572960026482000,1.27848193359375,-4.415521621704102,0.2190260887145996,1.914613127708435
1772572960044316400,1.29631640625,-5.473527431488037,-1.092855453491211,0.8309012651443481
1772572960062151400,1.3141513671875,-4.2341156005859375,-1.9382073879241943,0.12940168380737305
1772572960079984600,1.331984619140625,-3.557583808898926,-2.363863945007324,0.11411982774734497
1772572960097822700,1.34982275390625,-2.8684592247009277,-2.8661677837371826,0.1626548022031784
1772572960115655700,1.36765576171875,-2.061152458190918,-3.854196548461914,-0.03332703188061714
1772572960133491000,1.385490966796875,-2.2079591751098633,-4.292618274688721,-0.1828770488500595
1772572960151325700,1.40332568359375,-2.6931772232055664,-3.43068265914917,-0.07742521911859512
1772572960169160400,1.421160400390625,-3.164867877960205,-2.543309211730957,0.09495438635349274
1772572960186995000,1.438994873046875,-2.8647422790527344,-2.673917055130005,-0.4418802261352539
1772572960204829700,1.45682958984375,-2.8643994331359863,-3.713193893432617,-0.8700973391532898
1772572960222664700,1.474664794921875,-3.298492431640625,-4.425244331359863,-0.7905422449111938
1772572960240500200,1.492500244140625,-3.1318092346191406,-5.12900447845459,-0.9634195566177368
1772572960258334000,1.510333984375,-3.949289321899414,-4.832324981689453,-0.14121991395950317
1772572960276169500,1.52816943359375,-4.51280403137207,-3.437749147415161,1.031653881072998
1772572960294004200,1.546004150390625,-4.781723976135254,-3.0574209690093994,1.1312904357910156
1772572960311839200,1.563839111328125,-4.949164867401123,-3.9233450889587402,0.7257359027862549
1772572960329673500,1.581673583984375,-4.210806846618652,-4.194918632507324,0.5912685394287109
1772572960347508500,1.599508544921875,-2.429403781890869,-3.2707252502441406,0.6490097045898438
1772572960365343500,1.617343505859375,-2.722087860107422,-2.253108024597168,0.5206915736198425
1772572960383178200,1.63517822265625,-4.623400688171387,-1.0364294052124023,0.42806577682495117
1772572960401012700,1.6530126953125,-2.8318724632263184,0.870110034942627,1.418239951133728
1772572960418847500,1.670847412109375,2.830641269683838,3.359748363494873,1.9534351825714111
1772572960436682800,1.688682861328125,8.343183517456055,2.818866729736328,2.060906171798706
1772572960454517800,1.706517822265625,12.226644515991211,1.0374536514282227,1.5194077491760254
1772572960472352500,1.7243525390625,13.709716796875,1.2448101043701172,1.7833380699157715
1772572960490187000,1.74218701171875,10.864056587219238,3.9155492782592773,2.3474130630493164
1772572960508022000,1.76002197265625,7.761099338531494,6.615942001342773,2.09490704536438
1772572960525856800,1.777856689453125,4.7341837882995605,8.009904861450195,0.899728536605835
1772572960543690800,1.795690673828125,5.451021671295166,7.699929714202881,1.3989284038543701
1772572960561526800,1.81352685546875,6.390427589416504,5.378373146057129,1.7072480916976929
1772572960579361800,1.83136181640625,7.194431304931641,1.8744349479675293,0.25362497568130493
1772572960597195800,1.84919580078125,6.693957328796387,-0.3585481643676758,-0.7505739331245422
1772572960615030800,1.86703076171875,3.3632965087890625,-1.0530219078063965,-0.728272020816803
1772572960632865800,1.88486572265625,-0.13917255401611328,-0.6689152717590332,0.49432438611984253
1772572960650700300,1.9027001953125,-2.1022720336914062,0.37843799591064453,1.7217769622802734
1772572960668535300,1.920535400390625,-4.347614288330078,0.30591344833374023,2.3296384811401367
1772572960686369800,1.938369873046875,-5.528902053833008,-0.725921630859375,1.6245324611663818
1772572960704204800,1.956204833984375,-4.766703128814697,-2.5083999633789062,0.5139991044998169
1772572960722038000,1.9740380859375,-3.392803192138672,-3.7821297645568848,-0.18779873847961426
1772572960739872300,1.991872314453125,-3.182880401611328,-4.337975025177002,-0.5772165060043335
1772572960757708500,2.00970849609375,-3.1982169151306152,-4.127962589263916,-0.6118790507316589
1772572960775544600,2.027544677734375,-4.290524482727051,-3.305433988571167,-0.24318945407867432
1772572960793379300,2.04537939453125,-5.0866780281066895,-2.6851837635040283,0.157950296998024
1772572960811212300,2.06321240234375,-4.626958847045898,-2.85306978225708,-0.12210673093795776
1772572960829050000,2.081050048828125,-4.962710857391357,-3.2546451091766357,-0.4682062566280365
1772572960846884000,2.098884033203125,-5.1365861892700195,-3.1875038146972656,-0.20917825400829315
1772572960864718600,2.116718505859375,-4.727436542510986,-3.0620765686035156,0.45771723985671997
1772572960882553300,2.13455322265625,-4.096184730529785,-3.217254638671875,0.7989205121994019
1772572960900387800,2.152387939453125,-4.114049434661865,-3.1590585708618164,1.3194389343261719
1772572960918208800,2.170208740234375,-4.3409881591796875,-3.248340606689453,0.9425301551818848
1772572960936059600,2.1880595703125,-5.288317680358887,-3.5936524868011475,0.5020738244056702
1772572960953892400,2.205892333984375,-3.4025940895080566,-3.236516237258911,0.3486732542514801
1772572960971728400,2.223728271484375,-2.397305488586426,-2.1371710300445557,0.10554907470941544
1772572960989562000,2.24156201171875,-3.452305316925049,-0.7409148216247559,0.9515902996063232
1772572961007397000,2.259397216796875,-1.4342670440673828,0.7577309608459473,3.2786290645599365
1772572961025232100,2.277232177734375,2.298398017883301,1.1923604011535645,3.1528549194335938
1772572961043066600,2.295066650390625,7.355560302734375,-0.31586122512817383,1.986806869506836
1772572961060901600,2.312901611328125,10.820836067199707,-0.7219414710998535,1.6238980293273926
1772572961078736400,2.330736328125,8.634607315063477,0.7117795944213867,1.0059884786605835
1772572961096571600,2.348571533203125,6.08284330368042,3.0340523719787598,1.1058602333068848
1772572961114406100,2.36640625,10.056008338928223,4.175154685974121,1.587803602218628
1772572961132241200,2.3842412109375,10.076300621032715,5.146420478820801,1.3513233661651611
1772572961150075600,2.40207568359375,6.647266864776611,6.290247440338135,-0.10054123401641846
1772572961167896000,2.41989599609375,7.454469203948975,5.96013069152832,-1.133777141571045
1772572961185740000,2.437739990234375,7.52957820892334,4.902812957763672,-1.3124792575836182
1772572961203580400,2.455580322265625,6.226551055908203,4.103694915771484,-0.7716081142425537
1772572961221399600,2.473399658203125,4.509235382080078,3.492678642272949,-0.3594914674758911
1772572961239250000,2.49125,2.680830955505371,2.3574743270874023,-0.29658299684524536
1772572961257084700,2.509084716796875,0.038863182067871094,1.0566534996032715,0.12434647977352142
1772572961274920000,2.526919921875,-2.236940383911133,-0.11648988723754883,0.8372377157211304
1772572961292754700,2.544754638671875,-3.49249267578125,-1.3189682960510254,0.9768726229667664
1772572961310589400,2.56258935546875,-4.348355293273926,-1.4132633209228516,1.4543956518173218
1772572961328424000,2.580423828125,-4.339356422424316,-0.06862878799438477,2.8538460731506348
1772572961346259200,2.59825927734375,-4.10082483291626,0.6334676742553711,3.057684898376465
1772572961364094000,2.616093994140625,-4.519372463226318,-0.6433119773864746,1.3801836967468262
1772572961381927700,2.633927734375,-5.259011268615723,-2.5154144763946533,-0.9925881624221802
1772572961399763500,2.651763427734375,-4.92018985748291,-3.7276089191436768,-2.1105761528015137
1772572961417600800,2.669600830078125,-3.865980625152588,-4.229038238525391,-2.1869044303894043
1772572961435433000,2.687432861328125,-2.7085084915161133,-4.048545837402344,-1.3403453826904297
1772572961453267500,2.705267333984375,-2.839341163635254,-3.1364052295684814,-0.3003828525543213
1772572961471103700,2.723103759765625,-4.296025276184082,-2.6455395221710205,-0.16298359632492065
1772572961488924400,2.74092431640625,-4.662606716156006,-3.765048027038574,-0.9192200303077698
1772572961506761000,2.758760986328125,-4.441967010498047,-4.995619297027588,-1.504239559173584
1772572961524598300,2.776598388671875,-4.252577304840088,-5.6220245361328125,-1.5080506801605225
1772572961542442000,2.79444189453125,-4.607118606567383,-5.504101276397705,-1.0272696018218994
1772572961560277000,2.812277099609375,-4.471410751342773,-5.196438312530518,-0.6935608386993408
1772572961578108400,2.8301083984375,-4.907596588134766,-4.878864288330078,0.2124004364013672
1772572961595947000,2.847947021484375,-5.204320430755615,-4.5886125564575195,-0.2212790846824646
1772572961613782500,2.865782470703125,-3.945063352584839,-4.94966983795166,-0.7962379455566406
1772572961631616000,2.883615966796875,-4.512526512145996,-5.165594100952148,-0.38868629932403564
1772572961649451500,2.901451416015625,-4.632167339324951,-2.3437328338623047,2.3357748985290527
1772572961667286300,2.919286376953125,-0.13379192352294922,2.768608570098877,4.1317219734191895
1772572961685118700,2.93711865234375,6.018978118896484,5.106746196746826,5.0784173011779785
1772572961702956000,2.9549560546875,10.311245918273926,4.082633018493652,4.483377456665039
1772572961720790800,2.972790771484375,12.672453880310059,3.3301033973693848,2.3674094676971436
1772572961738625500,2.99062548828125,13.598215103149414,3.2391929626464844,0.5228843688964844
1772572961756460500,3.00846044921875,13.064958572387695,3.7751522064208984,-0.7877535820007324
1772572961774295600,3.026295654296875,10.00024127960205,5.532195568084717,-1.3910207748413086
1772572961792130300,3.04413037109375,7.198928356170654,7.877265453338623,-0.911124587059021
1772572961809965000,3.061965087890625,8.053715705871582,9.557844161987305,0.1360953152179718
1772572961827799800,3.0797998046875,7.755234241485596,8.917163848876953,0.25698456168174744
1772572961845634800,3.097634765625,6.867403030395508,6.944808483123779,0.44959717988967896
1772572961863469600,3.115469482421875,7.130176544189453,4.000230312347412,-0.18627022206783295
1772572961881302800,3.133302734375,6.297275066375732,1.3939776420593262,-0.8665248155593872
1772572961899140600,3.151140625,3.3304295539855957,1.1308069229125977,-0.5346679091453552
1772572961916974300,3.168974365234375,-0.9279003143310547,1.0936360359191895,-0.4000522494316101
1772572961934809300,3.186809326171875,-3.079136371612549,0.9091458320617676,0.09531307220458984
1772572961952644000,3.20464404296875,-1.445974349975586,0.27128171920776367,0.9347991943359375
1772572961970478300,3.222478271484375,-0.444796085357666,-1.1964216232299805,0.7728904485702515
1772572961988313300,3.240313232421875,-0.9902501106262207,-2.7753705978393555,-0.15320509672164917
1772572962006148000,3.258148193359375,-2.286444664001465,-3.5833241939544678,-0.4896668493747711
1772572962023983000,3.275983154296875,-4.003543853759766,-3.193673849105835,-0.001843571662902832
1772572962041818000,3.293818115234375,-5.748047828674316,-2.5815439224243164,0.17678582668304443
1772572962059652900,3.31165283203125,-5.377751350402832,-2.7204232215881348,0.18945211172103882
1772572962077486800,3.32948681640625,-4.515821933746338,-3.618605613708496,-0.010352373123168945
1772572962095307000,3.34730712890625,-3.83652663230896,-4.572657585144043,-0.19762584567070007
1772572962113145600,3.3651455078125,-4.348546981811523,-5.703793048858643,-0.530060350894928
1772572962130994000,3.382993896484375,-4.709841728210449,-6.156018257141113,-0.7083077430725098
1772572962148827100,3.4008271484375,-3.7871334552764893,-6.205804347991943,-0.5547035336494446
1772572962166662400,3.418662353515625,-3.419994831085205,-6.231068134307861,-0.3021395206451416
1772572962184490000,3.436489990234375,-3.119868755340576,-6.188088893890381,-0.16417503356933594
1772572962202331600,3.45433154296875,-3.308943510055542,-5.917318820953369,0.17009183764457703
1772572962220165000,3.4721650390625,-2.4322590827941895,-4.894309997558594,0.6889731287956238
1772572962238003700,3.490003662109375,-1.2765326499938965,-4.189262390136719,0.575365424156189
1772572962255836400,3.50783642578125,-2.5148112773895264,-3.6670241355895996,-0.7634314894676208
1772572962273671200,3.525671142578125,-4.51282262802124,-1.990342617034912,-1.6300182342529297
1772572962291506700,3.543506591796875,-1.141561508178711,0.34891462326049805,0.31354743242263794
1772572962309341000,3.5613408203125,1.5595474243164062,1.947831630706787,2.7461113929748535
1772572962327175700,3.57917578125,1.2248120307922363,2.1051316261291504,1.675994634628296
1772572962345010700,3.5970107421875,3.3895273208618164,1.418149471282959,-0.32710349559783936
1772572962362845400,3.614845458984375,4.030845642089844,2.3536815643310547,-0.3984183073043823
1772572962380680400,3.632680419921875,3.4022111892700195,4.576662540435791,0.06372976303100586
1772572962398515200,3.65051513671875,1.5453190803527832,7.0210394859313965,-0.6731173992156982
1772572962416350200,3.66835009765625,2.4788765907287598,10.632591247558594,0.8511499166488647
1772572962434185200,3.686185302734375,4.60459566116333,12.884547233581543,1.877892255783081
1772572962452020200,3.704020263671875,4.791391849517822,11.49116325378418,-0.36924636363983154
1772572962469854500,3.7218544921875,5.051900863647461,7.564023017883301,-2.852001190185547
1772572962487677200,3.73967724609375,5.574525356292725,5.251534938812256,-1.9994268417358398
1772572962505524200,3.757524169921875,6.269619941711426,4.4253692626953125,0.31999534368515015
1772572962523347000,3.775346923828125,3.370774745941162,2.2874245643615723,0.8392715454101562
1772572962541194000,3.793194091796875,-1.5952625274658203,-0.13886547088623047,0.602431058883667
1772572962559017000,3.811016845703125,-3.084446668624878,-1.467660903930664,0.9396389722824097
1772572962576864000,3.828864013671875,-3.870835781097412,-2.6179404258728027,1.4317691326141357
1772572962594699000,3.846698974609375,-3.586061954498291,-3.185030460357666,2.144364356994629
1772572962612533800,3.86453369140625,-0.7239217758178711,-3.324221134185791,2.1496448516845703
1772572962630368300,3.8823681640625,1.7904677391052246,-4.357413291931152,1.7099409103393555
1772572962648186600,3.9001865234375,1.300600528717041,-5.9929094314575195,0.45273709297180176
1772572962666038500,3.91803857421875,-1.412482738494873,-5.4625959396362305,-0.31994593143463135
1772572962683873000,3.935873046875,-4.827007293701172,-3.9173927307128906,0.4201204776763916
1772572962701708300,3.953708251953125,-4.820234298706055,-3.0088815689086914,1.5135657787322998
1772572962719541200,3.971541259765625,-3.9871110916137695,-3.911602735519409,1.417479395866394
1772572962737379600,3.989379638671875,-2.7728261947631836,-5.506692886352539,0.9066348671913147
1772572962755212800,4.007212890625,-2.0711255073547363,-6.657000541687012,0.5425097942352295
1772572962773047000,4.025047119140625,-2.471991539001465,-7.157519817352295,0.42001640796661377
1772572962790882000,4.042882080078125,-4.195096015930176,-6.938939571380615,0.7936350107192993
1772572962808717000,4.060717041015625,-5.962998390197754,-5.857811450958252,2.3761324882507324
1772572962826552800,4.078552734375,-6.1671037673950195,-5.915317535400391,3.1861319541931152
1772572962844386600,4.096386474609375,-5.599087715148926,-7.210391521453857,2.285519599914551
1772572962862210600,4.11421044921875,-5.009049415588379,-8.202339172363281,1.5824791193008423
1772572962880055300,4.13205517578125,-4.933309555053711,-7.93971061706543,1.4597246646881104
1772572962897891600,4.1498916015625,-5.034442901611328,-5.905275821685791,1.5475775003433228
1772572962915726600,4.1677265625,-2.887192726135254,-3.5217199325561523,2.3939056396484375
1772572962933561000,4.18556103515625,-0.07845354080200195,-2.1173901557922363,4.570774078369141
1772572962951396000,4.20339599609375,2.2033944129943848,-1.0129117965698242,3.621959686279297
1772572962969230800,4.22123095703125,2.1822433471679688,0.9125761985778809,-0.7007545232772827
1772572962987065900,4.23906591796875,3.1793365478515625,3.3769760131835938,-3.0782220363616943
1772572963004900600,4.256900634765625,5.2652482986450195,5.555826187133789,-2.399064540863037
1772572963022735400,4.2747353515625,6.867458820343018,8.668824195861816,-0.5796934366226196
1772572963040570000,4.292570068359375,6.88624382019043,10.532983779907227,-1.2332360744476318
1772572963058405400,4.3104052734375,8.692632675170898,10.625495910644531,-2.615079879760742
1772572963076240400,4.328240478515625,11.225335121154785,11.468072891235352,-1.1424617767333984
1772572963094075000,4.346074951171875,10.930402755737305,10.427892684936523,-0.25626420974731445
1772572963111909600,4.36390966796875,8.589790344238281,8.369528770446777,-0.26043325662612915
1772572963129732900,4.38173291015625,6.1445536613464355,7.291934490203857,1.513559103012085
1772572963147579400,4.399579345703125,3.6635403633117676,5.872838973999023,1.5171005725860596
1772572963165414100,4.4174140625,2.0959396362304688,2.7587380409240723,-0.7949596643447876
1772572963183249000,4.435248779296875,1.1240191459655762,-0.3691697120666504,-1.10374915599823
1772572963201083600,4.453083740234375,-0.2513003349304199,-1.4679508209228516,1.0332955121994019
1772572963218919200,4.470919189453125,-1.9298162460327148,-2.010249137878418,2.051499843597412
1772572963236753400,4.48875341796875,-2.884028434753418,-3.5877628326416016,0.917681097984314
1772572963254588700,4.506588623046875,-2.4198503494262695,-5.345820426940918,-0.47647184133529663
1772572963272423200,4.524423095703125,-3.4251718521118164,-6.299045562744141,-1.7295881509780884
1772572963290258200,4.542258056640625,-4.429349422454834,-6.354208946228027,-2.4255685806274414
1772572963308081000,4.560080810546875,-4.720119953155518,-5.053181171417236,-1.8464406728744507
1772572963325914400,4.577914306640625,-4.366333961486816,-3.2581236362457275,-0.3038264513015747
1772572963343760600,4.5957607421875,-3.4093432426452637,-2.1557159423828125,0.7196796536445618
1772572963361587000,4.6135869140625,-3.7122035026550293,-1.7172355651855469,1.1254987716674805
1772572963379432400,4.631432373046875,-4.01455020904541,-1.972951889038086,1.1645774841308594
1772572963397267200,4.64926708984375,-4.01552152633667,-2.6426219940185547,1.1164140701293945
1772572963415102500,4.6671025390625,-3.523499011993408,-3.2262701988220215,0.8888818621635437
1772572963432937200,4.684937255859375,-2.635502815246582,-3.9528965950012207,0.641981840133667
1772572963450771700,4.702771728515625,-2.4280190467834473,-4.574563980102539,0.3269386887550354
1772572963468607000,4.72060693359375,-2.642371654510498,-4.49885368347168,0.3795463442802429
1772572963486429400,4.738429443359375,-3.772562026977539,-3.979184627532959,0.4680938124656677
1772572963504264400,4.756264404296875,-5.289184093475342,-3.4521892070770264,0.7303802371025085
1772572963522100700,4.774100830078125,-5.366113662719727,-2.5115694999694824,1.0030288696289062
1772572963539946000,4.791946044921875,-3.5910420417785645,-1.219618320465088,0.8326383233070374
1772572963557785300,4.809785400390625,-3.4125900268554688,-0.8022232055664062,-0.3644351363182068
1772572963575615000,4.827614990234375,-3.73186993598938,-0.67822265625,0.01731020212173462
1772572963593450800,4.84545068359375,-0.14841794967651367,2.0306224822998047,1.2824852466583252
1772572963611285500,4.863285400390625,4.862981796264648,4.380749702453613,1.4723970890045166
1772572963629120500,4.88112060546875,8.478764533996582,3.87296724319458,0.6889612674713135
1772572963646955000,4.898955078125,11.300689697265625,2.9344663619995117,0.3866901397705078
1772572963664790300,4.916790283203125,12.743541717529297,4.1237406730651855,0.4408695101737976
1772572963682625000,4.934625,11.81718635559082,5.628621578216553,0.18329113721847534
1772572963700447500,4.952447509765625,8.994110107421875,7.3436808586120605,0.27895957231521606
1772572963718294500,4.97029443359375,8.652576446533203,9.310367584228516,0.5650997161865234
1772572963736129800,4.9881298828125,8.80457878112793,8.854758262634277,-0.5486292839050293
1772572963753964800,5.00596484375,7.420328140258789,6.582242965698242,-1.9458465576171875
1772572963800779300,5.052779296875,2.644336700439453,2.8934712409973145,0.173356294631958
1772572963818615000,5.070614990234375,0.12141084671020508,1.748856544494629,-0.21184468269348145
1772572963836449300,5.08844921875,-2.238926410675049,0.9187221527099609,-1.3071925640106201
1772572963854285000,5.10628515625,-3.2457432746887207,0.019340038299560547,-1.5187026262283325
1772572963872103400,5.124103515625,-3.3369369506835938,-1.240405559539795,-0.9767376184463501
1772572963889943000,5.141943115234375,-4.210904598236084,-2.2426304817199707,-0.1725720763206482
1772572963907788800,5.159788818359375,-4.861936569213867,-2.938016891479492,1.172987461090088
1772572963925617200,5.1776171875,-4.794933795928955,-3.2137818336486816,2.3110718727111816
1772572963943458300,5.195458251953125,-4.213810920715332,-3.290961742401123,2.5029563903808594
1772572963961293600,5.21329345703125,-4.549211025238037,-3.673654794692993,1.7394466400146484
1772572963979128300,5.23112841796875,-5.163651943206787,-4.517828941345215,0.5467179417610168
1772572963996963600,5.248963623046875,-5.3035664558410645,-5.454808235168457,-0.26152360439300537
1772572964014797800,5.2667978515625,-4.829747200012207,-5.824398517608643,-0.2939622402191162
1772572964032633000,5.284633056640625,-3.914998769760132,-5.693404674530029,0.25548112392425537
1772572964050454800,5.302454833984375,-3.009565830230713,-5.383187294006348,0.8436185121536255
1772572964068303000,5.32030322265625,-2.9908413887023926,-4.964752197265625,1.4408304691314697
1772572964086136000,5.338135986328125,-3.9738550186157227,-4.797101974487305,1.8499224185943604
1772572964103970300,5.35597021484375,-4.435848712921143,-4.77272891998291,2.2403957843780518
1772572964121806800,5.373806884765625,-2.6029348373413086,-5.1025495529174805,2.0992321968078613
1772572964139645200,5.391645263671875,-0.7235994338989258,-6.042876720428467,1.2012882232666016
1772572964157472500,5.409472412109375,-0.8726191520690918,-6.605296611785889,0.7459025382995605
1772572964175315700,5.427315673828125,-2.877192974090576,-5.477280139923096,1.1681935787200928
1772572964200287200,5.452287353515625,-2.397676467895508,-0.16608238220214844,1.4696992635726929
1772572964217671000,5.4696708984375,-0.2568979263305664,1.289762020111084,2.9824514389038086
1772572964235505400,5.48750537109375,3.925686836242676,2.2317800521850586,3.3804197311401367
1772572964253340200,5.505340087890625,7.04703426361084,0.5713768005371094,1.8451136350631714
1772572964271175000,5.5231748046875,6.435378074645996,-1.1850590705871582,-0.07492208480834961
1772572964289004000,5.541004150390625,3.6057653427124023,-0.6018486022949219,-1.9636726379394531
1772572964306844700,5.5588447265625,-1.840491771697998,4.259989261627197,-2.221693992614746
1772572964324679400,5.576679443359375,-2.3344240188598633,10.571817398071289,-1.0015103816986084
1772572964342514200,5.59451416015625,2.581204414367676,14.569360733032227,0.5680606365203857
1772572964360338400,5.61233837890625,7.8799848556518555,13.108827590942383,-0.0628516674041748
1772572964378179600,5.6301796875,9.74838638305664,8.05695629119873,-1.9638690948486328
1772572964396017400,5.648017333984375,10.34995174407959,3.864612579345703,-3.740752935409546
1772572964413855200,5.665855224609375,7.79610538482666,4.873521327972412,-3.8843600749969482
1772572964431688700,5.683688720703125,5.052952766418457,6.145002841949463,-2.2831180095672607
1772572964449523200,5.701523193359375,3.5421886444091797,4.7614874839782715,-1.5206611156463623
1772572964467358200,5.719358154296875,2.835395336151123,2.9741673469543457,-0.24303698539733887
1772572964485193000,5.73719287109375,1.2116241455078125,0.9353070259094238,1.842848777770996
1772572964503016000,5.755015869140625,-0.6021537780761719,-0.5597410202026367,2.477830410003662
1772572964520862700,5.77286279296875,-1.886420726776123,-1.592473030090332,1.879818320274353
1772572964538697200,5.790697265625,-3.979431629180908,-1.8965249061584473,1.090524435043335
1772572964556532200,5.8085322265625,-5.107284069061279,-2.2981770038604736,0.37210190296173096
1772572964574367200,5.8263671875,-3.6747937202453613,-3.4625396728515625,0.017009258270263672
1772572964592202000,5.844201904296875,-2.921933174133301,-4.439162731170654,-0.5259969234466553
1772572964610036500,5.862036376953125,-3.4220733642578125,-5.207891464233398,-0.5927950143814087
1772572964627871500,5.87987158203125,-4.916633605957031,-5.116275310516357,-0.5959568023681641
1772572964645706200,5.897706298828125,-6.33833122253418,-4.117471218109131,0.5959515571594238
1772572964663541200,5.915541259765625,-6.102282524108887,-3.106252431869507,1.7185450792312622
1772572964681375700,5.933375732421875,-5.0081377029418945,-3.379021167755127,1.69743812084198
1772572964699210800,5.951210693359375,-4.321300506591797,-3.924107551574707,1.3430850505828857
1772572964717045800,5.969045654296875,-3.518036365509033,-4.935532569885254,0.4327363669872284
1772572964734881000,5.986881103515625,-3.191680908203125,-5.680856704711914,-0.1739232838153839
1772572964752715500,6.004715576171875,-3.637049674987793,-5.277426242828369,0.07696852087974548
1772572964770537500,6.022537353515625,-3.357794761657715,-4.6714630126953125,0.6996678113937378
1772572964788372500,6.04037255859375,-2.870983123779297,-4.3279900550842285,1.346440315246582
1772572964806220300,6.05822021484375,-2.8946590423583984,-3.9127416610717773,0.4505966901779175
1772572964824035800,6.076035888671875,-2.4111766815185547,-3.235443592071533,-0.30349886417388916
1772572964841889300,6.09388916015625,-0.6775655746459961,-2.146942615509033,-0.18435430526733398
1772572964859713300,6.11171337890625,-0.10619211196899414,-0.4918045997619629,-0.12068700790405273
1772572964877559600,6.1295595703125,-1.3275146484375,1.1845698356628418,-0.8856551647186279
1772572964895394300,6.147394287109375,1.1318154335021973,3.153965473175049,0.10245883464813232
1772572964913229000,6.16522900390625,6.527230739593506,4.626571178436279,2.5776360034942627
1772572964931063600,6.1830634765625,8.999303817749023,5.092394828796387,3.234719753265381
1772572964948898600,6.200898681640625,7.86965274810791,5.544209957122803,1.0867204666137695
1772572964966733300,6.2187333984375,7.996333122253418,5.68507194519043,-0.7064969539642334
1772572964984554000,6.236553955078125,9.926008224487305,6.096358299255371,-0.16474568843841553
1772572965002402300,6.25440234375,7.441597938537598,7.246039867401123,-0.1614454984664917
1772572965020239600,6.272239501953125,6.251433849334717,8.387771606445312,-0.8023661375045776
1772572965038070000,6.290070068359375,8.177791595458984,7.3318047523498535,-1.1356773376464844
1772572965055908000,6.307908203125,8.161076545715332,4.867358207702637,-1.3597056865692139
1772572965073740000,6.325739990234375,5.730288982391357,4.698554992675781,-0.9861304759979248
1772572965091579000,6.343578857421875,3.788191795349121,4.305667877197266,-0.2543286085128784
1772572965109411300,6.361411376953125,1.1697216033935547,1.9865145683288574,-1.0475151538848877
1772572965127246600,6.37924658203125,-1.2993512153625488,0.5005397796630859,-1.0570670366287231
1772572965145081300,6.397081298828125,-3.6146528720855713,-0.059279441833496094,-0.5785608291625977
1772572965162916400,6.414916259765625,-3.550203323364258,-0.6790194511413574,0.33368074893951416
1772572965180751000,6.432751220703125,-2.0458145141601562,-1.7909927368164062,0.4954460561275482
1772572965198585900,6.4505859375,-0.6407527923583984,-2.7267403602600098,0.04408860206604004
1772572965216420900,6.4684208984375,-0.9842543601989746,-3.3729021549224854,-0.08803927898406982
1772572965234256000,6.486255859375,-2.429676055908203,-3.7244365215301514,0.17911779880523682
1772572965252090600,6.504090576171875,-3.648305892944336,-3.197096109390259,1.2911696434020996
1772572965269925000,6.521925048828125,-3.2360076904296875,-2.751234769821167,1.8013875484466553
1772572965287744300,6.539744140625,-2.675713539123535,-3.4672186374664307,-0.17219078540802002
1772572965305595400,6.557595458984375,-1.671389102935791,-4.447333335876465,-2.015623092651367
1772572965323434800,6.575434814453125,-1.2327394485473633,-5.38498067855835,-2.6110329627990723
1772572965341264400,6.593264404296875,-1.3115391731262207,-5.456038951873779,-1.304463505744934
1772572965359099400,6.611099365234375,-1.185351848602295,-4.465721130371094,1.3902000188827515
1772572965376934400,6.628934326171875,-2.000788688659668,-4.544550895690918,2.305022716522217
1772572965394769200,6.64676904296875,-2.922945976257324,-5.834029197692871,1.0148050785064697
1772572965412604000,6.66460400390625,-2.850254535675049,-7.230445384979248,0.07643035799264908
1772572965430438700,6.682438720703125,-2.0763442516326904,-7.789336204528809,-0.6181186437606812
1772572965448273400,6.7002734375,-2.749279737472534,-6.822961330413818,-0.26914021372795105
1772572965466108200,6.718108154296875,-4.0060200691223145,-5.197591781616211,0.5192498564720154
1772572965483936800,6.735936767578125,-4.068390846252441,-3.520871639251709,1.6161270141601562
1772572965501773800,6.75377392578125,-2.890866756439209,-2.6288442611694336,1.4227547645568848
1772572965519605800,6.771605712890625,-2.024000883102417,-2.7143592834472656,-0.2454736828804016
1772572965537449200,6.78944921875,-1.686535120010376,-1.985335350036621,-0.29992926120758057
1772572965555282400,6.807282470703125,-1.7618272304534912,0.374267578125,1.7609634399414062
1772572965573117000,6.825116943359375,-0.4029703140258789,2.1732749938964844,3.2826948165893555
1772572965590952000,6.842951904296875,2.0699262619018555,2.1944055557250977,2.981928825378418
1772572965608786400,6.860786376953125,3.644144058227539,2.7785892486572266,0.25454461574554443
1772572965626621200,6.87862109375,4.389945030212402,4.816836357116699,-1.3511383533477783
1772572965644456200,6.896456298828125,4.588624954223633,8.521258354187012,0.7675420641899109
1772572965662291200,6.914291259765625,4.790092468261719,11.096847534179688,2.95074200630188
1772572965680125700,6.932125732421875,5.339324474334717,10.49686050415039,1.7860627174377441
1772572965697961000,6.9499609375,5.594249725341797,8.04583740234375,-0.7438991069793701
1772572965715795700,6.967795654296875,7.446656227111816,6.080131530761719,-2.0392184257507324
1772572965733630200,6.985630126953125,8.53835678100586,5.012387752532959,-1.488368272781372
1772572965751465700,7.0034658203125,6.309361457824707,4.74541711807251,0.4102393388748169
1772572965769300000,7.021300048828125,2.5374293327331543,4.160770893096924,1.7539126873016357
1772572965787135000,7.039135009765625,-0.9034500122070312,2.6687612533569336,1.7973698377609253
1772572965804969700,7.0569697265625,-2.6020753383636475,0.012752056121826172,1.1253111362457275
1772572965822804200,7.07480419921875,-3.1635241508483887,-2.961866855621338,0.07699239253997803
1772572965840639200,7.09263916015625,-4.047336578369141,-5.138373851776123,-0.5700658559799194
1772572965858474000,7.110473876953125,-4.764576435089111,-4.747115135192871,-0.07262217998504639
1772572965876309200,7.128309326171875,-4.527716159820557,-4.2604899406433105,0.35845303535461426
1772572965894143200,7.146143310546875,-4.809374809265137,-4.85228967666626,-0.1929621696472168
1772572965911978800,7.163978759765625,-4.006080150604248,-5.518707275390625,-0.7832000255584717
1772572965929813200,7.181813232421875,-2.1189794540405273,-5.297537326812744,-0.5246992111206055
1772572965947648300,7.199648193359375,-0.7848544120788574,-4.669777870178223,0.12059593200683594
1772572965965482800,7.217482666015625,-0.9635448455810547,-3.6333673000335693,0.7696051597595215
1772572965983317800,7.23531787109375,-1.4358510971069336,-2.5339345932006836,1.3997716903686523
1772572966001152300,7.25315234375,-1.9517626762390137,-2.0836663246154785,1.8701808452606201
1772572966018987300,7.2709873046875,-2.2064766883850098,-2.6135756969451904,1.745643973350525
1772572966036822000,7.288822021484375,-2.1824073791503906,-3.715090036392212,1.0390998125076294
1772572966054657000,7.306656982421875,-2.442415714263916,-4.398490905761719,0.874087929725647
1772572966072491500,7.324491455078125,-2.6134891510009766,-3.518775701522827,2.0672199726104736
1772572966090326500,7.342326416015625,-7.993343353271484,-1.7375993728637695,3.017066717147827
1772572966108156400,7.360156494140625,-5.065745830535889,-2.845625162124634,2.5877888202667236
1772572966125996000,7.37799609375,-2.9996538162231445,-3.200342893600464,1.6134387254714966
1772572966143818200,7.395818359375,-1.5851950645446777,-1.7942657470703125,0.6142034530639648
