time,seconds_elapsed,z,y,x
1772572958851613400,0.103613525390625,0.4619668424129486,0.05696318298578262,-0.06643159687519073
1772572958869446000,0.12144580078125,0.4723515510559082,0.2073887437582016,-0.09392052888870239
1772572958887286000,0.1392861328125,0.49266281723976135,0.33719760179519653,-0.19089539349079132
1772572958905116400,0.157116455078125,0.5280929803848267,0.2099849283695221,-0.2399173229932785
1772572958922952400,0.174952392578125,0.5398521423339844,-0.16783522069454193,-0.11239920556545258
1772572958940774000,0.19277392578125,0.48517972230911255,-0.4973970353603363,0.15745051205158234
1772572958958622500,0.21062255859375,0.40591996908187866,-0.6356052756309509,0.31932979822158813
1772572958976456000,0.2284560546875,0.39248090982437134,-0.532369077205658,0.2796235680580139
1772572958994292200,0.246292236328125,0.5572618246078491,-0.2203696370124817,0.10949759185314178
1772572959012125400,0.26412548828125,0.6860016584396362,-0.14034628868103027,-0.1186605766415596
1772572959029961700,0.281961669921875,0.5503895878791809,-0.3332269787788391,-0.2955060601234436
1772572959047795200,0.299795166015625,0.3625485301017761,-0.4824308156967163,-0.3449861407279968
1772572959065631500,0.317631591796875,0.3367394804954529,-0.31459560990333557,-0.2922990322113037
1772572959083464700,0.335464599609375,0.41523563861846924,0.4207334518432617,-0.09285151958465576
1772572959101301000,0.353301025390625,0.6210972666740417,1.2912163734436035,0.048716504126787186
1772572959119134700,0.371134765625,0.8338310718536377,1.5610661506652832,0.04688390716910362
1772572959136970800,0.388970703125,0.9132435321807861,1.4187345504760742,-0.1134682223200798
1772572959154802200,0.40680224609375,0.9011789560317993,1.0793988704681396,-0.4671591818332672
1772572959172642300,0.424642333984375,0.9066767692565918,0.6878342628479004,-0.6166684627532959
1772572959190610700,0.442610595703125,1.007927656173706,0.21533000469207764,-0.4579962193965912
1772572959208309200,0.460309326171875,0.868803083896637,1.1117748022079468,-0.01863138936460018
1772572959226144300,0.478144287109375,0.7278459668159485,1.2670872211456299,0.8654433488845825
1772572959243979500,0.4959794921875,1.165378212928772,0.14935655891895294,2.0248656272888184
1772572959261813500,0.5138134765625,1.3205379247665405,-0.11010845750570297,2.161393880844116
1772572959279649000,0.53164892578125,0.9492846131324768,-0.2370157092809677,1.0572550296783447
1772572959297484000,0.549484130859375,0.43127086758613586,-0.921795666217804,-0.11636982858181
1772572959315319000,0.567319091796875,0.07254024595022202,-1.8057177066802979,-0.5644394755363464
1772572959333152800,0.58515283203125,-0.34086281061172485,-2.4278838634490967,-0.3254384696483612
1772572959350988000,0.602988037109375,-0.584750771522522,-2.2322542667388916,0.12293662875890732
1772572959368823600,0.620823486328125,-0.46792277693748474,-0.8642216324806213,0.01970040425658226
1772572959386642700,0.638642578125,-0.1736384481191635,0.4358523488044739,-0.8808676600456238
1772572959404500000,0.6565,0.04764748737215996,0.5145012736320496,-1.8058704137802124
1772572959422313000,0.67431298828125,-0.08674286305904388,0.5337435007095337,-2.0248656272888184
1772572959440164900,0.692164794921875,-0.3364340364933014,0.19792033731937408,-1.4190399646759033
1772572959457984800,0.70998486328125,-0.5128213763237,-0.6473644375801086,-0.289702832698822
1772572959475832300,0.727832275390625,-0.5170974135398865,-1.0555751323699951,0.7110471725463867
1772572959493653500,0.745653564453125,-0.30482175946235657,-0.8278751373291016,1.0493137836456299
1772572959511492000,0.7634921875,-0.07651086896657944,-0.2871066629886627,0.8408560156822205
1772572959529327900,0.781327880859375,-0.03329215571284294,-0.43478333950042725,0.5201517343521118
1772572959547170800,0.7991708984375,-0.004123340360820293,-0.911410927772522,0.5836817622184753
1772572959565005600,0.817005615234375,0.05849034711718559,-1.376279354095459,1.0551170110702515
1772572959582840600,0.834840576171875,0.0022907445672899485,-1.8993327617645264,1.7232508659362793
1772572959600674300,0.85267431640625,-0.19486601650714874,-1.944536805152893,2.0560197830200195
1772572959618508300,0.87050830078125,-0.4008803069591522,-1.369254469871521,1.8498526811599731
1772572959636349700,0.888349609375,-0.34773504734039307,-0.2148718535900116,1.4995214939117432
1772572959654178800,0.9061787109375,-0.21899518370628357,0.5963571667671204,1.122159481048584
1772572959672014800,0.924014892578125,-0.17012597620487213,0.9311113357543945,0.8429940342903137
1772572959689849000,0.94184912109375,-0.294437050819397,1.3883439302444458,0.9202684760093689
1772572959707684600,0.9596845703125,-0.399200439453125,1.7945693731307983,1.0896308422088623
1772572959725519000,0.97751904296875,-0.37048977613449097,1.6557502746582031,0.8665123581886292
1772572959743354000,0.99535400390625,-0.35750889778137207,0.7938193678855896,0.35033121705055237
1772572959761188000,1.01318798828125,-0.36224308609962463,0.15592335164546967,-0.08674286305904388
1772572959779024100,1.031024169921875,-0.2906191349029541,0.5383250117301941,-0.45982882380485535
1772572959796858600,1.048858642578125,-0.1719585657119751,1.3666582107543945,-0.4810563921928406
1772572959814693600,1.066693603515625,0.030085112899541855,2.040748119354248,-0.30314189195632935
1772572959832527600,1.084527587890625,0.29733866453170776,1.6559029817581177,-0.42119157314300537
1772572959850359000,1.102359130859375,0.3223841190338135,1.4984524250030518,-1.0757336616516113
1772572959868197600,1.12019775390625,0.0988074541091919,2.2905919551849365,-1.5789339542388916
1772572959886033000,1.138032958984375,-0.039706241339445114,1.944231390953064,-1.5517504215240479
1772572959903867100,1.1558671875,0.43249258399009705,0.3701843321323395,-0.9286679029464722
1772572959921702100,1.1737021484375,1.2024881839752197,-1.4824172258377075,-0.3937026560306549
1772572959939537200,1.191537109375,1.3833043575286865,-2.476142168045044,-0.03833179548382759
1772572959957372400,1.209372314453125,1.0085384845733643,-2.288759469985962,0.05268712714314461
1772572959975206700,1.22720654296875,0.6985244154930115,-0.9857838153839111,-0.23335053026676178
1772572959993041400,1.24504150390625,0.31261029839515686,0.8142833709716797,-0.9764680862426758
1772572960010876000,1.2628759765625,-0.15913039445877075,1.90925931930542,-1.6844608783721924
1772572960028711400,1.28071142578125,-0.5705481171607971,1.5457944869995117,-1.9434677362442017
1772572960046545700,1.298545654296875,-0.8487972617149353,0.05467243865132332,-1.6519323587417603
1772572960064380700,1.316380615234375,-0.9541715383529663,-1.2797627449035645,-1.0418306589126587
1772572960082212600,1.334212646484375,-0.9734137654304504,-2.069153308868408,-0.5112941861152649
1772572960100053800,1.3520537109375,-0.9210320711135864,-2.1094703674316406,-0.36102136969566345
1772572960117885000,1.369885009765625,-0.6065891981124878,-1.3614659309387207,-0.5395467281341553
1772572960135720400,1.387720458984375,-0.10506882518529892,-0.35124751925468445,-0.7536550164222717
1772572960153555000,1.405554931640625,0.21533000469207764,0.30894508957862854,-0.7779368758201599
1772572960171390000,1.423389892578125,0.14248432219028473,0.21380282938480377,-0.49098294973373413
1772572960189224000,1.441223876953125,-0.10965031385421753,-0.4207334518432617,0.13041973114013672
1772572960207059200,1.45905908203125,-0.07452555745840073,-0.8029823899269104,0.7434229850769043
1772572960224894200,1.476894287109375,0.21899518370628357,-0.6927211880683899,1.025948166847229
1772572960242729700,1.494729736328125,0.6812674403190613,-0.024434609338641167,1.1974486112594604
1772572960260563200,1.512563232421875,1.0114401578903198,0.5015203952789307,1.265865445137024
1772572960278398700,1.530398681640625,0.8891143798828125,0.7637342810630798,1.135140299797058
1772572960296233500,1.5482333984375,0.4775438904762268,0.9251554012298584,0.9462302923202515
1772572960314068700,1.56606884765625,0.12828169763088226,0.722959041595459,0.9275988936424255
1772572960331902700,1.58390283203125,0.010690141469240189,0.24633140861988068,1.031293272972107
1772572960349737700,1.60173779296875,-0.05543602257966995,0.4761694669723511,1.178053617477417
1772572960367572700,1.61957275390625,-0.05971207842230797,1.1204795837402344,1.1131491661071777
1772572960385408000,1.637407958984375,0.08414668589830399,1.2049317359924316,0.40775254368782043
1772572960403242000,1.655241943359375,0.018478672951459885,0.6377432942390442,-0.5128213763237
1772572960421077000,1.673076904296875,-0.3927863538265228,0.27290403842926025,-0.9454666972160339
1772572960438912300,1.690912353515625,-0.7389942407608032,-0.007635815534740686,-0.6189591884613037
1772572960456747300,1.708747314453125,-0.7151705026626587,-0.28359419107437134,0.26572638750076294
1772572960474581800,1.726581787109375,-0.36911532282829285,-0.3449861407279968,1.249372124671936
1772572960492416300,1.744416259765625,-0.1235474944114685,0.3003929853439331,1.2903001308441162
1772572960510251300,1.762251220703125,-0.25564709305763245,0.7060074806213379,0.6785185933113098
1772572960528086300,1.780086181640625,-0.49525898694992065,0.1371392458677292,-0.02275473065674305
1772572960545919500,1.79791943359375,-0.7961101531982422,-0.6192646622657776,-0.5268712639808655
1772572960563756800,1.8157568359375,-1.0751228332519531,-1.0021244287490845,-0.7629706859588623
1772572960581591800,1.833591796875,-0.8497135639190674,-0.9483683109283447,-0.6966918110847473
1772572960599424800,1.8514248046875,-0.26939156651496887,-0.35873061418533325,-0.475253164768219
1772572960617260000,1.869260009765625,0.31459560990333557,0.28756481409072876,-0.32131510972976685
1772572960635095000,1.887094970703125,0.575893223285675,0.65958172082901,-0.4977024495601654
1772572960652929800,1.9049296875,0.3068070709705353,1.268614411354065,-1.104138970375061
1772572960670764800,1.922764892578125,-0.2877175211906433,1.6279559135437012,-1.8196148872375488
1772572960688599000,1.94059912109375,-0.8023715019226074,1.062294602394104,-2.169182538986206
1772572960706434000,1.95843408203125,-1.0036516189575195,-0.003817907767370343,-1.8015943765640259
1772572960724267500,1.976267578125,-0.8327620625495911,-1.0823005437850952,-0.9311113357543945
1772572960742102500,1.9941025390625,-0.48655417561531067,-1.8587101697921753,-0.004123340360820293
1772572960759937000,2.01193701171875,-0.14614951610565186,-2.0170769691467285,0.6382014751434326
1772572960777774000,2.029774169921875,-0.018478672951459885,-1.5616769790649414,0.564592182636261
1772572960795608800,2.04760888671875,-0.13637566566467285,-0.8199338912963867,-0.0832303911447525
1772572960813440300,2.065440185546875,-0.27259862422943115,-0.2506074607372284,-0.4280638098716736
1772572960831281000,2.083281005859375,-0.21044307947158813,-0.4980078935623169,-0.1287398487329483
1772572960849113300,2.10111328125,-0.14538592100143433,-1.2819007635116577,0.5894849896430969
1772572960866948000,2.118947998046875,-0.21624629199504852,-1.7197383642196655,1.1522445678710938
1772572960884782800,2.136782958984375,-0.3237585723400116,-1.1928671598434448,1.2142473459243774
1772572960902617000,2.1546171875,-0.4980078935623169,-0.26419922709465027,0.8810204267501831
1772572960920436700,2.172436767578125,-0.6618725061416626,0.46303585171699524,0.640644907951355
1772572960938290400,2.19029052734375,-0.6209444999694824,0.455705463886261,0.5867360830307007
1772572960956120800,2.208120849609375,-0.4309654235839844,0.24327708780765533,0.7519751191139221
1772572960973958400,2.22595849609375,-0.13973543047904968,0.31322115659713745,1.0839803218841553
1772572960991791600,2.24379150390625,-0.001832595793530345,-0.13271047174930573,0.8920159935951233
1772572961009626600,2.261626708984375,-0.24908030033111572,-0.31031954288482666,0.2767219543457031
1772572961027461600,2.279461669921875,-0.6382014751434326,-0.08628471940755844,-0.46853363513946533
1772572961045295900,2.2972958984375,-0.5545129179954529,0.46303585171699524,-0.8251262307167053
1772572961063131000,2.315130859375,-0.05757404863834381,1.5210545063018799,-0.44226643443107605
1772572961080966000,2.3329658203125,0.3591887652873993,1.5289957523345947,0.5041165351867676
1772572961098801200,2.35080126953125,0.3081815242767334,0.0806342139840126,0.7875580191612244
1772572961116635400,2.368635498046875,0.3501785099506378,0.016035212203860283,0.45662176609039307
1772572961134470700,2.386470703125,0.34865134954452515,1.513113260269165,-0.02076941914856434
1772572961152305200,2.40430517578125,0.16019940376281738,1.4078916311264038,-0.7979426980018616
1772572961170125600,2.42212548828125,0.035124752670526505,0.5684100985527039,-1.0338894128799438
1772572961187969300,2.43996923828125,0.2551889419555664,-0.02275473065674305,-0.7489207983016968
1772572961205809700,2.4578095703125,0.48288896679878235,-0.6692028641700745,-0.38927388191223145
1772572961223629000,2.475629150390625,0.5874996781349182,-1.1604912281036377,-0.02886338345706463
1772572961241479200,2.493479248046875,0.6649268269538879,-1.0764973163604736,-0.013591751456260681
1772572961259314000,2.51131396484375,0.8458956480026245,-0.42241331934928894,-0.39248090982437134
1772572961277149200,2.529149169921875,1.0436632633209229,-0.017409659922122955,-0.7997753024101257
1772572961294984000,2.54698388671875,1.19607412815094,-0.24007004499435425,-0.6860016584396362
1772572961312819000,2.56481884765625,1.2272282838821411,-0.825584352016449,-0.2588541507720947
1772572961330653200,2.582653076171875,0.8726209998130798,-1.0780243873596191,-0.10751228034496307
1772572961348488400,2.600488525390625,0.04902193695306778,-0.7289149761199951,-0.33658674359321594
1772572961366323500,2.618323486328125,-0.6855435371398926,-0.42699480056762695,-0.5966626405715942
1772572961384155600,2.63615576171875,-0.8245153427124023,-0.7602217793464661,-0.5161811113357544
1772572961401992400,2.653992431640625,-0.603687584400177,-1.3277156352996826,-0.21853704750537872
1772572961419832300,2.671832275390625,-0.24159720540046692,-1.411251425743103,0.057879481464624405
1772572961437661700,2.68966162109375,0.12965615093708038,-0.8565858006477356,0.20631973445415497
1772572961455496000,2.707495849609375,0.21853704750537872,0.04092797264456749,0.2541199326515198
1772572961473333800,2.725333740234375,-0.11423180252313614,0.31031954288482666,0.22892175614833832
1772572961491152600,2.743152587890625,-0.35094207525253296,0.058795779943466187,0.41493022441864014
1772572961508990000,2.760989990234375,-0.2646573781967163,-0.19608774781227112,0.722348153591156
1772572961526829000,2.7788291015625,-0.027030786499381065,-0.21807889640331268,1.0010554790496826
1772572961544671200,2.796671142578125,0.16493362188339233,0.009773843921720982,1.105513334274292
1772572961562506500,2.814506591796875,0.31001409888267517,0.5212207436561584,1.0453431606292725
1772572961580337700,2.832337646484375,0.30283644795417786,0.8437576293945312,0.9674578309059143
1772572961598176500,2.850176513671875,0.22113321721553802,0.6125451326370239,1.0251846313476562
1772572961616012500,2.868012451171875,0.5117523670196533,0.7070765495300293,1.2211196422576904
1772572961633844500,2.885844482421875,1.3495540618896484,0.6588181853294373,1.386358618736267
1772572961651680800,2.9036806640625,1.7273741960525513,-0.4482223689556122,1.1980594396591187
1772572961669515500,2.921515625,1.1186469793319702,-1.0613783597946167,0.5896376967430115
1772572961687348000,2.939347900390625,0.10751228034496307,0.06765332818031311,-0.4323398768901825
1772572961705185500,2.957185546875,-0.6403394937515259,1.4199562072753906,-1.0616837739944458
1772572961723020000,2.97502001953125,-0.9140071272850037,1.9981402158737183,-0.749531626701355
1772572961740855000,2.99285498046875,-0.7887797355651855,1.934457540512085,-0.27779096364974976
1772572961758689800,3.010689697265625,-0.3900374472141266,2.2262983322143555,-0.13286319375038147
1772572961776525000,3.028525146484375,0.05772676691412926,1.938580870628357,-0.1895209401845932
1772572961794359800,3.04635986328125,0.2938261926174164,0.7437284588813782,-0.19257527589797974
1772572961812194600,3.064194580078125,0.031001411378383636,-0.4141666293144226,-0.16814066469669342
1772572961830029000,3.082029052734375,-0.34697145223617554,-1.3729196786880493,-0.035124752670526505
1772572961847864300,3.0998642578125,-0.6311765313148499,-2.1879665851593018,0.04734205827116966
1772572961865698800,3.11769873046875,-0.5499314665794373,-1.903914213180542,-0.16859880089759827
1772572961883530500,3.135530517578125,0.0354301854968071,-0.8139779567718506,-0.4331034719944
1772572961901371400,3.153371337890625,0.5297728776931763,-0.03878994286060333,-0.5429064631462097
1772572961919203600,3.17120361328125,0.6369797587394714,-0.25274550914764404,-0.36010506749153137
1772572961937038600,3.18903857421875,0.4925101101398468,-1.109636664390564,-0.12767083942890167
1772572961954873600,3.20687353515625,0.14446963369846344,-0.8726209998130798,-0.26450464129447937
1772572961972707600,3.22470751953125,-0.13561208546161652,0.17440202832221985,-0.5210680365562439
1772572961990542800,3.24254296875,-0.22357667982578278,0.90728759765625,-0.47189339995384216
1772572962008377600,3.260377685546875,-0.10690141469240189,1.0293079614639282,-0.09483683109283447
1772572962026212600,3.278212646484375,-0.06352998316287994,0.7447974681854248,0.4303545653820038
1772572962044047400,3.29604736328125,-0.2692388594150543,0.08414668589830399,0.732122004032135
1772572962061882000,3.313882080078125,-0.6259841322898865,-0.31062498688697815,0.7777841687202454
1772572962079715000,3.331715087890625,-0.90728759765625,-0.2525927722454071,0.6806566119194031
1772572962097536300,3.349536376953125,-1.038318157196045,0.10125091671943665,0.5904012322425842
1772572962115374800,3.367374755859375,-0.950506329536438,0.5028948187828064,0.48166725039482117
1772572962133224700,3.385224609375,-0.7527387142181396,0.5658139586448669,0.3686571717262268
1772572962151056400,3.403056396484375,-0.6438519954681396,0.47418415546417236,0.5659666657447815
1772572962168892000,3.420891845703125,-0.60429847240448,0.2860376536846161,0.983340322971344
1772572962186719200,3.43871923828125,-0.6180428862571716,0.13576480746269226,1.3987287282943726
1772572962204561200,3.45656103515625,-0.6281222105026245,0.12461651116609573,1.6180293560028076
1772572962222393000,3.47439306640625,-0.7521278262138367,0.1437060534954071,1.7156150341033936
1772572962240234500,3.492234375,-0.9109528064727783,0.6194173693656921,1.9034560918807983
1772572962258065700,3.510065673828125,-0.7318165898323059,1.1088731288909912,1.9071213006973267
1772572962275900000,3.52789990234375,-0.27458393573760986,0.6667594313621521,1.434922456741333
1772572962293736400,3.545736328125,-0.21303924918174744,0.4729624092578888,0.9074403047561646
1772572962311570400,3.5635703125,-0.5858197808265686,1.315956473350525,0.5195409059524536
1772572962329405000,3.581405029296875,-0.9214902520179749,1.6116151809692383,0.19394971430301666
1772572962347240000,3.599239990234375,-0.5774203538894653,1.3403910398483276,0.3010038435459137
1772572962365075000,3.617074951171875,0.18478673696517944,1.8903224468231201,0.20326541364192963
1772572962382910000,3.634909912109375,0.6517932415008545,2.1902573108673096,-0.0006108652451075613
1772572962400744400,3.652744384765625,1.011745572090149,1.0348057746887207,0.2541199326515198
1772572962418579700,3.670579833984375,0.9854783415794373,-0.17150041460990906,0.27641651034355164
1772572962436414700,3.688414794921875,0.5041165351867676,-0.16584990918636322,0.05345070734620094
1772572962454249700,3.706249755859375,0.08261952549219131,-0.5497786998748779,-0.10903944820165634
1772572962472083700,3.724083740234375,0.3387247920036316,-1.1453723907470703,-0.11270463466644287
1772572962489906700,3.74190673828125,0.7677049040794373,-1.5289957523345947,-0.15714508295059204
1772572962507753700,3.759753662109375,0.71318519115448,-1.1142182350158691,-0.028557950630784035
1772572962525576400,3.777576416015625,0.4132503271102905,-0.422871470451355,0.12079860270023346
1772572962543423000,3.795423095703125,0.30344730615615845,-0.47571131587028503,0.14798210561275482
1772572962561246500,3.81324658203125,0.15485434234142303,-0.251218318939209,-0.43768495321273804
1772572962579093200,3.83109326171875,0.04001167416572571,0.2739730477333069,-1.3752104043960571
1772572962596928500,3.848928466796875,-0.16569720208644867,0.2808452844619751,-2.2739458084106445
1772572962614763000,3.866762939453125,-0.46761733293533325,0.2382374405860901,-2.6418395042419434
1772572962632597800,3.88459765625,-0.5832235813140869,0.2330450862646103,-2.1151208877563477
1772572962650416000,3.902416015625,-0.37491855025291443,-0.003359758760780096,-0.8452847599983215
1772572962668268000,3.92026806640625,-0.06383541971445084,-0.4772384762763977,0.5035057067871094
1772572962686102300,3.938102294921875,-0.06505715101957321,-1.4376713037490845,0.9586002826690674
1772572962703937500,3.9559375,-0.5256495475769043,-1.7040085792541504,0.746630072593689
1772572962721769000,3.97376904296875,-0.9080511927604675,-0.974177360534668,0.04153883829712868
1772572962739610600,3.991610595703125,-0.9144652485847473,0.275347501039505,-0.6783658266067505
1772572962757442300,4.0094423828125,-0.6656904220581055,1.3878858089447021,-0.9001099467277527
1772572962775276300,4.0272763671875,-0.3147483170032501,1.831526756286621,-0.4899139404296875
1772572962793111600,4.045111572265625,-0.02229658141732216,1.3790283203125,0.3556762933731079
1772572962810946600,4.062946533203125,-0.16493362188339233,0.23273965716362,1.162629246711731
1772572962828781600,4.080781494140625,-0.646906316280365,-0.6834055185317993,1.6475036144256592
1772572962846616300,4.0986162109375,-0.8542950749397278,-1.0569496154785156,1.7457001209259033
1772572962864457000,4.11645703125,-0.5928447246551514,-0.9285151958465576,1.5978707075119019
1772572962882284800,4.134284912109375,-0.1748601794242859,-0.41920626163482666,1.083064079284668
1772572962900120000,4.1521201171875,0.09239336848258972,-0.0659734457731247,0.11392636597156525
1772572962917956900,4.169956787109375,0.1267545372247696,0.22663100063800812,-0.6553056836128235
1772572962935791000,4.187791015625,-0.19257527589797974,0.4980078935623169,-0.8880453705787659
1772572962953623800,4.205623779296875,-0.49357911944389343,0.7950411438941956,-0.6104071140289307
1772572962971461600,4.223461669921875,-0.3023782968521118,0.21762074530124664,-0.02580905705690384
1772572962989294800,4.241294921875,0.12660181522369385,-1.1394164562225342,0.5568036437034607
1772572963007130000,4.259130126953125,0.5900958180427551,-1.368032693862915,0.6614143252372742
1772572963024964900,4.27696484375,0.749531626701355,-0.12186761945486069,-0.275347501039505
1772572963042799600,4.294799560546875,0.4812090992927551,0.38179078698158264,-1.01617431640625
1772572963060634400,4.31263427734375,0.47968193888664246,-0.7660250067710876,-0.5916230082511902
1772572963078469400,4.330469482421875,0.616973876953125,-0.8886561989784241,-0.30802878737449646
1772572963096304400,4.348304443359375,0.6252205967903137,-0.16890424489974976,-0.48197266459465027
1772572963114139400,4.366139404296875,0.6772968173027039,-0.5593998432159424,-0.19883663952350616
1772572963131974400,4.383974365234375,0.3721696436405182,-1.4947872161865234,0.3430008292198181
1772572963149808600,4.40180859375,-0.18188512325286865,-1.6720908880233765,0.29657506942749023
1772572963167643600,4.4196435546875,-0.29168814420700073,-1.1198687553405762,-0.3352122902870178
1772572963185478700,4.437478759765625,0.3787364661693573,-0.2692388594150543,-0.940732479095459
1772572963203313200,4.455313232421875,0.9144652485847473,0.6142250299453735,-1.359175205230713
1772572963221148200,4.473148193359375,0.917672336101532,0.9859365224838257,-1.5378532409667969
1772572963238983000,4.49098291015625,0.7976372838020325,0.5713117122650146,-1.2599095106124878
1772572963256818200,4.508818115234375,0.9138544201850891,0.22602014243602753,-0.7919867634773254
1772572963274653000,4.52665283203125,1.1459832191467285,0.168751522898674,-0.6065891981124878
1772572963292487700,4.54448779296875,1.4535537958145142,0.11850785464048386,-0.8639161586761475
1772572963310322400,4.562322509765625,1.6111570596694946,0.32360586524009705,-1.2487612962722778
1772572963328152800,4.58015283203125,1.4715744256973267,0.347276896238327,-1.4395039081573486
1772572963345992400,4.597992431640625,1.1104003190994263,0.15164729952812195,-1.0780243873596191
1772572963363827000,4.615826904296875,0.6759223937988281,-0.28725937008857727,-0.49846604466438293
1772572963381662200,4.633662109375,0.25671613216400146,-0.6840163469314575,-0.04489859566092491
1772572963399496700,4.65149658203125,-0.04184427112340927,-0.7941248416900635,0.14584407210350037
1772572963417331700,4.669331787109375,-0.2730567753314972,-0.7073819637298584,0.23854288458824158
1772572963435166700,4.687166748046875,-0.39965859055519104,-0.2857322096824646,0.3205515444278717
1772572963453001700,4.705001708984375,-0.34284812211990356,0.28817567229270935,0.42409318685531616
1772572963470836200,4.722836181640625,-0.23365595936775208,0.9666942358016968,0.5624541640281677
1772572963488658400,4.740658447265625,-0.244804248213768,1.4659239053726196,0.6632469296455383
1772572963506487800,4.75848779296875,-0.3170390725135803,1.6629278659820557,0.5615378618240356
1772572963524330200,4.776330322265625,-0.4101960062980652,1.5402966737747192,0.38835757970809937
1772572963542163700,4.794163818359375,-0.5966626405715942,1.2849550247192383,0.5780312418937683
1772572963560014300,4.812014404296875,-0.5514585971832275,0.9173668622970581,0.9161451458930969
1772572963577845500,4.829845458984375,-0.23594669997692108,0.4437935948371887,0.6382014751434326
1772572963595680300,4.84768017578125,-0.17180584371089935,0.0403171069920063,0.04749477282166481
1772572963613515300,4.865515380859375,-0.6027712821960449,-0.5441282391548157,0.2396118938922882
1772572963631349800,4.883349853515625,-0.8205447196960449,-1.2055425643920898,0.8662069439888
1772572963649184500,4.9011845703125,-0.37430769205093384,-0.6856962442398071,0.9995282292366028
1772572963667019800,4.919019775390625,0.2015855312347412,1.031598687171936,0.5962044596672058
1772572963684854500,4.9368544921875,0.3799581825733185,2.0752620697021484,0.38759398460388184
1772572963702689800,4.954689697265625,0.28557950258255005,1.7084373235702515,0.4363104999065399
1772572963720523800,4.972523681640625,-0.09697485715150833,0.9456194043159485,0.32162055373191833
1772572963738358800,4.99035888671875,-0.5346598029136658,0.33307427167892456,0.31642818450927734
1772572963756192300,5.008192138671875,-0.5038111209869385,-0.4268420934677124,0.4662429094314575
1772572963778486300,5.030486328125,-0.07696902006864548,-0.7609853744506836,0.3952298164367676
1772572963796322300,5.048322265625,0.013439035043120384,-0.3874412775039673,0.15317445993423462
1772572963814158300,5.066158447265625,0.025961773470044136,0.11575896292924881,-0.23884831368923187
1772572963831991800,5.08399169921875,0.14065171778202057,0.22892175614833832,-0.5218316316604614
1772572963849826800,5.101826904296875,0.26542094349861145,-0.1794416606426239,-0.5299255847930908
1772572963867657700,5.11965771484375,0.27641651034355164,-0.3773620128631592,-0.44165557622909546
1772572963885498400,5.137498291015625,0.24846944212913513,-0.2715296149253845,-0.5038111209869385
1772572963903334000,5.155333984375,0.13469578325748444,-0.07070764899253845,-0.7634288668632507
1772572963921164300,5.173164306640625,-0.11682797968387604,0.07483099400997162,-1.0399980545043945
1772572963939003000,5.1910029296875,-0.4138612151145935,0.4358523488044739,-1.1554516553878784
1772572963956836900,5.2088369140625,-0.6696610450744629,0.7490735054016113,-1.0932960510253906
1772572963974670600,5.226670654296875,-0.8219192028045654,0.5280929803848267,-0.8562803864479065
1772572963992505300,5.24450537109375,-0.6902777552604675,-0.22647829353809357,-0.4499022662639618
1772572964010336300,5.262336181640625,-0.323147714138031,-0.9045386910438538,-0.05314527451992035
1772572964028176100,5.280176025390625,0.0780380368232727,-1.2165381908416748,0.2050980031490326
1772572964046006800,5.2980068359375,0.3605632185935974,-1.1084150075912476,0.46593746542930603
1772572964063848000,5.315847900390625,0.4343251883983612,-0.7246388792991638,0.7159340381622314
1772572964081679400,5.333679443359375,0.31444287300109863,-0.30115658044815063,0.7867944240570068
1772572964099515600,5.351515625,0.02122756652534008,-0.16951510310173035,0.574976921081543
1772572964117349400,5.369349365234375,-0.42638394236564636,-0.02382374368607998,0.2600758671760559
1772572964135184400,5.387184326171875,-0.7721336483955383,0.7481572031974792,0.1033889427781105
1772572964153019000,5.405018798828125,-0.7096726894378662,1.895362138748169,0.04612032696604729
1772572964170854700,5.422854736328125,-0.5125159621238708,2.645962715148926,-0.0328340083360672
1772572964188689000,5.44068896484375,-0.6006332635879517,2.0114264488220215,0.03940080851316452
1772572964204746000,5.45674609375,-0.997848391532898,0.30146199464797974,0.7064656615257263
1772572964222130400,5.47413037109375,-1.550986886024475,-0.5329799056053162,1.0253373384475708
1772572964239966000,5.491966064453125,-2.269364356994629,-0.5997169613838196,0.9970847964286804
1772572964257800000,5.509800048828125,-2.3513729572296143,0.15531249344348907,1.2560917139053345
1772572964275635000,5.527635009765625,-1.853365182876587,0.7518224120140076,1.40269935131073
1772572964293469700,5.5454697265625,-0.6047565937042236,1.3892602920532227,1.1365147829055786
1772572964311305500,5.563305419921875,0.3016147017478943,0.43875396251678467,0.5673410892486572
1772572964329139200,5.58113916015625,0.12568552792072296,-1.811673641204834,0.36163222789764404
1772572964346974200,5.59897412109375,-0.6821837425231934,-2.710103750228882,-0.17516560852527618
1772572964364808700,5.61680859375,-1.2625057697296143,-1.4998269081115723,-1.2887729406356812
1772572964382645000,5.63464501953125,-1.1134545803070068,-0.29733866453170776,-2.1200077533721924
1772572964400466400,5.652466552734375,-0.37919458746910095,0.4138612151145935,-1.9478965997695923
1772572964418313500,5.6703134765625,0.1088867336511612,-0.26542094349861145,-1.03984534740448
1772572964436148200,5.688148193359375,-0.20326541364192963,-1.873218297958374,0.03940080851316452
1772572964453984300,5.705984375,-0.35262197256088257,-2.841592311859131,0.651945948600769
1772572964471818000,5.72381787109375,-0.2971859276294708,-2.7293457984924316,0.9195048809051514
1772572964489652500,5.741652587890625,-0.2773328125476837,-1.7192802429199219,0.5942191481590271
1772572964507487500,5.759487548828125,-0.26221391558647156,-0.25641068816185,-0.31352660059928894
1772572964525323500,5.777323486328125,-0.252287358045578,0.8655960559844971,-1.1701123714447021
1772572964543157200,5.7951572265625,-0.31749722361564636,0.7935139536857605,-1.3756685256958008
1772572964560989400,5.812989501953125,-0.4199698567390442,-0.3833179473876953,-1.0728321075439453
1772572964578826800,5.83082666015625,-0.3376557528972626,-1.0012081861495972,-0.6487388610839844
1772572964596663000,5.8486630859375,0.01664607785642147,-0.8848382830619812,-0.30146199464797974
1772572964614496800,5.866496826171875,0.44455718994140625,-0.6298020482063293,0.05772676691412926
1772572964632331500,5.88433154296875,0.9001099467277527,-0.5908594131469727,0.41233405470848083
1772572964650166000,5.902166015625,1.0227410793304443,-0.9570731520652771,0.6670648455619812
1772572964668002000,5.920001953125,0.650418758392334,-1.5836681127548218,0.9352346658706665
1772572964685836300,5.937836181640625,0.2672535479068756,-1.7989981174468994,1.1873693466186523
1772572964703670300,5.955670166015625,0.018936822190880775,-1.569007396697998,1.1678216457366943
1772572964721506000,5.973506103515625,0.031001411378383636,-0.8141306638717651,0.9298896193504333
1772572964739341300,5.99134130859375,0.24113905429840088,0.1059851199388504,0.6783658266067505
1772572964757173800,6.009173828125,0.28359419107437134,0.46410486102104187,0.5186246037483215
1772572964775011600,6.027011474609375,0.16325373947620392,0.4450153410434723,0.5155702829360962
1772572964792845000,6.044844970703125,-0.019089538604021072,0.5487096905708313,0.60429847240448
1772572964810680600,6.0626806640625,-0.16523905098438263,0.4095851480960846,0.7568620443344116
1772572964828514300,6.080514404296875,-0.10399980843067169,0.14996741712093353,0.9191994667053223
1772572964846349000,6.09834912109375,0.04535674303770065,0.5160284042358398,0.8735373020172119
1772572964864184000,6.11618408203125,0.13209961354732513,1.1884382963180542,0.4691445231437683
1772572964882020000,6.13402001953125,0.18249599635601044,0.9758572578430176,-0.2716823220252991
1772572964899852500,6.1518525390625,0.17516560852527618,0.5152648091316223,-0.8718574047088623
1772572964917689900,6.16968994140625,0.08827003091573715,1.0574077367782593,-0.9920451641082764
1772572964935523600,6.187523681640625,-0.21502456068992615,1.7122552394866943,-0.7443392872810364
1772572964953359400,6.205359375,-0.6490443348884583,1.0097602605819702,-0.045204028487205505
1772572964971193000,6.223193115234375,-0.5752823352813721,0.11301007121801376,0.5334380865097046
1772572964989015300,6.241015380859375,-0.22892175614833832,0.9755517840385437,0.4158465266227722
1772572965006845400,6.258845458984375,-0.2658790946006775,0.9851729273796082,-0.37888917326927185
1772572965024691500,6.27669140625,-0.8422304391860962,-0.4283692538738251,-0.4213443100452423
1772572965042532000,6.294531982421875,-1.00197172164917,-0.7658722996711731,-0.3352122902870178
1772572965060369700,6.31236962890625,-0.3481931984424591,0.06383541971445084,-0.53328537940979
1772572965078186800,6.330186767578125,0.0328340083360672,-0.5642867684364319,0.021991148591041565
1772572965096038100,6.3480380859375,-0.021838432177901268,-2.0639610290527344,1.2527319192886353
1772572965113872000,6.365871826171875,0.029016099870204926,-2.7675249576568604,1.8136589527130127
1772572965131706600,6.38370654296875,0.13637566566467285,-2.2773056030273438,1.3208433389663696
1772572965149541400,6.401541259765625,0.20128010213375092,-1.2594513893127441,-0.03298672288656235
1772572965167377400,6.41937744140625,0.2612976133823395,0.12751811742782593,-1.6421585083007812
1772572965185211100,6.437211181640625,0.3888157308101654,1.2927435636520386,-2.5615108013153076
1772572965203045600,6.455045654296875,0.5665774941444397,1.5315918922424316,-2.2647829055786133
1772572965220879000,6.472879150390625,0.6079636216163635,0.6939429044723511,-1.0749701261520386
1772572965238718500,6.490718505859375,0.646906316280365,-0.5230533480644226,0.29504790902137756
1772572965256548400,6.50854833984375,0.5238169431686401,-1.180649757385254,0.955545961856842
1772572965274386400,6.526386474609375,0.2638937830924988,-0.8054258227348328,0.8425359129905701
1772572965292219600,6.5442197265625,0.23182335495948792,-0.3527746796607971,0.633009135723114
1772572965310055700,6.5620556640625,0.4479169547557831,-0.21334469318389893,0.7718282341957092
1772572965327889400,6.579889404296875,0.8854491710662842,-0.38408151268959045,1.3978123664855957
1772572965345724400,6.597724365234375,1.1102476119995117,-0.6111706495285034,2.0448713302612305
1772572965363559200,6.61555908203125,0.8356636762619019,-0.24938572943210602,2.3551909923553467
1772572965381395500,6.6333955078125,0.2961169183254242,0.4170682430267334,2.246609687805176
1772572965399228700,6.651228759765625,-0.010537425056099892,0.6661485433578491,1.916437029838562
1772572965417063700,6.669063720703125,0.016035212203860283,0.9388998746871948,1.6322319507598877
1772572965434898700,6.686898681640625,0.3020728528499603,1.6329954862594604,1.3843733072280884
1772572965452734500,6.704734375,0.5096143484115601,2.1755964756011963,1.1261301040649414
1772572965470567700,6.722567626953125,0.4329507350921631,1.8891007900238037,1.0094548463821411
1772572965488391200,6.74039111328125,0.0679587572813034,1.0784826278686523,1.1366674900054932
1772572965506226000,6.758225830078125,-0.3269656300544739,0.9636399149894714,0.9963212013244629
1772572965524062500,6.7760625,-0.1745547503232956,1.5454890727996826,0.39675697684288025
1772572965541908700,6.79390869140625,0.2921462953090668,1.9495763778686523,-0.04948008432984352
1772572965559742000,6.811741943359375,0.21838432550430298,1.4640913009643555,-0.3000875413417816
1772572965577577500,6.829577392578125,-0.3390302062034607,0.7779368758201599,-0.42989641427993774
1772572965595413000,6.8474130859375,-0.6589708924293518,0.5688682794570923,-0.4743368625640869
1772572965613246700,6.865246826171875,-0.39477166533470154,0.6262896060943604,-0.4158465266227722
1772572965631081200,6.883081298828125,0.28435778617858887,0.5372560024261475,-0.24602597951889038
1772572965648916200,6.900916259765625,0.5164865851402283,0.622013509273529,-0.2719877362251282
1772572965666752300,6.918752197265625,0.13286319375038147,0.7026477456092834,-0.5619960427284241
1772572965684585700,6.936585693359375,-0.4607451260089874,0.25702154636383057,-0.6679811477661133
1772572965702421200,6.954421142578125,-0.5737552046775818,-0.5765040516853333,-0.6635523438453674
1772572965720254500,6.97225439453125,-0.1699732542037964,-0.8460483551025391,-0.5703954100608826
1772572965738088200,6.990088134765625,0.3620903789997101,-0.4066835343837738,-0.2996293902397156
1772572965755923700,7.007923828125,0.48517972230911255,-0.1420261710882187,0.14584407210350037
1772572965773760500,7.025760498046875,0.12736541032791138,-0.3003929853439331,0.44547349214553833
1772572965791595800,7.043595703125,-0.34437528252601624,-0.3885102868080139,0.14828753471374512
1772572965809430300,7.06143017578125,-0.6168211698532104,0.06169738993048668,-0.6739370822906494
1772572965827264300,7.07926416015625,-0.6082690954208374,0.6337726712226868,-1.4624114036560059
1772572965845098800,7.0970986328125,-0.38240164518356323,0.5549710988998413,-1.6600263118743896
1772572965862933800,7.114933837890625,-0.3982841372489929,-0.12889257073402405,-1.574352502822876
1772572965880769800,7.132769775390625,-0.6209444999694824,-0.1238529309630394,-1.9117027521133423
1772572965898603300,7.150603271484375,-0.6598871946334839,0.1589776873588562,-2.565786838531494
1772572965916438300,7.168438232421875,-0.4352414906024933,0.1963931769132614,-2.8800768852233887
1772572965934273000,7.18627294921875,-0.14416420459747314,0.144622340798378,-2.6038131713867188
1772572965952109000,7.204109130859375,0.12660181522369385,0.1921171247959137,-1.9509508609771729
1772572965969942500,7.221942626953125,0.2871066629886627,0.03741549700498581,-1.1800389289855957
1772572965987777500,7.239777587890625,0.31612277030944824,-0.41263946890830994,-0.30772337317466736
1772572966005612500,7.257612548828125,0.24037547409534454,-0.6893614530563354,0.36453384160995483
1772572966023446800,7.27544677734375,0.2808452844619751,-0.413097620010376,0.6039929986000061
1772572966041283300,7.293283447265625,0.5558874011039734,0.32788193225860596,0.5954409241676331
1772572966059116500,7.311116455078125,0.9879218339920044,1.1844676733016968,0.5364924073219299
1772572966076951800,7.328951904296875,1.098488450050354,1.820225715637207,0.7809911966323853
1772572966094787600,7.34678759765625,0.44776421785354614,0.3248275816440582,0.7924449443817139
1772572966112621300,7.364621337890625,0.15851953625679016,-0.3900374472141266,0.7058547735214233
1772572966130455800,7.382455810546875,0.3023782968521118,-0.17547103762626648,0.5574145317077637
1772572966148290600,7.40029052734375,0.6021603941917419,0.10751228034496307,0.48685958981513977
