time,seconds_elapsed,z,y,x
1772573096090396700,0.132396728515625,-0.7555999755859375,0.5309581756591797,0.18195760250091553
1772573096108231400,0.1502314453125,-1.0398445129394531,0.8086371421813965,-0.09048670530319214
1772573096126066000,0.16806591796875,0.554713249206543,-0.3108339309692383,-0.4354304075241089
1772573096143901400,0.1859013671875,1.8898019790649414,-1.2363436222076416,0.13597828149795532
1772573096161737000,0.203737060546875,0.6302576065063477,-0.3295869827270508,0.5863765478134155
1772573096179568600,0.221568603515625,-2.351052761077881,0.7482295036315918,-0.17243343591690063
1772573096197405700,0.23940576171875,-4.024933338165283,0.6727776527404785,-1.5068186521530151
1772573096215240200,0.257240234375,-2.8436427116394043,0.09054899215698242,-2.999063014984131
1772573096233074000,0.275073974609375,-1.0408134460449219,-0.4523601531982422,-3.930753707885742
1772573096250908400,0.292908447265625,-0.7644901275634766,-0.9030599594116211,-2.827030658721924
1772573096268743200,0.3107431640625,-1.1858816146850586,-1.2912180423736572,-1.1822798252105713
1772573096286578700,0.32857861328125,-1.190901756286621,-0.8548521995544434,-0.7571631669998169
1772573096304412400,0.346412353515625,-0.44751644134521484,-0.31490540504455566,0.1660868525505066
1772573096322247400,0.364247314453125,-0.5248594284057617,-0.23720860481262207,0.5006362199783325
1772573096340081700,0.38208154296875,-0.7112712860107422,-0.2874491214752197,0.4690178632736206
1772573096357917700,0.399917724609375,-1.1320209503173828,-0.4871242046356201,0.2681591510772705
1772573096375751400,0.41775146484375,-2.2167367935180664,-1.0828897953033447,-0.07198792695999146
1772573096393582800,0.435582763671875,-3.188049793243408,-0.9160110950469971,0.005332201719284058
1772573096411408000,0.453407958984375,-2.609335422515869,-0.48017430305480957,-1.0137460231781006
1772573096429256000,0.471255859375,-0.5609016418457031,-1.6321914196014404,-1.7099751234054565
1772573096447086000,0.489086181640625,1.464925765991211,-3.669506311416626,-1.8245025873184204
1772573096464924400,0.50692431640625,-1.2863655090332031,-5.353829860687256,0.3192886710166931
1772573096482758400,0.52475830078125,-2.596254348754883,-5.074409484863281,1.758326530456543
1772573096500595700,0.542595703125,4.187938690185547,-1.3538639545440674,2.578007698059082
1772573096518428200,0.56042822265625,-0.696446418762207,2.2815535068511963,1.4286046028137207
1772573096536263400,0.578263427734375,-2.572786331176758,4.920088768005371,-1.7327359914779663
1772573096554097700,0.59609765625,-0.5226202011108398,4.749236583709717,-1.5369783639907837
1772573096571933200,0.61393310546875,6.276239395141602,6.020601749420166,0.3786363899707794
1772573096589766400,0.631766357421875,12.560758590698242,3.31186580657959,-0.2480502426624298
1772573096607600000,0.64960009765625,12.831064224243164,1.0452518463134766,-1.102693796157837
1772573096625437400,0.6674375,9.788185119628906,4.121070384979248,-0.21272054314613342
1772573096643272200,0.685272216796875,7.465951919555664,3.0813326835632324,0.7412242293357849
1772573096661105400,0.70310546875,7.363832473754883,2.384089469909668,-0.005404025316238403
1772573096678940000,0.72093994140625,13.903022766113281,0.5277228355407715,0.6087881326675415
1772573096696774700,0.738774658203125,12.110081672668457,1.3466014862060547,1.3288081884384155
1772573096714610200,0.756610107421875,4.812273025512695,5.052400588989258,2.199453353881836
1772573096732431600,0.774431640625,-2.0541324615478516,1.859184741973877,0.5772037506103516
1772573096750278400,0.7922783203125,-5.398881435394287,0.16090965270996094,-1.1531660556793213
1772573096768113000,0.81011279296875,-6.450209617614746,0.28104686737060547,-0.7719014286994934
1772573096785949000,0.827948974609375,-4.800921440124512,0.49718666076660156,0.8910733461380005
1772573096803782700,0.84578271484375,-3.838345527648926,0.4646139144897461,2.391008138656616
1772573096821617400,0.863617431640625,-5.246662139892578,-0.3725309371948242,2.3340868949890137
1772573096839452000,0.881451904296875,-6.955405235290527,-1.0066838264465332,1.054088830947876
1772573096857287400,0.899287353515625,-7.933682918548584,-1.5559477806091309,-0.138299822807312
1772573096875121400,0.917121337890625,-7.4583940505981445,-2.2947847843170166,-0.7212356328964233
1772573096892955600,0.93495556640625,-4.888047218322754,-1.787555456161499,-0.9981874227523804
1772573096910790700,0.952790771484375,-3.3856544494628906,-1.5116910934448242,-0.7109732031822205
1772573096928614000,0.97061376953125,-3.4244203567504883,-1.3323264122009277,-0.40808039903640747
1772573096946460000,0.9884599609375,-5.142373085021973,-1.0648809671401978,-0.07982082664966583
1772573096964294700,1.006294677734375,-6.160826206207275,-0.9080181121826172,-0.04934164136648178
1772573096982129400,1.02412939453125,-4.65975284576416,-1.806576132774353,-0.41107118129730225
1772573096999964700,1.041964599609375,-4.395546913146973,-2.3743996620178223,-0.7572230696678162
1772573097017798400,1.05979833984375,-5.222996234893799,-2.260652780532837,-0.9782791137695312
1772573097035633200,1.077633056640625,-5.977691650390625,-2.0464556217193604,-0.8454380631446838
1772573097053467400,1.09546728515625,-6.252776622772217,-1.895371913909912,-1.0357228517532349
1772573097071303400,1.113303466796875,-4.439425468444824,-2.4553375244140625,-1.1237664222717285
1772573097089137000,1.131136962890625,-1.7133865356445312,-3.7498016357421875,-1.5882453918457031
1772573097106972000,1.148971923828125,-0.10863208770751953,-2.860443115234375,-2.7435035705566406
1772573097124807000,1.166806884765625,-1.700554370880127,-1.1229238510131836,-2.565152168273926
1772573097142641700,1.1846416015625,-4.403484344482422,1.7658801078796387,-0.5212365388870239
1772573097160476200,1.20247607421875,1.7598628997802734,1.0637285709381104,-0.5242607593536377
1772573097178310100,1.22031005859375,11.481829643249512,-1.6148476600646973,-3.7826130390167236
1772573097196144600,1.23814453125,9.523502349853516,0.04237937927246094,-3.587906837463379
1772573097213980700,1.255980712890625,4.506770133972168,4.13898229598999,-0.4421331286430359
1772573097231814100,1.273814208984375,5.485851287841797,4.732178688049316,-0.13163110613822937
1772573097249636400,1.29163623046875,9.10811710357666,2.926213264465332,-0.9682655334472656
1772573097267483600,1.309483642578125,8.755605697631836,3.4621315002441406,-0.7034837603569031
1772573097285318400,1.327318359375,7.317743301391602,4.5845255851745605,-0.3224635720252991
1772573097303153200,1.345153076171875,7.050509452819824,5.035167217254639,0.37731263041496277
1772573097320988400,1.362988525390625,7.828167915344238,4.407730579376221,-0.08943586051464081
1772573097338822100,1.380822265625,8.326799392700195,3.7795934677124023,0.24864566326141357
1772573097356658200,1.398658203125,8.358566284179688,3.6347811222076416,1.1065088510513306
1772573097374491600,1.41649169921875,4.886558532714844,2.96714448928833,0.6474106907844543
1772573097392326700,1.43432666015625,0.40320777893066406,1.2743895053863525,-0.8449033498764038
1772573097410161000,1.452160888671875,-2.6346583366394043,0.023767471313476562,-0.7196006178855896
1772573097427996700,1.46999658203125,-4.217855930328369,-0.8986341953277588,0.28321850299835205
1772573097445830400,1.487830322265625,-4.155338764190674,-1.3893530368804932,1.204984426498413
1772573097463665200,1.5056650390625,-2.7848520278930664,-1.566706895828247,1.6536649465560913
1772573097481488400,1.52348828125,-2.1450462341308594,-2.003063917160034,0.7086642980575562
1772573097499323600,1.54132373046875,-2.3719449043273926,-1.9703378677368164,-0.42859235405921936
1772573097517160200,1.55916015625,-3.1452789306640625,-1.7842772006988525,-0.8738000988960266
1772573097535003600,1.577003662109375,-5.096278667449951,-1.533316731452942,-0.7765212059020996
1772573097552838400,1.59483837890625,-6.369572162628174,-0.7127881050109863,0.00916445255279541
1772573097570674200,1.612674072265625,-6.7663140296936035,-0.6078569889068604,0.9909911751747131
1772573097588507400,1.63050732421875,-6.5068488121032715,-0.719305157661438,1.351155400276184
1772573097606342400,1.64834228515625,-6.350882530212402,-1.1680519580841064,1.5117743015289307
1772573097624177400,1.666177490234375,-6.840237617492676,-1.9375298023223877,1.4042258262634277
1772573097642013200,1.68401318359375,-6.678082466125488,-2.098351240158081,1.7689380645751953
1772573097659846400,1.701846435546875,-5.560270309448242,-2.633423328399658,1.8025093078613281
1772573097677681200,1.71968115234375,-4.925336837768555,-3.188056230545044,0.7287557125091553
1772573097695516000,1.737515869140625,-6.045249938964844,-3.823596477508545,0.5782722234725952
1772573097713351400,1.755351318359375,-6.690910339355469,-3.479306221008301,1.277743935585022
1772573097731168000,1.77316796875,-6.297268867492676,-2.5349764823913574,0.5011266469955444
1772573097749007400,1.79100732421875,-3.765688896179199,-1.1243908405303955,-1.8595937490463257
1772573097766854700,1.808854736328125,-3.9948205947875977,0.034772634506225586,-4.184553146362305
1772573097784686000,1.82668603515625,-4.40802526473999,0.5153913497924805,-4.2805938720703125
1772573097802524200,1.844524169921875,-0.8452644348144531,1.1314215660095215,-3.044422149658203
1772573097820359200,1.862359130859375,5.451973915100098,2.69148588180542,-0.22359293699264526
1772573097838193700,1.880193603515625,7.719936370849609,3.9267520904541016,1.670719861984253
1772573097856029200,1.898029296875,10.58453369140625,4.571554660797119,1.1487828493118286
1772573097873863000,1.91586279296875,12.20435619354248,3.834909439086914,0.16185063123703003
1772573097891698000,1.933697998046875,9.92515754699707,4.808306694030762,-0.4024466872215271
1772573097909533000,1.951532958984375,8.767722129821777,5.906349182128906,0.41384899616241455
1772573097927367700,1.96936767578125,11.219602584838867,5.193439483642578,2.003920316696167
1772573097945200400,1.987200439453125,11.625699996948242,3.111578941345215,2.1763105392456055
1772573097963038000,2.005037841796875,10.308511734008789,1.094806432723999,1.061894178390503
1772573097980872000,2.022871826171875,8.280071258544922,-0.3133716583251953,-0.7781485319137573
1772573097998706400,2.04070654296875,4.163662910461426,-1.793154239654541,-2.0276827812194824
1772573098016540400,2.05854052734375,-0.5288476943969727,-2.184021472930908,-2.378406286239624
1772573098034375000,2.076375,-3.67869234085083,-1.9281812906265259,-1.638684630393982
1772573098052209700,2.094209716796875,-5.478132247924805,-1.522517204284668,-0.6322451829910278
1772573098070045700,2.112045654296875,-7.549083232879639,-1.9764423370361328,0.32848525047302246
1772573098087879000,2.12987890625,-8.260942459106445,-1.5746774673461914,-0.2525426149368286
1772573098105699000,2.147698974609375,-7.7299957275390625,-1.2650259733200073,-1.3534592390060425
1772573098123536600,2.16553662109375,-6.584074974060059,-1.1490974426269531,-1.0985854864120483
1772573098141386800,2.18338671875,-5.4925971031188965,-1.4576857089996338,-0.3731990456581116
1772573098159218400,2.201218505859375,-4.4465484619140625,-0.6239994168281555,0.18512022495269775
1772573098177052700,2.219052734375,-4.307977199554443,0.07445979118347168,0.5532516837120056
1772573098194887000,2.236886962890625,-3.961886405944824,-0.09269142150878906,0.30455243587493896
1772573098212723700,2.2547236328125,-3.737853527069092,-0.5122140645980835,-0.10731261968612671
1772573098230556400,2.272556396484375,-3.4746170043945312,-0.9405254125595093,-0.25489842891693115
1772573098248392400,2.290392333984375,-3.644674301147461,-1.2397303581237793,-0.27198415994644165
1772573098266227000,2.30822705078125,-3.9303441047668457,-1.2093541622161865,-0.011219620704650879
1772573098284061700,2.326061767578125,-4.653939247131348,-1.3125182390213013,0.05030691623687744
1772573098301896200,2.343896240234375,-5.9361114501953125,-1.3826086521148682,-0.026001334190368652
1772573098319732700,2.361732666015625,-7.148341178894043,-1.7428162097930908,0.09753227233886719
1772573098337565400,2.3795654296875,-7.249404430389404,-2.1066579818725586,0.43730270862579346
1772573098355400200,2.397400146484375,-5.118584632873535,-1.795632004737854,0.9723423719406128
1772573098373234700,2.415234619140625,-2.623093605041504,-0.8219380378723145,1.4186687469482422
1772573098391069700,2.433069580078125,0.03802299499511719,1.9226112365722656,-0.5444962978363037
1772573098408904700,2.45090478515625,0.6528615951538086,3.999206781387329,-1.9235866069793701
1772573098426739200,2.4687392578125,3.0520362854003906,4.188392639160156,-2.976529598236084
1772573098444574000,2.486573974609375,9.26779842376709,2.7017860412597656,-3.47133731842041
1772573098462408400,2.504408447265625,16.09847640991211,-0.5821056365966797,-0.7600438594818115
1772573098480243700,2.52224365234375,17.816425323486328,1.2566871643066406,1.8812289237976074
1772573098498078200,2.540078125,12.692742347717285,1.9161098003387451,1.3037629127502441
1772573098515912700,2.55791259765625,8.615421295166016,3.113729953765869,-2.554786205291748
1772573098533735200,2.575735107421875,7.8139753341674805,2.387265682220459,-4.007713794708252
1772573098551577000,2.5935771484375,7.842597961425781,2.3680057525634766,-3.7832982540130615
1772573098569412400,2.611412353515625,6.721714019775391,1.8430500030517578,-2.4234702587127686
1772573098587252000,2.629251953125,4.84844970703125,1.8211708068847656,-0.644295871257782
1772573098605087000,2.6470869140625,3.062563896179199,2.57795786857605,0.8550864458084106
1772573098622921200,2.664921142578125,0.7640714645385742,2.6265969276428223,1.2151625156402588
1772573098640756200,2.682756103515625,-1.7307286262512207,1.5196967124938965,0.7432071566581726
1772573098658590700,2.7005908203125,-4.139495849609375,0.8137123584747314,0.38423505425453186
1772573098676426000,2.718426025390625,-5.99751615524292,-0.13657927513122559,-0.08822891861200333
1772573098694260500,2.736260498046875,-6.217926025390625,-0.9436397552490234,0.1496170461177826
1772573098712095000,2.754094970703125,-5.172089576721191,-0.8611500263214111,1.131922721862793
1772573098729929700,2.7719296875,-3.8186235427856445,-0.10971057415008545,1.889434576034546
1772573098747764700,2.7897646484375,-3.3080525398254395,-0.32555997371673584,1.0448564291000366
1772573098765596400,2.807596435546875,-4.596246719360352,-0.6935157179832458,-0.3893967866897583
1772573098783434000,2.82543408203125,-6.359346389770508,-0.8924328684806824,-1.367418885231018
1772573098801272300,2.843272216796875,-6.383325099945068,-1.0969152450561523,-1.5385379791259766
1772573098819103500,2.861103515625,-4.321185111999512,-1.4970805644989014,-1.382599949836731
1772573098836938200,2.878938232421875,-2.177687644958496,-1.510594367980957,-1.1065261363983154
1772573098854773000,2.89677294921875,-1.3790950775146484,-1.218891978263855,-0.7439382076263428
1772573098872608000,2.91460791015625,-2.606574058532715,-1.28750741481781,-0.7440592646598816
1772573098890442500,2.9324423828125,-4.372048377990723,-1.2436792850494385,-0.7244479060173035
1772573098908277500,2.950277587890625,-5.360908508300781,-1.0614919662475586,-0.4905771017074585
1772573098926112300,2.9681123046875,-5.456287860870361,-1.1332809925079346,-0.6646048426628113
1772573098943947000,2.985947021484375,-5.943325519561768,-1.6338810920715332,-0.876514732837677
1772573098961782000,3.003781982421875,-5.6113176345825195,-1.791226863861084,-0.7242075204849243
1772573098979616300,3.0216162109375,-4.52488899230957,-2.011662244796753,-0.18569162487983704
1772573098997451800,3.03945166015625,-5.180283546447754,-1.6915721893310547,0.06278723478317261
1772573099015285500,3.057285400390625,-5.424581050872803,-0.2565009593963623,-0.6141313314437866
1772573099033109200,3.075109130859375,0.575312614440918,1.5847933292388916,0.21679437160491943
1772573099050964200,3.092964111328125,11.622920036315918,-0.5134180784225464,1.1830828189849854
1772573099068791600,3.11079150390625,16.332992553710938,-1.1803388595581055,1.3730591535568237
1772573099086625300,3.128625244140625,11.792922019958496,1.5566198825836182,2.9334158897399902
1772573099104460300,3.146460205078125,5.4437665939331055,4.096240997314453,3.075469732284546
1772573099122295300,3.16429541015625,4.251775741577148,2.8749594688415527,-0.6703358292579651
1772573099140130600,3.182130615234375,7.919009208679199,1.6601920127868652,-2.1523938179016113
1772573099157964500,3.199964599609375,9.802652359008789,2.348743200302124,-0.27228692173957825
1772573099175799000,3.217799072265625,10.023214340209961,2.969228982925415,0.6402610540390015
1772573099193634300,3.23563427734375,9.00653076171875,2.2276008129119873,-0.17972080409526825
1772573099211469800,3.2534697265625,5.411659240722656,1.9835684299468994,-1.3911083936691284
1772573099229303600,3.271303466796875,2.5682945251464844,1.9349610805511475,-1.5524401664733887
1772573099247134500,3.289134521484375,2.1689929962158203,1.8729822635650635,-1.3341764211654663
1772573099264973000,3.30697314453125,2.0481672286987305,1.6638922691345215,-1.1941996812820435
1772573099282809000,3.32480908203125,0.36221981048583984,0.7869288921356201,0.2808116674423218
1772573099300642800,3.342642822265625,-2.7990474700927734,1.8296663761138916,3.70931077003479
1772573099318477800,3.360477783203125,-6.431164741516113,4.118213653564453,6.488225936889648
1772573099336312300,3.378312255859375,-7.129335880279541,2.1387999057769775,4.74229097366333
1772573099354147800,3.39614794921875,-4.911604881286621,-1.704784631729126,-0.9598665237426758
1772573099371981600,3.413981689453125,-3.5141916275024414,-3.1241374015808105,-4.313724994659424
1772573099389816600,3.431816650390625,-3.541884422302246,-2.95676589012146,-3.4166064262390137
1772573099407651300,3.4496513671875,-5.0141801834106445,-1.2788499593734741,-0.07566332817077637
1772573099425487600,3.467487548828125,-7.3547468185424805,0.35128188133239746,2.331590175628662
1772573099443321600,3.485321533203125,-8.908373832702637,0.5596593618392944,1.9524047374725342
1772573099461156000,3.503156005859375,-8.765643119812012,-0.9182127118110657,0.7304321527481079
1772573099478979600,3.5209794921875,-6.85191011428833,-2.5187032222747803,-0.9302759170532227
1772573099496814600,3.538814697265625,-4.484066963195801,-2.7951292991638184,-0.6915082335472107
1772573099514661600,3.55666162109375,-2.49526309967041,-2.687775135040283,-0.45374542474746704
1772573099532482300,3.574482421875,-1.083247184753418,-2.718606948852539,-0.2528923451900482
1772573099550329900,3.592329833984375,-1.4739627838134766,-2.525686264038086,0.12465718388557434
1772573099568165600,3.61016552734375,-3.784432888031006,-2.4582715034484863,-0.20068234205245972
1772573099585993700,3.62799365234375,-6.2802019119262695,-2.387362003326416,-0.49502092599868774
1772573099603835000,3.6458349609375,-7.955258369445801,-1.6231006383895874,0.1091570258140564
1772573099621668900,3.6636689453125,-7.017245292663574,-0.8926464319229126,0.34869813919067383
1772573099639505000,3.6815048828125,-4.806645393371582,-0.8714659214019775,0.010445207357406616
1772573099657338600,3.699338623046875,-3.6517810821533203,-0.14836716651916504,-0.33736714720726013
1772573099675170300,3.71717041015625,-2.971404552459717,0.4650733470916748,-0.9132777452468872
1772573099693011200,3.73501123046875,4.837480545043945,1.3069860935211182,0.006872832775115967
1772573099710843000,3.7528427734375,14.291008949279785,-0.5882289409637451,0.9380067586898804
1772573099728678400,3.770678466796875,17.401588439941406,-2.3931655883789062,1.4364171028137207
1772573099746512400,3.788512451171875,16.200031280517578,-2.3512790203094482,0.1281677484512329
1772573099764348200,3.80634814453125,14.320699691772461,-2.0251729488372803,-1.5363765954971313
1772573099782182100,3.82418212890625,11.771039009094238,-0.15884876251220703,-1.6128411293029785
1772573099800017200,3.84201708984375,8.004117965698242,2.875589609146118,-0.36883342266082764
1772573099817852000,3.859851806640625,5.557669639587402,4.375191688537598,-0.22640210390090942
1772573099835686700,3.877686767578125,5.250561714172363,3.828094482421875,-1.3482617139816284
1772573099853521400,3.895521484375,7.378866195678711,2.3802311420440674,-1.6813284158706665
1772573099871356400,3.9133564453125,8.413490295410156,3.889803409576416,0.15399949252605438
1772573099889191000,3.93119091796875,6.889763832092285,4.804376125335693,0.061734557151794434
1772573099907026200,3.949026123046875,4.84683895111084,3.337235450744629,-2.7246851921081543
1772573099924860000,3.96685986328125,3.137420654296875,1.320148229598999,-3.575662612915039
1772573099942696700,3.98469677734375,-0.9672026634216309,-0.6738195419311523,-3.1536974906921387
1772573099960530700,4.00253076171875,-5.734780311584473,-0.6956310272216797,-1.3072715997695923
1772573099978365400,4.020365478515625,-8.067706108093262,-0.387178897857666,0.4788343608379364
1772573099996200200,4.0382001953125,-8.316449165344238,-0.8952913284301758,0.43185433745384216
1772573100014035000,4.056034912109375,-7.314067840576172,-1.6407785415649414,0.11173433065414429
1772573100031869700,4.07386962890625,-6.218575477600098,-2.482973575592041,0.07954472303390503
1772573100049701400,4.091701416015625,-5.574991226196289,-1.9129316806793213,0.305147647857666
1772573100067542300,4.109542236328125,-6.022673606872559,-1.2159461975097656,0.5680488348007202
1772573100085371100,4.12737109375,-5.93406343460083,-1.4425394535064697,-0.04627469182014465
1772573100103211300,4.145211181640625,-5.458183765411377,-2.01377272605896,-0.4315626919269562
1772573100121044700,4.163044677734375,-4.7871294021606445,-1.3842685222625732,0.4067234694957733
1772573100138878500,4.18087841796875,-3.3902859687805176,-1.0171597003936768,0.6339768171310425
1772573100156713500,4.19871337890625,-1.7544021606445312,-2.0909314155578613,-0.39364099502563477
1772573100174548000,4.2165478515625,-1.758152961730957,-2.0842597484588623,-0.49023979902267456
1772573100192383000,4.234383056640625,-3.1167526245117188,-2.118320941925049,-0.3998885154724121
1772573100210217700,4.2522177734375,-5.1066460609436035,-2.2371063232421875,-0.6635366678237915
1772573100228053200,4.27005322265625,-6.258139610290527,-2.091984272003174,-0.49583831429481506
1772573100245887700,4.2878876953125,-6.595451354980469,-2.3766613006591797,-0.4280383884906769
1772573100263722800,4.30572265625,-5.832693576812744,-3.1030263900756836,-1.275962233543396
1772573100281557500,4.3235576171875,-3.967195510864258,-2.863600015640259,-2.11078143119812
1772573100299387100,4.34138720703125,-3.230038642883301,-0.8931899070739746,-1.5636298656463623
1772573100317214500,4.35921435546875,-3.311983108520508,0.6057858467102051,-0.8563578724861145
1772573100335061800,4.377061767578125,-1.0388565063476562,-0.4119834899902344,-1.0455840826034546
1772573100352884000,4.394884033203125,4.456872940063477,-1.8585200309753418,-1.3145205974578857
1772573100370731500,4.4127314453125,9.351682662963867,-0.7346668243408203,-0.5069683790206909
1772573100388566300,4.430566162109375,7.246297836303711,0.24943065643310547,0.7260975241661072
1772573100406401300,4.4484013671875,3.449355125427246,1.687060832977295,0.7194370627403259
1772573100424236300,4.466236328125,4.61024284362793,1.9380488395690918,-0.22877663373947144
1772573100442070800,4.48407080078125,8.37710952758789,2.257965564727783,-0.01937347650527954
1772573100459905300,4.5019052734375,10.574396133422852,2.9335923194885254,0.16352398693561554
1772573100477740500,4.519740478515625,9.7452974319458,3.847227096557617,1.143017053604126
1772573100495575000,4.537574951171875,7.1263580322265625,3.6945042610168457,3.8392679691314697
1772573100513410300,4.555410400390625,2.503591537475586,3.6678600311279297,4.271484375
1772573100531244800,4.573244873046875,-0.7679777145385742,2.3919596672058105,0.8131119012832642
1772573100549081000,4.5910810546875,-2.4524998664855957,1.5422449111938477,-3.325796604156494
1772573100566914000,4.6089140625,-2.29490327835083,1.3137922286987305,-1.3267872333526611
1772573100584746500,4.62674658203125,-1.7311758995056152,0.6417336463928223,1.8130054473876953
1772573100602584300,4.644584228515625,-1.7366943359375,-0.652306079864502,2.5293002128601074
1772573100620418800,4.662418701171875,-1.3217225074768066,-1.9616084098815918,1.601732611656189
1772573100638253800,4.68025390625,-1.1224260330200195,-3.9381561279296875,-1.0456111431121826
1772573100656088600,4.698088623046875,-1.4526443481445312,-4.75742769241333,-2.892810583114624
1772573100673923300,4.71592333984375,-2.5239315032958984,-4.063600063323975,-3.032651424407959
1772573100691758300,4.73375830078125,-4.668891429901123,-2.1990604400634766,-2.196005344390869
1772573100709593000,4.751593017578125,-5.177960395812988,-0.413097620010376,-0.6569663882255554
1772573100727428400,4.769428466796875,-3.7425851821899414,0.39357614517211914,-0.024509191513061523
1772573100745263000,4.78726318359375,-2.5564193725585938,0.006463050842285156,-0.34865105152130127
1772573100763097900,4.805097900390625,-3.058892250061035,-0.30410194396972656,-0.8993831872940063
1772573100780932600,4.8229326171875,-4.225855350494385,0.029773712158203125,-1.2953286170959473
1772573100798767600,4.840767578125,-4.313846111297607,0.258148193359375,-0.9594196081161499
1772573100816606700,4.858606689453125,-4.186509609222412,0.25807833671569824,-0.561848521232605
1772573100834437000,4.87643701171875,-4.6893510818481445,-0.44774794578552246,-0.9309659600257874
1772573100852271900,4.89427197265625,-4.404550075531006,-1.168847680091858,-1.275853157043457
1772573100870107000,4.91210693359375,-4.499314308166504,-1.8651105165481567,-1.442047357559204
1772573100887942000,4.92994189453125,-5.035089492797852,-1.6536612510681152,-1.6184074878692627
1772573100905777000,4.94777685546875,-4.41202449798584,-1.367368221282959,-1.6453951597213745
1772573100923611600,4.965611572265625,-2.3697690963745117,-0.6857708692550659,-1.7840361595153809
1772573100941446400,4.9834462890625,-0.37777137756347656,0.15590357780456543,-2.031547784805298
1772573100959281700,5.00128173828125,3.2878103256225586,0.3847196102142334,-1.1586850881576538
1772573100977116000,5.019115966796875,6.939363479614258,0.8511860370635986,-0.22301438450813293
1772573100994950100,5.0369501953125,10.504044532775879,1.190521240234375,1.2518260478973389
1772573101012785200,5.05478515625,11.860261917114258,-0.20287442207336426,0.07400305569171906
1772573101030622200,5.072622314453125,14.233899116516113,-0.16103386878967285,0.1258019059896469
1772573101048455700,5.09045556640625,14.482345581054688,0.5869665145874023,0.3630960285663605
1772573101066290400,5.10829052734375,9.719356536865234,2.2664196491241455,0.6425607204437256
1772573101084125200,5.126125244140625,6.970727920532227,5.205744743347168,1.2985085248947144
1772573101101960000,5.1439599609375,10.26856803894043,4.992104530334473,2.374446153640747
1772573101119789800,5.161789794921875,12.08864974975586,3.2839715480804443,1.8429348468780518
1772573101137629400,5.17962939453125,9.09665584564209,2.586472988128662,0.3054155707359314
1772573101155464200,5.197464111328125,3.278529167175293,3.161712169647217,-0.6803771257400513
1772573101173299200,5.21529931640625,-2.599031448364258,3.339215040206909,-0.6274358034133911
1772573101191134000,5.233134033203125,-4.751880645751953,2.2858059406280518,-0.26880520582199097
1772573101208956700,5.250956787109375,-4.445575714111328,0.5700933933258057,-0.3676747679710388
1772573101226804000,5.268803955078125,-4.796757698059082,-1.0629165172576904,-0.8064078092575073
1772573101244638700,5.286638671875,-6.0208330154418945,-2.011949300765991,-0.7520617246627808
1772573101262473500,5.304473388671875,-6.311469078063965,-1.966245412826538,-0.137651264667511
1772573101280308500,5.32230859375,-5.675685882568359,-2.2236227989196777,-0.3199993968009949
1772573101298143200,5.340143310546875,-5.660412788391113,-1.732422113418579,-0.35431236028671265
1772573101315978200,5.357978271484375,-5.561039447784424,-1.6047635078430176,-0.5565372705459595
1772573101333813000,5.37581298828125,-5.624339580535889,-1.6235147714614868,-0.8667964935302734
1772573101351647700,5.393647705078125,-6.451665878295898,-1.44257652759552,-0.9791551232337952
1772573101369482500,5.411482421875,-6.780091285705566,-1.1409404277801514,-0.9434906244277954
1772573101387317500,5.4293173828125,-6.882671356201172,-0.5323083400726318,-1.0335192680358887
1772573101405152800,5.44715283203125,-6.974612712860107,-0.3799583911895752,-1.001874327659607
1772573101422987300,5.4649873046875,-7.534353733062744,-0.8330461978912354,-0.8609946966171265
1772573101440822000,5.482822021484375,-7.3531060218811035,-1.3045458793640137,-0.38027435541152954
1772573101458655700,5.50065576171875,-6.748129844665527,-2.093468189239502,-0.3960641622543335
1772573101476490800,5.51849072265625,-5.325876235961914,-2.947200298309326,-0.8107060194015503
1772573101494316500,5.536316650390625,-3.6178503036499023,-3.4996225833892822,-1.651092767715454
1772573101512154000,5.554154052734375,-2.921445846557617,-3.7331149578094482,-1.5878405570983887
1772573101529997800,5.571997802734375,-3.246511936187744,-3.43466854095459,-1.6921576261520386
1772573101547829800,5.589829833984375,-4.302724838256836,-3.036533832550049,-2.1206886768341064
1772573101565667300,5.607667236328125,-3.511582374572754,-2.838313102722168,-2.5929503440856934
1772573101583501000,5.6255009765625,-1.8416576385498047,-1.9578872919082642,-3.8862645626068115
1772573101601337300,5.64333740234375,3.8774824142456055,-0.4068183898925781,-3.174121141433716
1772573101619170600,5.661170654296875,7.904486656188965,0.6734404563903809,1.5288810729980469
1772573101637006600,5.679006591796875,5.254415512084961,1.0503435134887695,3.77268648147583
1772573101654840300,5.69684033203125,7.524005889892578,1.417170524597168,2.1564388275146484
1772573101672674600,5.714674560546875,12.690665245056152,1.2108404636383057,1.6513557434082031
1772573101690510300,5.73251025390625,15.144180297851562,-0.7761168479919434,3.328277826309204
1772573101708345900,5.750345947265625,15.414178848266602,-1.0031673908233643,2.6841611862182617
1772573101726179800,5.768179931640625,9.778471946716309,0.23010468482971191,0.7654697299003601
1772573101744014800,5.786014892578125,8.842591285705566,4.746253967285156,0.9825034141540527
1772573101761849600,5.803849609375,9.69593334197998,4.628249645233154,1.6193263530731201
1772573101779685400,5.821685302734375,8.87027359008789,3.1179299354553223,1.45786452293396
1772573101797503700,5.839503662109375,6.970426559448242,1.810438632965088,-0.8218168020248413
1772573101815354600,5.857354736328125,5.903839111328125,1.6939496994018555,-1.3361055850982666
1772573101833189000,5.875189208984375,4.480049133300781,1.5373318195343018,-0.022348463535308838
1772573101851017500,5.893017578125,2.1260299682617188,1.3297090530395508,0.5736415982246399
1772573101868858600,5.910858642578125,0.5756359100341797,0.8895642757415771,0.3128948211669922
1772573101886699000,5.928698974609375,-2.075371265411377,-0.623929500579834,0.6744344234466553
1772573101904528600,5.946528564453125,-5.424394130706787,-2.4430012702941895,0.08373963832855225
1772573101922364700,5.96436474609375,-6.895484924316406,-1.762803316116333,-1.045296549797058
1772573101940198000,5.982197998046875,-6.56812858581543,-1.0037696361541748,-0.6830664873123169
1772573101958033200,6.000033203125,-5.652488708496094,-0.05710721015930176,0.24374651908874512
1772573101975867600,6.01786767578125,-4.354877471923828,-0.09056758880615234,-0.2956559658050537
1772573101993704200,6.0357041015625,-3.7243237495422363,0.03843402862548828,-0.8071252107620239
1772573102011536100,6.0535361328125,-3.584871768951416,-0.2689328193664551,-1.4634941816329956
1772573102029374200,6.071374267578125,-4.840447425842285,-0.7590749263763428,-1.9640965461730957
1772573102047208400,6.08920849609375,-5.935801029205322,-1.308946132659912,-2.1978600025177
1772573102065045200,6.107045166015625,-5.754654884338379,-0.2221543788909912,-1.7084256410598755
1772573102082876000,6.1248759765625,-4.992855548858643,0.6386263370513916,-0.5424717664718628
1772573102100713500,6.14271337890625,-4.913036346435547,-0.21952223777770996,0.47124195098876953
1772573102118547000,6.160546875,-5.036883354187012,-1.4224705696105957,0.4071540832519531
1772573102136382700,6.1783828125,-5.185724258422852,-1.8497703075408936,-0.24373257160186768
1772573102154216400,6.196216552734375,-5.614556312561035,-1.422214388847351,-0.0497746467590332
1772573102172051500,6.214051513671875,-5.513326644897461,-1.3373801708221436,0.15865039825439453
1772573102189886500,6.231886474609375,-4.5609259605407715,-1.377431869506836,0.2529590129852295
1772573102207722200,6.24972216796875,-2.2897605895996094,-0.6964704990386963,-0.7052786350250244
1772573102225556200,6.26755615234375,0.5967884063720703,0.7047548294067383,-0.4595792293548584
1772573102243390000,6.285389892578125,-1.7292356491088867,1.089637279510498,0.7759295701980591
1772573102261213400,6.30321337890625,-0.8192958831787109,-0.023119449615478516,1.8876663446426392
1772573102279050000,6.321050048828125,5.362987518310547,-1.1092400550842285,1.3674298524856567
1772573102296897300,6.338897216796875,8.00916576385498,-1.016158103942871,0.2170504331588745
1772573102314730800,6.356730712890625,3.8186445236206055,-1.174494743347168,-0.8420118093490601
1772573102332565800,6.374565673828125,4.594564437866211,-0.8175749778747559,-1.004427194595337
1772573102350401300,6.3924013671875,6.481523513793945,1.352097511291504,-1.497789740562439
1772573102368235000,6.410235107421875,5.031075477600098,4.05557918548584,-0.2568475604057312
1772573102386070500,6.428070556640625,5.31748104095459,5.590978145599365,1.8110448122024536
1772573102403905300,6.4459052734375,8.164203643798828,4.5220947265625,2.2785611152648926
1772573102421741300,6.4637412109375,8.789785385131836,2.455136775970459,1.0490238666534424
1772573102439575000,6.481574951171875,8.083808898925781,1.2977757453918457,0.2688436508178711
1772573102457409300,6.4994091796875,7.520429611206055,1.1437864303588867,-0.07865530252456665
1772573102475244800,6.517244873046875,4.8724822998046875,0.6543269157409668,-0.26160192489624023
1772573102493080600,6.53508056640625,0.5499067306518555,-0.24474811553955078,-0.08151936531066895
1772573102510912800,6.552912841796875,-2.1133041381835938,-0.7986979484558105,0.38115426898002625
1772573102528750800,6.570750732421875,-3.802779197692871,-1.3550894260406494,0.5853985548019409
1772573102546583600,6.58858349609375,-6.761861324310303,-2.6554453372955322,0.13670319318771362
1772573102564420900,6.6064208984375,-8.401388168334961,-3.5742597579956055,-0.9681557416915894
1772573102582254300,6.62425439453125,-6.237666130065918,-3.7842516899108887,-1.6375527381896973
1772573102600088600,6.642088623046875,-3.2162904739379883,-3.080791473388672,-1.4942011833190918
1772573102617923600,6.659923583984375,-2.2340168952941895,-2.011120557785034,-0.8279956579208374
1772573102635759400,6.67775927734375,-2.2144460678100586,-0.7722090482711792,-0.011498808860778809
1772573102653594600,6.6955947265625,-2.6174888610839844,0.26325011253356934,0.7654320001602173
1772573102671428400,6.713428466796875,-2.8035330772399902,0.6904399394989014,0.7449985146522522
1772573102689250600,6.73125048828125,-2.484055519104004,0.22246360778808594,0.0017086528241634369
1772573102707095300,6.74909521484375,-1.4879255294799805,-0.7713791131973267,-0.7016589045524597
1772573102724933400,6.766933349609375,-1.3703126907348633,-1.730774164199829,-1.0427165031433105
1772573102742766600,6.7847666015625,-2.7217907905578613,-2.073931932449341,-0.6736810207366943
1772573102760604400,6.8026044921875,-4.5143866539001465,-1.682424783706665,0.10976757854223251
1772573102778438700,6.820438720703125,-5.894524097442627,-0.8664646148681641,0.7668282985687256
1772573102796273000,6.83827294921875,-6.467520236968994,-0.9461060762405396,0.46018874645233154
1772573102814107400,6.856107421875,-5.673043727874756,-1.6414190530776978,-0.23740273714065552
1772573102831942700,6.873942626953125,-3.995945930480957,-2.0649611949920654,-0.8571414351463318
1772573102849778400,6.8917783203125,-2.9552688598632812,-2.4055464267730713,-1.6146681308746338
1772573102867612200,6.909612060546875,-2.2637500762939453,-1.427525281906128,-2.231158971786499
1772573102885447200,6.927447265625,-2.586400032043457,0.8961615562438965,-1.516284465789795
1772573102903282400,6.945282470703125,-2.5894904136657715,2.0400595664978027,0.266232430934906
1772573102921118000,6.963117919921875,-0.6670904159545898,1.4590001106262207,-0.7785522937774658
1772573102938951700,6.98095166015625,3.3102359771728516,1.6798734664916992,-1.8232028484344482
1772573102956786400,6.998786376953125,5.063150405883789,1.282792091369629,-0.5804398655891418
1772573102974621400,7.016621337890625,6.812055587768555,1.359236240386963,1.4786373376846313
1772573102992457500,7.03445751953125,6.980609893798828,1.6554808616638184,1.433404564857483
1772573103010291200,7.052291259765625,7.397709846496582,3.879547119140625,0.5989444255828857
1772573103028126200,7.070126220703125,7.095767974853516,5.3932647705078125,1.1212584972381592
1772573103045961500,7.08796142578125,6.165682792663574,5.321401119232178,0.6740036010742188
1772573103063797200,7.10579736328125,5.140049934387207,4.064688205718994,-0.5937079191207886
1772573103081631000,7.123630859375,6.431844711303711,2.828402042388916,-0.12454798817634583
1772573103099465700,7.1414658203125,7.808838844299316,1.6336817741394043,1.0312777757644653
1772573103117288400,7.159288330078125,6.544857978820801,-0.016514301300048828,0.8729156851768494
1772573103135138300,7.17713818359375,3.956026077270508,-0.8926939964294434,-0.14002364873886108
1772573103152968400,7.194968505859375,2.789419174194336,-0.33221006393432617,-0.21375025808811188
1772573103170808600,7.21280859375,2.058835029602051,0.8076190948486328,1.0708985328674316
1772573103188628000,7.2306279296875,0.693760871887207,2.0264017581939697,2.3611321449279785
1772573103206476500,7.2484765625,-1.0737333297729492,2.1630640029907227,3.259645700454712
1772573103224310500,7.266310546875,-2.031613349914551,1.129729986190796,2.9075827598571777
1772573103242145500,7.2841455078125,-1.9868812561035156,-1.271934986114502,0.7177698612213135
1772573103259980000,7.30197998046875,-1.5155014991760254,-3.654266834259033,-1.7434178590774536
1772573103277816000,7.319816162109375,-1.7644405364990234,-4.249988555908203,-2.6720175743103027
1772573103295649800,7.33764990234375,-3.180044174194336,-2.9880475997924805,-1.9763405323028564
1772573103313483500,7.3554833984375,-4.927355766296387,-1.148866057395935,-0.559981107711792
1772573103331321600,7.373321533203125,-6.007740497589111,-0.1551966667175293,0.500649631023407
1772573103349154300,7.391154296875,-5.71442985534668,-0.3821291923522949,0.43215128779411316
1772573103366991600,7.40899169921875,-4.39545202255249,-1.4153133630752563,-0.293953001499176
1772573103384822800,7.42682275390625,-3.143068313598633,-2.476647138595581,-0.8608952164649963
1772573103402660400,7.444660400390625,-3.3919758796691895,-3.103872060775757,-0.7156289219856262
1772573103420496000,7.462495849609375,-4.827338218688965,-2.6742911338806152,0.22978061437606812
1772573103438329300,7.480329345703125,-5.71354866027832,-2.0442235469818115,1.132257103919983
1772573103456164000,7.4981640625,-5.790506839752197,-2.078969955444336,1.2970545291900635
1772573103473998000,7.515998046875,-5.579724311828613,-2.5538573265075684,0.9382143020629883
1772573103491823400,7.5338232421875,-5.127811431884766,-2.592205762863159,0.24386721849441528
1772573103509660400,7.551660400390625,-4.661168098449707,-1.7559235095977783,-0.4764660596847534
1772573103527492000,7.5694921875,-4.900092601776123,-0.6451432704925537,-1.1053131818771362
1772573103545340200,7.587340087890625,-5.274724006652832,0.9387907981872559,-0.6539340019226074
1772573103563175000,7.6051748046875,-1.2151556015014648,3.2745347023010254,0.5891794562339783
1772573103581007400,7.62300732421875,4.528301239013672,3.8571019172668457,0.35756850242614746
1772573103598845000,7.640844970703125,7.326650619506836,2.2986655235290527,-0.6303080320358276
1772573103616674600,7.658674560546875,9.382354736328125,0.9723367691040039,-0.288033664226532
1772573103634514400,7.676514404296875,9.741235733032227,0.7576603889465332,-1.4966459274291992
1772573103652348200,7.69434814453125,8.569060325622559,1.3951945304870605,-2.6018595695495605
1772573103670183000,7.712182861328125,6.238622665405273,3.1548094749450684,-1.7034118175506592
1772573103688020000,7.73002001953125,5.616942405700684,5.089845657348633,0.17845642566680908
1772573103705854000,7.74785400390625,5.8183135986328125,4.818133354187012,0.9604284167289734
1772573103723688000,7.76568798828125,6.740094184875488,3.106680393218994,0.49146124720573425
1772573103741523000,7.78352294921875,8.549617767333984,0.9724762439727783,-0.36728519201278687
1772573103759357700,7.801357666015625,6.809662818908691,-0.7930879592895508,-1.8170146942138672
1772573103777186800,7.819186767578125,2.5222158432006836,-0.983313798904419,-3.4745421409606934
1772573103795026000,7.83702587890625,-2.5173420906066895,-0.17067623138427734,-3.201472520828247
1772573103812862500,7.854862548828125,-5.827247619628906,1.1810369491577148,-1.515406847000122
1772573103830699000,7.872698974609375,-5.976461410522461,0.717322826385498,-0.2944466471672058
1772573103848532200,7.8905322265625,-4.827254295349121,0.42654943466186523,0.338503897190094
1772573103866368000,7.908367919921875,-3.33917236328125,-0.4390547275543213,0.7055907845497131
1772573103884202000,7.926201904296875,-2.3743081092834473,-1.6012113094329834,0.5656005144119263
1772573103902037000,7.944037109375,-2.051332950592041,-2.460545778274536,0.0059708356857299805
1772573103919872800,7.961872802734375,-2.2184553146362305,-2.477555513381958,0.03545248508453369
1772573103937706500,7.97970654296875,-2.4365339279174805,-2.0528147220611572,0.7151479125022888
1772573103955541500,7.99754150390625,-2.4276418685913086,-1.6908578872680664,0.9951707720756531
1772573103973376500,8.01537646484375,-2.489382743835449,-1.443524956703186,1.0957509279251099
1772573103991212300,8.03321240234375,-2.76751708984375,-1.4280730485916138,0.9919334650039673
1772573104009046300,8.05104638671875,-2.982649326324463,-1.3834178447723389,0.5016790628433228
1772573104026881500,8.068881591796876,-3.781245231628418,-1.8131535053253174,0.26839426159858704
1772573104044716300,8.08671630859375,-4.241108417510986,-1.8915085792541504,0.5643528699874878
1772573104062552300,8.10455224609375,-4.563104629516602,-1.771765947341919,0.878260612487793
