time,seconds_elapsed,z,y,x
1772573096039142000,0.081141845703125,0.059406645596027374,0.2503020465373993,0.08979719132184982
1772573096056945000,0.09894482421875,-0.0013744467869400978,0.38835757970809937,-0.025503624230623245
1772573096074783500,0.116783447265625,-0.11927144229412079,0.4795292317867279,-0.09254608303308487
1772573096092626000,0.1346259765625,-0.24174992740154266,0.28298333287239075,-0.04077525436878204
1772573096110460700,0.152460693359375,-0.4349360466003418,-0.20876319706439972,0.020005837082862854
1772573096128294700,0.170294677734375,-0.4688390791416168,-0.26251932978630066,0.11194105446338654
1772573096146129700,0.188129638671875,-0.3741549551486969,0.25366178154945374,0.3150537610054016
1772573096163968000,0.205968017578125,-0.4599815309047699,0.7290676832199097,0.46639561653137207
1772573096181796900,0.223796875,-0.6443101167678833,0.5736024379730225,0.1316414624452591
1772573096199636500,0.241636474609375,-0.7435756921768188,-0.11682797968387604,-0.44364088773727417
1772573096217469400,0.259469482421875,-0.5766568183898926,-0.6698137521743774,-0.7641924023628235
1772573096235303200,0.27730322265625,0.023365596309304237,-0.7266241908073425,-0.7408268451690674
1772573096253138000,0.295137939453125,0.6861543655395508,-0.7820602059364319,-0.49144110083580017
1772573096270972400,0.312972412109375,0.8895725011825562,-0.9069821834564209,-0.21853704750537872
1772573096288808200,0.33080810546875,0.9976956844329834,-0.8329147696495056,-0.014202617108821869
1772573096306642000,0.348641845703125,1.0093021392822266,-0.5067127346992493,-0.08552113175392151
1772573096324476700,0.3664765625,0.9007207751274109,0.1238529309630394,-0.36972618103027344
1772573096342311000,0.384310791015625,0.7583891749382019,0.6600399017333984,-0.6436992287635803
1772573096360147000,0.40214697265625,0.6068946123123169,1.0919215679168701,-0.6939429044723511
1772573096377980700,0.419980712890625,0.5410739183425903,1.3393220901489258,-0.6572909951210022
1772573096395812400,0.437812255859375,0.5021312236785889,1.1614075899124146,-0.6553056836128235
1772573096413637400,0.455637451171875,0.6679811477661133,0.6429356932640076,-0.4876231849193573
1772573096431485200,0.473485107421875,1.3923145532608032,0.5435173511505127,-0.10873401165008545
1772573096449315600,0.491315673828125,2.422996997833252,1.1023063659667969,0.31444287300109863
1772573096467154000,0.50915380859375,3.0590603351593018,0.607200026512146,0.7283040881156921
1772573096484986600,0.526986572265625,3.039665460586548,-0.4259257912635803,0.8610145449638367
1772573096502826000,0.544825927734375,1.8127425909042358,1.553277611732483,1.4692835807800293
1772573096520657400,0.562657470703125,0.6200281977653503,1.8023579120635986,2.073582172393799
1772573096538492700,0.58049267578125,0.14049901068210602,0.35781431198120117,2.0783162117004395
1772573096556327000,0.598326904296875,0.00809396430850029,-0.5824599862098694,1.0073168277740479
1772573096574162400,0.616162353515625,-0.5119050741195679,-0.8032878041267395,0.09285151958465576
1772573096591996000,0.633995849609375,-0.7515169382095337,-0.023976460099220276,-0.24373523890972137
1772573096609828000,0.651828125,-0.3124575614929199,1.0772608518600464,-0.27977627515792847
1772573096627668000,0.66966796875,-0.2002110779285431,0.8323038816452026,0.10048733651638031
1772573096645501400,0.68750146484375,-0.30115658044815063,-0.7188356518745422,0.5077817440032959
1772573096663334700,0.705334716796875,-0.2935207486152649,-2.323120594024658,0.9286679029464722
1772573096681169200,0.723169189453125,0.1440114825963974,-0.3504839241504669,-0.22449298202991486
1772573096699004000,0.74100390625,0.37079519033432007,2.464383125305176,-0.38179078698158264
1772573096716839400,0.75883935546875,-0.18768835067749023,3.3118059635162354,-0.598953366279602
1772573096734661000,0.7766611328125,-0.3816380500793457,1.9885190725326538,-0.8665123581886292
1772573096752508000,0.7945078125,-0.23090706765651703,-0.1739438772201538,-0.5006040930747986
1772573096770342100,0.812342041015625,-0.06765332818031311,-2.1934642791748047,-0.1843285858631134
1772573096788178200,0.83017822265625,-0.1892155110836029,-2.4678955078125,-0.4642575979232788
1772573096806012000,0.848011962890625,-0.6018549799919128,-1.059698462486267,-1.2765556573867798
1772573096823846700,0.8658466796875,-1.0538952350616455,0.4505131244659424,-2.121229648590088
1772573096841681200,0.88368115234375,-1.2971723079681396,0.942259669303894,-2.5642595291137695
1772573096859517000,0.901516845703125,-1.2507466077804565,0.47418415546417236,-2.4579689502716064
1772573096877350700,0.9193505859375,-0.9980010986328125,-0.36942076683044434,-2.0428860187530518
1772573096895185200,0.93718505859375,-0.6316346526145935,-0.902247965335846,-1.3724614381790161
1772573096913020200,0.955020263671875,-0.3582724630832672,-0.9382890462875366,-0.5778785347938538
1772573096930843400,0.972843505859375,-0.22663100063800812,-0.5765040516853333,0.01970040425658226
1772573096948689200,0.990689208984375,-0.2041817009449005,-0.3741549551486969,0.35903605818748474
1772573096966524000,1.00852392578125,-0.30253100395202637,-0.6650795340538025,0.44745880365371704
1772573096984358700,1.026358642578125,-0.3248275816440582,-0.7929030656814575,0.7105889916419983
1772573097002194000,1.04419384765625,-0.2915354371070862,-0.6947064995765686,1.0812314748764038
1772573097020027600,1.062027587890625,-0.2715296149253845,-0.5451972484588623,1.2018773555755615
1772573097037862400,1.0798623046875,-0.3703370690345764,-0.44089198112487793,1.0949759483337402
1772573097055697000,1.09769677734375,-0.5366451144218445,-0.39843684434890747,0.8006916046142578
1772573097073533000,1.115532958984375,-0.6539312601089478,-0.25595253705978394,0.6085745096206665
1772573097091366100,1.1333662109375,-0.5635231733322144,0.4709770977497101,0.6287330389022827
1772573097109201200,1.151201171875,-0.21441370248794556,1.3687963485717773,0.9749409556388855
1772573097127036200,1.1690361328125,0.14156801998615265,1.576948642730713,1.175152063369751
1772573097144870400,1.186870361328125,-0.12858712673187256,0.39813143014907837,0.7472409009933472
1772573097162706000,1.204705810546875,-0.5268712639808655,-0.8269588351249695,0.23686300218105316
1772573097180539600,1.22253955078125,0.128434419631958,0.2353358417749405,0.8458956480026245
1772573097198374000,1.240373779296875,1.0028879642486572,0.8773552179336548,1.5853480100631714
1772573097216210000,1.2582099609375,0.7968736886978149,0.13744467496871948,1.2611312866210938
1772573097234043600,1.276043701171875,0.22831088304519653,-0.88361656665802,0.8321511745452881
1772573097251865600,1.293865478515625,0.16325373947620392,-0.7906123399734497,0.6328563690185547
1772573097269713200,1.311713134765625,0.3744603991508484,-0.08659014850854874,0.3094032406806946
1772573097287547600,1.329547607421875,0.5561928153038025,0.1693623960018158,-0.43707409501075745
1772573097305382700,1.347382568359375,0.4688390791416168,-0.05467243865132332,-1.0975720882415771
1772573097323217700,1.3652177734375,0.49037206172943115,-0.2765692472457886,-1.5335772037506104
1772573097341051400,1.383051513671875,0.4639521539211273,-0.41263946890830994,-1.6626224517822266
1772573097358887400,1.400887451171875,0.11255192011594772,-0.04902193695306778,-1.5902349948883057
1772573097376721000,1.418720947265625,-0.403781920671463,0.2808452844619751,-1.3790283203125
1772573097394556000,1.436555908203125,-0.5166392922401428,0.032681290060281754,-1.1455250978469849
1772573097412390100,1.45439013671875,-0.31642818450927734,-0.6041457056999207,-0.8300131559371948
1772573097430226200,1.47222607421875,-0.1915062516927719,-0.9964739084243774,-0.812298059463501
1772573097448060000,1.490059814453125,-0.19746218621730804,-0.4239404797554016,-1.6022995710372925
1772573097465894700,1.507894775390625,-0.4213443100452423,1.1255191564559937,-2.601675033569336
1772573097483716000,1.525716064453125,-0.6159048676490784,2.702009677886963,-3.157562494277954
1772573097501553200,1.54355322265625,-0.5128213763237,3.274543046951294,-2.7650816440582275
1772573097519391000,1.561390869140625,-0.28496864438056946,2.838843584060669,-1.6572774648666382
1772573097537233000,1.57923291015625,0.00427605677396059,1.7316502332687378,-0.4535674452781677
1772573097555067600,1.597067626953125,0.24174992740154266,0.32131510972976685,0.6452264189720154
1772573097572903400,1.6149033203125,0.23380866646766663,-0.7342600226402283,1.3729196786880493
1772573097590737000,1.63273681640625,0.16340644657611847,-1.1438452005386353,1.7814357280731201
1772573097608571600,1.650571533203125,0.02015855349600315,-1.1870639324188232,1.9724838733673096
1772573097626406700,1.66840673828125,-0.15653422474861145,-1.1359039545059204,1.9369009733200073
1772573097644242400,1.686242431640625,-0.3773620128631592,-1.0212140083312988,1.681712031364441
1772573097662075600,1.70407568359375,-0.6902777552604675,-0.4311181604862213,1.3637566566467285
1772573097679910400,1.721910400390625,-0.8950703144073486,0.2955060601234436,1.2113457918167114
1772573097697745200,1.7397451171875,-0.99250328540802,0.44287729263305664,1.28128981590271
1772573097715580700,1.75758056640625,-1.2111930847167969,0.1976149082183838,1.4547755718231201
1772573097733397200,1.775397216796875,-1.4376713037490845,-0.07727445662021637,1.5581644773483276
1772573097751236900,1.79323681640625,-1.3182471990585327,-0.06414084881544113,1.8162550926208496
1772573097769084200,1.811084228515625,-0.7411322593688965,-0.27748554944992065,2.1149682998657227
1772573097786915300,1.828915283203125,-0.0659734457731247,-0.9239336848258972,1.7043139934539795
1772573097804753400,1.84675341796875,0.6478226184844971,-1.3315335512161255,0.9928087592124939
1772573097822588400,1.86458837890625,0.983951210975647,-0.5077817440032959,0.37858372926712036
1772573097840423000,1.8824228515625,0.9633345007896423,0.4938845634460449,-0.37980547547340393
1772573097858258700,1.9002587890625,0.9425650835037231,0.5054910182952881,-0.5719226002693176
1772573097876092200,1.918092041015625,1.1924089193344116,0.1088867336511612,-0.08491026610136032
1772573097893927200,1.93592724609375,1.4060590267181396,-0.44165557622909546,-0.1241583600640297
1772573097911762700,1.9537626953125,1.2327260971069336,-1.2797627449035645,-1.0329731702804565
1772573097929596400,1.971596435546875,0.779464066028595,-1.6215417385101318,-1.8041905164718628
1772573097947428400,1.989428466796875,0.3436116874217987,-1.7340936660766602,-2.004248857498169
1772573097965268700,2.007268798828125,0.13286319375038147,-2.1397082805633545,-1.4271339178085327
1772573097983102000,2.02510205078125,0.18539759516716003,-2.512946844100952,-0.08460483700037003
1772573098000935000,2.042934814453125,0.4001167416572571,-2.4335343837738037,1.2608258724212646
1772573098018769700,2.060769775390625,0.5607742667198181,-1.324508547782898,1.3912456035614014
1772573098036604400,2.0786044921875,0.5450445413589478,0.7183775305747986,0.033597588539123535
1772573098054439000,2.09643896484375,0.35842517018318176,2.8406760692596436,-1.7171422243118286
1772573098072275000,2.11427490234375,-0.14217889308929443,3.9941422939300537,-3.020423173904419
1772573098090108200,2.132108154296875,-0.5821545720100403,3.850283622741699,-3.631746530532837
1772573098107930600,2.1499306640625,-0.5583308339118958,2.6285531520843506,-3.3147075176239014
1772573098125767200,2.16776708984375,-0.3715587854385376,1.0122036933898926,-2.4503331184387207
1772573098143611600,2.185611572265625,-0.166460782289505,-0.4138612151145935,-1.4587461948394775
1772573098161449000,2.203448974609375,-0.10018189996480942,-1.2699888944625854,-0.521984338760376
1772573098179282200,2.2212822265625,-0.1797471046447754,-1.720807433128357,0.13026700913906097
1772573098197112800,2.23911279296875,-0.30344730615615845,-1.817324161529541,0.5169447064399719
1772573098214951400,2.256951416015625,-0.3055853247642517,-1.5572482347488403,0.7562511563301086
1772573098232784000,2.274783935546875,-0.24908030033111572,-1.0636690855026245,0.8655960559844971
1772573098250621000,2.292620849609375,-0.15974126756191254,-0.4251621961593628,0.9586002826690674
1772573098268455700,2.31045556640625,-0.13057245314121246,0.1736384481191635,1.054964303970337
1772573098286290700,2.328290771484375,-0.15317445993423462,0.6780604124069214,1.201724648475647
1772573098304125700,2.346125732421875,-0.16844609379768372,0.807563841342926,1.295186996459961
1772573098321960400,2.36396044921875,-0.1618792861700058,0.5978843569755554,1.2942707538604736
1772573098339794700,2.381794677734375,-0.15256360173225403,0.07406741380691528,1.1368201971054077
1772573098357630000,2.3996298828125,-0.14019356667995453,-0.060475658625364304,0.9896016716957092
1772573098375464000,2.4174638671875,-0.3243694305419922,0.35903605818748474,0.926835298538208
1772573098393299200,2.43529931640625,-0.6824892163276672,0.840397834777832,1.0005972385406494
1772573098411134000,2.453134033203125,-0.9007207751274109,0.6488916277885437,0.9538660645484924
1772573098428968700,2.47096875,-0.9216429591178894,-0.040622539818286896,0.16203200817108154
1772573098446803500,2.488803466796875,-0.33857205510139465,-0.45921793580055237,-0.6788240075111389
1772573098464637000,2.506636962890625,0.1941024363040924,0.508087158203125,-0.5461135506629944
1772573098482473000,2.524472900390625,0.19898934662342072,1.3869695663452148,0.07987063378095627
1772573098500309500,2.5423095703125,-0.3660610020160675,0.8349000811576843,1.1468994617462158
1772573098518142200,2.56014208984375,-0.6148358583450317,-0.8278751373291016,1.520138144493103
1772573098535976700,2.577976806640625,-0.38988474011421204,-1.1299480199813843,0.7431175708770752
1772573098553811700,2.595811767578125,0.07437284290790558,-0.16111570596694946,-0.5994115471839905
1772573098571646500,2.613646484375,0.41722095012664795,0.5170974135398865,-1.686140775680542
1772573098589481200,2.631481201171875,0.5273294448852539,0.578489363193512,-2.110692024230957
1772573098607316000,2.64931591796875,0.26481008529663086,0.26710084080696106,-1.7840319871902466
1772573098625150700,2.667150634765625,-0.11270463466644287,-0.029474247246980667,-1.135140299797058
1772573098642985500,2.6849853515625,-0.13866640627384186,-0.19837848842144012,-0.7053966522216797
1772573098660820200,2.7028203125,-0.010842857882380486,-0.2854267954826355,-0.4807509481906891
1772573098678655200,2.7206552734375,0.18341228365898132,-0.41401392221450806,-0.5042692422866821
1772573098696489700,2.73848974609375,0.2945897579193115,-0.4879286289215088,-0.8681922554969788
1772573098714324000,2.756323974609375,0.18157969415187836,-0.28069257736206055,-1.1646145582199097
1772573098732159000,2.774158935546875,-0.2506074607372284,0.04459316283464432,-1.189354658126831
1772573098749993700,2.79199365234375,-0.6380487680435181,0.4184426963329315,-0.8797986507415771
1772573098767816400,2.80981640625,-0.755182147026062,0.4668537676334381,-0.4879286289215088
1772573098785649700,2.827649658203125,-0.6433938145637512,0.06017022579908371,-0.470060795545578
1772573098803498500,2.84549853515625,-0.40194934606552124,-0.5002986192703247,-0.7597636580467224
1772573098821333200,2.863333251953125,-0.15882496535778046,-0.936609148979187,-0.7828238010406494
1772573098839168000,2.88116796875,0.0630718395113945,-1.142012596130371,-0.20952677726745605
1772573098857002800,2.899002685546875,0.11789698898792267,-1.0968085527420044,0.6884451508522034
1772573098874837500,2.91683740234375,0.10048733651638031,-0.806647539138794,1.292590856552124
1772573098892672000,2.934672119140625,0.07681630551815033,-0.4401284158229828,1.3758212327957153
1772573098910507500,2.952507568359375,-0.014355333521962166,-0.02168571576476097,1.129489779472351
1772573098928341500,2.970341552734375,-0.15073099732398987,0.45402559638023376,0.8443684577941895
1772573098946175500,2.988175537109375,-0.12507465481758118,0.7825183868408203,0.5969680547714233
1772573098964012300,3.00601220703125,-0.060322944074869156,0.8465065360069275,0.48747047781944275
1772573098981846000,3.023845947265625,-0.044745877385139465,0.9610437750816345,0.5377141237258911
1772573098999681000,3.041680908203125,-0.047189339995384216,0.7787004709243774,0.41233405470848083
1772573099017515300,3.059515380859375,0.05406157299876213,-0.23090706765651703,-0.21349740028381348
1772573099035339500,3.077339599609375,0.12690725922584534,-1.4753923416137695,-0.8275696635246277
1772573099053195500,3.095195556640625,0.2626720666885376,-0.9049968719482422,-0.22876903414726257
1772573099071020800,3.113020751953125,0.5363397002220154,0.5464189648628235,1.3796391487121582
1772573099088854500,3.1308544921875,0.44654250144958496,1.3915510177612305,2.2843306064605713
1772573099106689800,3.148689697265625,-0.28649580478668213,0.9579893946647644,1.5628987550735474
1772573099124524500,3.166524658203125,-0.4951062798500061,-0.41233405470848083,0.7220427393913269
1772573099142360000,3.184360107421875,0.006872233934700489,-1.120937705039978,0.275958389043808
1772573099160193800,3.20219384765625,0.3672827184200287,-0.5477933883666992,-0.3191770911216736
1772573099178028300,3.2200283203125,0.32360586524009705,0.33399057388305664,-1.0926852226257324
1772573099195863600,3.237863525390625,0.21334469318389893,0.43936482071876526,-1.0256427526474
1772573099213699000,3.255698974609375,0.19868391752243042,-0.2765692472457886,-0.7188356518745422
1772573099231532800,3.27353271484375,0.34406983852386475,-0.8168795704841614,-0.9320276379585266
1772573099249363700,3.29136376953125,0.5305364727973938,-0.6148358583450317,-1.2944234609603882
1772573099267202600,3.30920263671875,0.770606517791748,0.4488332271575928,-1.4795156717300415
1772573099285038300,3.327038330078125,1.0438159704208374,1.9072740077972412,-1.5939000844955444
1772573099302872300,3.344872314453125,0.9133962392807007,3.079219102859497,-1.7214182615280151
1772573099320707000,3.36270703125,-0.05314527451992035,2.8480064868927,-1.669342041015625
1772573099338541600,3.38054150390625,-1.1339186429977417,1.6268868446350098,-1.4618005752563477
1772573099356377300,3.39837744140625,-1.04289972782135,0.5377141237258911,-0.9277516007423401
1772573099374210800,3.4162109375,-0.039706241339445114,-0.17256943881511688,-0.09422596544027328
1772573099392046000,3.434046142578125,0.9077457785606384,-0.37430769205093384,0.6546948552131653
1772573099409880600,3.451880615234375,1.2553280591964722,-0.41431936621665955,1.2231049537658691
1772573099427717000,3.469717041015625,0.846659243106842,-0.836885392665863,1.5725198984146118
1772573099445550800,3.48755078125,0.23640485107898712,-1.4526375532150269,1.4146112203598022
1772573099463385300,3.50538525390625,-0.14355333149433136,-1.6997325420379639,0.6415612101554871
1772573099481207600,3.52320751953125,-0.14034628868103027,-1.2921327352523804,-0.38927388191223145
1772573099499043800,3.5410439453125,0.05604688450694084,-0.6516404747962952,-1.0458012819290161
1772573099516892400,3.558892333984375,0.0708603709936142,-0.2984076738357544,-0.8788823485374451
1772573099534711600,3.576711669921875,0.17119498550891876,-0.13118331134319305,-0.1408044397830963
1772573099552559400,3.594559326171875,0.2064724564552307,0.1872301995754242,0.7921395301818848
1772573099570395000,3.612394775390625,0.2591595947742462,0.35964691638946533,1.4479033946990967
1772573099588223200,3.63022314453125,0.40454551577568054,0.3413209617137909,1.7192802429199219
1772573099606064600,3.648064697265625,0.4079052805900574,-0.06261368840932846,1.6458237171173096
1772573099623898400,3.6658984375,0.15790866315364838,-0.483957976102829,1.4731014966964722
1772573099641733600,3.683733642578125,-0.0003054326225537807,-0.4665483236312866,1.292285442352295
1772573099659568000,3.701568115234375,-0.23228150606155396,-0.375529408454895,0.8199338912963867
1772573099677390300,3.719390380859375,-0.4011857509613037,-1.3608551025390625,-0.048105638474226
1772573099695237400,3.7372373046875,-0.5975789427757263,-2.138333797454834,-0.8333728909492493
1772573099713070800,3.75507080078125,-0.7128797173500061,-0.9260717034339905,-0.9566149711608887
1772573099730909000,3.772908935546875,-0.6710354685783386,1.049924612045288,-0.5520694851875305
1772573099748740400,3.790740234375,-0.5183191895484924,1.8267924785614014,-0.0019853119738399982
1772573099766577200,3.8085771484375,-0.009621127508580685,1.679115891456604,0.8802568316459656
1772573099784412000,3.826411865234375,0.5044219493865967,1.3226759433746338,1.6591099500656128
1772573099802247000,3.844246826171875,0.5158756971359253,0.9450085163116455,1.7177530527114868
1772573099820081400,3.862081298828125,0.18799377977848053,0.36682456731796265,1.29549241065979
1772573099837916400,3.87991650390625,0.06459899991750717,-0.11316278576850891,0.6495024561882019
1772573099855750700,3.897750732421875,0.3937026560306549,0.18646661937236786,0.0354301854968071
1772573099873586000,3.9155859375,0.2480112910270691,0.6546948552131653,-0.05497787147760391
1772573099891420400,3.93342041015625,-0.5574145317077637,-0.20234911143779755,0.6514877676963806
1772573099909255400,3.95125537109375,-0.68325275182724,-1.3167200088500977,1.3849842548370361
1772573099927086300,3.96908642578125,-0.22159136831760406,-0.9049968719482422,1.2276864051818848
1772573099944924700,3.986924560546875,0.3404046595096588,0.0507018156349659,0.6937901973724365
1772573099962759400,4.004759521484375,0.6673702597618103,-0.08048149943351746,0.46441030502319336
1772573099980596000,4.022595947265625,0.521984338760376,-0.7179193496704102,0.3604104816913605
1772573099998429700,4.0404296875,0.3378084897994995,-0.9781479835510254,0.1215621829032898
1772573100016264200,4.05826416015625,0.2762638032436371,-0.27641651034355164,-0.5517640113830566
1772573100034099000,4.076098876953125,0.23075434565544128,0.7837401032447815,-1.3445143699645996
1772573100051922000,4.093921875,0.1235474944114685,1.279915452003479,-1.570534586906433
1772573100069768400,4.1117685546875,-0.15806138515472412,0.6091853380203247,-1.045190453529358
1772573100087591200,4.129591064453125,-0.32788193225860596,-0.39797869324684143,-0.31261029839515686
1772573100105435600,4.147435546875,-0.2996293902397156,-0.7261660695075989,-0.005497787147760391
1772573100123273500,4.1652734375,-0.37201693654060364,-0.6114761233329773,-0.17043140530586243
1772573100141108200,4.183108154296875,-0.640644907951355,-0.4596760869026184,-0.3397938013076782
1772573100158943000,4.20094287109375,-0.607200026512146,0.04352414980530739,-0.29138273000717163
1772573100176777500,4.218777587890625,-0.5287038683891296,0.5493205785751343,0.026572637259960175
1772573100194612700,4.23661279296875,-0.5120577812194824,0.623235285282135,0.5183191895484924
1772573100212447500,4.254447509765625,-0.471129834651947,0.29764407873153687,0.9071348905563354
1772573100230282500,4.272282470703125,-0.41370847821235657,-0.19975294172763824,1.0118982791900635
1772573100248117200,4.2901171875,-0.44516804814338684,-0.3988949954509735,0.8147414922714233
1772573100265952000,4.307951904296875,-0.3744603991508484,-0.2194533348083496,0.39645153284072876
1772573100283786800,4.325786865234375,-0.17379115521907806,0.0835358202457428,0.20616702735424042
1772573100301621500,4.34362158203125,-0.0933096632361412,0.04230241850018501,0.5007568001747131
1772573100319456500,4.36145654296875,-0.3956879675388336,-0.540921151638031,0.5390886068344116
1772573100337291000,4.379291015625,-0.502436637878418,-0.7906123399734497,-0.10583240538835526
1772573100355125800,4.397125732421875,-0.16264286637306213,-0.2347249686717987,-0.6436992287635803
1772573100372960800,4.414960693359375,0.2376265823841095,1.0557278394699097,-0.14935655891895294
1772573100390795800,4.432795654296875,0.2093740701675415,1.6284140348434448,0.4726569950580597
1772573100408630300,4.45063037109375,-0.03649919852614403,0.8426886200904846,0.5195409059524536
1772573100426465500,4.468465576171875,-0.14324790239334106,-0.43737950921058655,0.5099197626113892
1772573100444300300,4.48630029296875,0.023518312722444534,-0.6117815375328064,0.25442537665367126
1772573100462135000,4.504135009765625,0.3481931984424591,0.16493362188339233,0.078343465924263
1772573100479970300,4.52197021484375,0.417679101228714,0.16829337179660797,0.46410486102104187
1772573100497804300,4.53980419921875,-0.04566217586398125,-0.5991060733795166,1.3779592514038086
1772573100515639300,4.557639404296875,-0.8327620625495911,-1.328937292098999,1.462716817855835
1772573100533473800,4.575473876953125,-1.124755620956421,-1.324508547782898,0.21090123057365417
1772573100551312000,4.593311767578125,-0.3646865487098694,-1.321606993675232,-1.0554224252700806
1772573100569143800,4.611143798828125,0.36163222789764404,-1.5700763463974,-1.602452278137207
1772573100586966500,4.628966552734375,0.1722639948129654,-1.5335772037506104,-1.5761851072311401
1772573100604813600,4.6468134765625,-0.3396410644054413,-1.543503761291504,-1.4924964904785156
1772573100622648000,4.66464794921875,-0.7953465580940247,-1.3300063610076904,-1.470963478088379
1772573100640483800,4.68248388671875,-0.7186829447746277,-0.41523563861846924,-1.8558086156845093
1772573100658318000,4.700318115234375,-0.11560624837875366,0.6221662759780884,-2.2342395782470703
1772573100676153000,4.718153076171875,0.4715879559516907,0.9645562171936035,-2.158339738845825
1772573100693987800,4.73598779296875,0.7590000629425049,0.1437060534954071,-1.5740469694137573
1772573100711822600,4.753822509765625,0.6672175526618958,-1.150259256362915,-0.7896960377693176
1772573100729657300,4.7716572265625,0.3822489380836487,-1.7194329500198364,-0.17821992933750153
1772573100747492000,4.7894921875,0.18875735998153687,-1.106735110282898,-0.04505131021142006
1772573100765327400,4.807327392578125,0.154396191239357,-0.06475171446800232,-0.20922134816646576
1772573100783161900,4.825161865234375,0.1316414624452591,0.4535674452781677,-0.32360586524009705
1772573100800998100,4.842998046875,0.005497787147760391,0.4573853611946106,-0.13836097717285156
1772573100818830300,4.860830322265625,-0.2802344262599945,0.41141775250434875,0.2638937830924988
1772573100836666600,4.87866650390625,-0.5697845816612244,0.536797821521759,0.5218316316604614
1772573100854501000,4.896501220703125,-0.7654141783714294,0.9779952764511108,0.49586987495422363
1772573100872336100,4.914336181640625,-0.8547531962394714,1.5665639638900757,0.4389066696166992
1772573100890171000,4.9321708984375,-0.8865181803703308,1.7192802429199219,0.23289237916469574
1772573100908005600,4.950005615234375,-0.8692612648010254,1.3962851762771606,0.20784689486026764
1772573100925841000,4.9678408203125,-0.7748825550079346,0.8284859657287598,0.5022839307785034
1772573100943676000,4.985676025390625,-0.6261368989944458,0.2356412708759308,0.7185302376747131
1772573100961510400,5.003510498046875,-0.42042800784111023,-0.19562959671020508,0.7579310536384583
1772573100979345200,5.02134521484375,-0.28756481409072876,0.055741455405950546,0.3933972120285034
1772573100997176600,5.039176513671875,-0.05696318298578262,0.6145304441452026,-0.12095131725072861
1772573101015008300,5.05700830078125,0.21823160350322723,1.0742065906524658,-0.17211128771305084
1772573101032850200,5.07485009765625,0.7163922190666199,0.8203920125961304,0.3156646192073822
1772573101050683100,5.09268310546875,1.1003210544586182,0.499382346868515,1.2592986822128296
1772573101068521000,5.11052099609375,1.1798862218856812,-0.6771441102027893,1.9561432600021362
1772573101086354400,5.1283544921875,0.7675521969795227,-2.4633140563964844,1.6006196737289429
1772573101104189400,5.146189453125,0.37430769205093384,-2.453234910964966,0.7296785116195679
1772573101122024400,5.1640244140625,0.2076941877603531,-0.6973026990890503,-0.17669276893138885
1772573101139859000,5.18185888671875,0.2353358417749405,0.6527095437049866,-0.5218316316604614
1772573101157694000,5.19969384765625,0.14187344908714294,0.5778785347938538,-0.3196352422237396
1772573101175528400,5.217528564453125,-0.12202033400535583,-0.607810914516449,-0.07223481684923172
1772573101193363700,5.23536376953125,-0.41111230850219727,-1.4494304656982422,-0.14828753471374512
1772573101211198700,5.25319873046875,-0.5416847467422485,-1.0062477588653564,-0.5705481171607971
1772573101229031700,5.27103173828125,-0.50335294008255,0.18829920887947083,-1.3796391487121582
1772573101246869800,5.288869873046875,-0.3787364661693573,1.1374311447143555,-2.222480535507202
1772573101264703200,5.306703125,-0.5094616413116455,1.1065824031829834,-2.4523184299468994
1772573101282537700,5.324537841796875,-0.646906316280365,0.6563746929168701,-1.9715676307678223
1772573101300372500,5.34237255859375,-0.7061602473258972,0.1258382350206375,-1.2986994981765747
1772573101318207200,5.360207275390625,-0.7258606553077698,-0.2116648107767105,-0.6747006773948669
1772573101336042200,5.378042236328125,-0.6143777370452881,-0.3436116874217987,-0.12064588814973831
1772573101353877000,5.395876953125,-0.42348232865333557,-0.3017674386501312,0.1742493063211441
1772573101371711700,5.413711669921875,-0.37079519033432007,-0.39538252353668213,0.3579670190811157
1772573101389546800,5.431546630859375,-0.451582133769989,-0.6826419234275818,0.6835582256317139
1772573101407381500,5.449381591796875,-0.660803496837616,-1.0167851448059082,1.0392345190048218
1772573101425216800,5.467216796875,-0.8295549750328064,-1.4022411108016968,1.2518155574798584
1772573101443051500,5.485051513671875,-1.0238101482391357,-1.596496343612671,1.1838568449020386
1772573101460884200,5.50288427734375,-1.23394775390625,-1.4540120363235474,0.8425359129905701
1772573101478718700,5.52071875,-1.3374894857406616,-1.1409435272216797,0.4888449013233185
1772573101496546000,5.538546142578125,-1.2651019096374512,-0.7020368576049805,0.418748140335083
1772573101514383000,5.556383056640625,-1.0231993198394775,-0.17119498550891876,0.542142927646637
1772573101532228600,5.574228515625,-0.8546004891395569,0.3194825351238251,0.4161519408226013
1772573101550057700,5.5920576171875,-0.7457137703895569,0.3300199508666992,0.07681630551815033
1772573101567896600,5.609896484375,-0.41523563861846924,0.05115996301174164,-0.06933320313692093
1772573101585730600,5.62773046875,0.09407325088977814,0.08506298810243607,-0.1235474944114685
1772573101603568000,5.645568115234375,0.5488623976707458,0.627358615398407,-0.3292563557624817
1772573101621400000,5.663400146484375,0.5647448897361755,1.8942930698394775,-0.5716171264648438
1772573101639235800,5.68123583984375,0.21991148591041565,1.4408783912658691,-1.0485502481460571
1772573101657069600,5.699069580078125,-0.2554943859577179,-0.3868304193019867,-1.2206615209579468
1772573101674903600,5.716903564453125,-0.6256787180900574,-1.1733194589614868,-0.29993483424186707
1772573101692740400,5.734740234375,-0.888961672782898,-0.7105889916419983,0.727082371711731
1772573101710575400,5.752575439453125,-0.5253441333770752,0.26343563199043274,1.7551685571670532
1772573101728409300,5.770409423828125,0.6331618428230286,-0.5740606188774109,2.2148447036743164
1772573101746244000,5.788244140625,0.8558222055435181,-1.9753854274749756,1.9100228548049927
1772573101764078800,5.806078857421875,0.6476698517799377,-0.7819074988365173,0.6969972252845764
1772573101781914600,5.82391455078125,0.9101892113685608,1.5326608419418335,-1.1374311447143555
1772573101799733200,5.841733154296875,1.213025689125061,2.253023624420166,-2.232712507247925
1772573101817584000,5.859584228515625,1.528384804725647,1.4540120363235474,-2.0833559036254883
1772573101835418600,5.877418701171875,1.5037975311279297,0.3381139039993286,-1.186300277709961
1772573101853246700,5.895246826171875,1.0992519855499268,-0.7414376735687256,-0.15302173793315887
1772573101871087900,5.913087890625,0.7360926270484924,-1.172708511352539,0.8978192210197449
1772573101888928300,5.93092822265625,0.2542726695537567,-0.3962988257408142,0.751669704914093
1772573101906758000,5.9487578125,0.2793181240558624,-0.004123340360820293,0.12308934330940247
1772573101924594200,5.96659423828125,0.6020076870918274,-0.7163922190666199,-0.24358251690864563
1772573101942427400,5.984427490234375,0.6821837425231934,-1.6423112154006958,-0.07467827945947647
1772573101960262700,6.0022626953125,0.4300491213798523,-2.0557143688201904,0.015118914656341076
1772573101978097200,6.02009716796875,0.1696678251028061,-1.4694362878799438,-0.3095559775829315
1772573101995933700,6.03793359375,0.03405573591589928,-0.48029279708862305,-0.7177666425704956
1772573102013764000,6.05576416015625,-0.03680463135242462,0.4297437071800232,-0.9240863919258118
1772573102031605000,6.07360498046875,0.01572977937757969,0.846659243106842,-0.9657779335975647
1772573102049436200,6.091436279296875,0.3162754774093628,0.5360342264175415,-0.7429648637771606
1772573102067276000,6.109276123046875,0.6214026808738708,0.03130684420466423,-0.05115996301174164
1772573102085103600,6.127103515625,0.4735732674598694,0.1589776873588562,0.4317290186882019
1772573102102944300,6.1449443359375,0.17531833052635193,0.5719226002693176,0.5389358401298523
1772573102120776200,6.162776123046875,0.06933320313692093,1.007622241973877,0.5807801485061646
1772573102138612200,6.1806123046875,0.14049901068210602,1.29381263256073,0.8614727258682251
1772573102156446000,6.198446044921875,0.10094548016786575,1.3842206001281738,1.1468994617462158
1772573102174280700,6.21628076171875,-0.05864306539297104,1.2545645236968994,1.279915452003479
1772573102192116000,6.234115966796875,-0.17012597620487213,0.4925101101398468,1.4143058061599731
1772573102209951700,6.25195166015625,-0.14095716178417206,-0.058795779943466187,1.6853772401809692
1772573102227785700,6.26978564453125,-0.058184914290905,0.7677049040794373,2.0983221530914307
1772573102245618200,6.2876181640625,-0.1238529309630394,0.6768386960029602,2.1032090187072754
1772573102263442400,6.3054423828125,-0.5390886068344116,-1.1264355182647705,1.9605720043182373
1772573102281279500,6.323279541015625,-0.8758280277252197,-0.9587529897689819,2.1264219284057617
1772573102299128000,6.341128173828125,-0.6466008424758911,0.784503698348999,2.0454821586608887
1772573102316960000,6.3589599609375,-0.07910704612731934,1.2797627449035645,1.2870930433273315
1772573102334795000,6.376794921875,0.5482515692710876,0.8016079068183899,0.5054910182952881
1772573102352630800,6.394630859375,1.0914634466171265,0.9854783415794373,0.15042556822299957
1772573102370464500,6.412464599609375,1.2580770254135132,0.6265950202941895,-0.2603813111782074
1772573102388300000,6.430300048828125,0.7266241908073425,-0.17027868330478668,-0.7209737300872803
1772573102406134500,6.448134521484375,-0.027947084978222847,-0.4554000496864319,-0.8165740966796875
1772573102423970600,6.465970458984375,-0.22143864631652832,-0.26893341541290283,-0.7539604306221008
1772573102441804300,6.48380419921875,-0.0907134860754013,-0.017562376335263252,-0.8263479471206665
1772573102459638800,6.501638671875,-0.09728029370307922,0.43615779280662537,-0.7313584089279175
1772573102477474300,6.519474365234375,-0.23945917189121246,0.925308108329773,-0.30344730615615845
1772573102495309800,6.537309814453125,-0.5737552046775818,0.9355401396751404,0.11026117950677872
1772573102513140500,6.555140380859375,-1.1212431192398071,0.7988590002059937,0.21670444309711456
1772573102530982000,6.57298193359375,-1.7258470058441162,1.4372131824493408,-0.4031710624694824
1772573102548812300,6.590812255859375,-1.8668042421340942,1.6368134021759033,-1.5166256427764893
1772573102566651000,6.60865087890625,-1.4086552858352661,0.603076696395874,-2.537381410598755
1772573102584483800,6.62648388671875,-0.7925976514816284,-0.6394231915473938,-3.063030958175659
1772573102602318000,6.644318115234375,-0.2496911734342575,-0.8512406945228577,-2.883589506149292
1772573102620152800,6.66215283203125,0.0887281745672226,-0.720820963382721,-2.249969482421875
1772573102637988900,6.67998876953125,0.20815233886241913,-0.646295428276062,-1.5428929328918457
1772573102655824100,6.69782421875,0.11362093687057495,-0.6776022911071777,-1.063821792602539
1772573102673657600,6.71565771484375,-0.14508049190044403,-0.8104654550552368,-0.7432702779769897
1772573102691480000,6.73347998046875,-0.31184670329093933,-0.9103419184684753,-0.4550946056842804
1772573102709324500,6.751324462890625,-0.2154827117919922,-0.589790403842926,-0.06230825558304787
1772573102727162600,6.76916259765625,0.12293662875890732,0.19196440279483795,0.3827070891857147
1772573102744994300,6.786994384765625,0.5517640113830566,0.9156870245933533,0.7145596146583557
1772573102762835200,6.804835205078125,0.7342600226402283,1.1832460165023804,0.915534257888794
1772573102780668200,6.822668212890625,0.5313000679016113,1.0422887802124023,0.9532552361488342
1772573102798502100,6.840502197265625,0.1941024363040924,0.6383541822433472,0.8330674767494202
1772573102816337000,6.8583369140625,0.10522153973579407,0.2054034322500229,0.8208501935005188
1772573102834172000,6.876171875,0.1739438772201538,0.16310101747512817,1.1212431192398071
1772573102852007700,6.894007568359375,0.4141666293144226,0.22403483092784882,1.581377387046814
1772573102869841700,6.911841552734375,0.7605272531509399,0.22999076545238495,2.071902275085449
1772573102887676700,6.9296767578125,0.8023715019226074,0.1472185254096985,2.146580457687378
1772573102905512000,6.947511962890625,0.3303253948688507,-0.5190827250480652,1.7150042057037354
1772573102923347200,6.96534716796875,-0.0007635815418325365,-0.9920451641082764,1.1971431970596313
1772573102941181200,6.98318115234375,0.30375275015830994,-0.9421069025993347,0.7560984492301941
1772573102959016000,7.001015869140625,0.7128797173500061,0.18784105777740479,0.13836097717285156
1772573102976851000,7.018850830078125,0.8286387324333191,0.8567385077476501,-0.44547349214553833
1772573102994687000,7.03668701171875,0.7104362845420837,1.0986411571502686,-0.3300199508666992
1772573103012520400,7.0545205078125,0.6459900140762329,1.0228939056396484,-0.04566217586398125
1772573103030355700,7.072355712890625,0.4579962193965912,0.974177360534668,-0.020311269909143448
1772573103048190700,7.090190673828125,0.07024950534105301,0.42348232865333557,-0.18417587876319885
1772573103066026500,7.108026611328125,-0.14752395451068878,-0.7371616363525391,-0.3929390609264374
1772573103083860500,7.125860595703125,-0.10522153973579407,-1.4091134071350098,-0.8820894360542297
1772573103101695200,7.1436953125,-0.007177666760981083,-0.7834346890449524,-1.5978707075119019
1772573103119518000,7.16151806640625,0.14614951610565186,-0.1966986060142517,-2.0259346961975098
1772573103137367800,7.179367919921875,0.35964691638946533,-0.6487388610839844,-1.7959438562393188
1772573103155195400,7.1971953125,0.8446739315986633,-1.7889188528060913,-0.9844093322753906
1772573103173040000,7.2150400390625,1.027169942855835,-2.2397375106811523,-0.02519819140434265
1772573103190857200,7.232857177734375,0.7420485615730286,-1.8910861015319824,0.44547349214553833
1772573103208706000,7.2507060546875,0.0607810914516449,-0.9668469429016113,0.08827003091573715
1772573103226539800,7.268539794921875,-0.7107416987419128,0.0988074541091919,-0.9726501703262329
1772573103244375000,7.286375,-1.1493430137634277,1.0505355596542358,-1.9602665901184082
1772573103262209300,7.304209228515625,-0.868803083896637,1.6471980810165405,-2.160783052444458
1772573103280045600,7.322045654296875,-0.19486601650714874,1.8851301670074463,-1.609477162361145
1772573103297879300,7.33987939453125,0.28008171916007996,1.7197383642196655,-0.7373143434524536
1772573103315711200,7.357711181640625,0.23136521875858307,1.2078332901000977,-0.0065668015740811825
1772573103333552400,7.375552490234375,-0.16890424489974976,0.489608496427536,0.41813725233078003
1772573103351382000,7.393382080078125,-0.6230825781822205,-0.12660181522369385,0.5958990454673767
1772573103369222400,7.411222412109375,-0.7806857824325562,-0.2834414839744568,0.7096726894378662
1772573103387050500,7.429050537109375,-0.6163630485534668,0.14828753471374512,0.8628471493721008
1772573103404891100,7.44689111328125,-0.2496911734342575,0.8135197758674622,1.0458012819290161
1772573103422726000,7.464725830078125,-0.050854530185461044,1.0557278394699097,1.164156436920166
1772573103440558600,7.48255859375,-0.19807305932044983,0.9512699246406555,1.2357803583145142
1772573103458393600,7.5003935546875,-0.45494189858436584,0.8611672520637512,1.2391401529312134
1772573103476226600,7.5182265625,-0.5082398653030396,0.8827002644538879,1.1293370723724365
1772573103494052600,7.536052490234375,-0.3568980097770691,0.9254608750343323,1.069472312927246
1772573103511889200,7.55388916015625,-0.1310305893421173,0.8753699064254761,1.1586586236953735
1772573103529721300,7.571721435546875,0.1189660057425499,0.5132794976234436,1.3069461584091187
1772573103547571000,7.589571044921875,0.21471913158893585,-0.7399105429649353,1.149037480354309
1772573103565404200,7.607404052734375,-0.20204368233680725,-1.9419406652450562,0.5621487498283386
1772573103583235300,7.6252353515625,-0.8471173644065857,-1.4107933044433594,-0.10644327104091644
1772573103601075700,7.64307568359375,-0.8843801617622375,-0.5772676467895508,-0.49067750573158264
1772573103618903800,7.66090380859375,-0.4492913782596588,0.1944078654050827,-0.5635231733322144
1772573103636744000,7.678743896484375,0.02519819140434265,0.6760751008987427,-0.3933972120285034
1772573103654577400,7.696577392578125,0.6409503817558289,0.5383250117301941,0.1511891484260559
1772573103672412200,7.714412109375,0.8596401214599609,-0.04352414980530739,0.2742784917354584
1772573103690249500,7.73224951171875,0.6101016402244568,-0.6265950202941895,-0.16508632898330688
1772573103708083500,7.75008349609375,0.021991148591041565,-1.224173903465271,-0.6485861539840698
1772573103725917400,7.76791748046875,-0.3966042697429657,-1.648572564125061,-0.7730499505996704
1772573103743752400,7.78575244140625,-0.4766276180744171,-0.8914051055908203,-0.5984952449798584
1772573103761587000,7.8035869140625,-0.14996741712093353,0.42149701714515686,-0.12400564551353455
1772573103779416000,7.821416015625,0.4867068827152252,0.760832667350769,0.6478226184844971
1772573103797253600,7.839253662109375,1.0221302509307861,-0.019853120669722557,1.4645494222640991
1772573103815092000,7.857092041015625,0.8222246170043945,-1.1983648538589478,1.4555391073226929
1772573103832930000,7.874929931640625,0.5204572081565857,-1.5587754249572754,0.3929390609264374
1772573103850761000,7.892760986328125,0.5682573914527893,-1.2512047290802002,-0.9109528064727783
1772573103868598300,7.910598388671875,0.6137668490409851,-0.5723807215690613,-1.845118522644043
1772573103886431500,7.928431396484375,0.5983424782752991,0.0981965884566307,-2.2128593921661377
1772573103904266200,7.946266357421875,0.7110471725463867,0.5198463201522827,-2.0816760063171387
1772573103922102300,7.964102294921875,0.8917105197906494,0.6928738951683044,-1.6829338073730469
1772573103939936000,7.98193603515625,0.9046914577484131,0.6313292384147644,-1.2417362928390503
1772573103957770800,7.999770751953125,0.7348709106445312,0.46364670991897583,-0.7064656615257263
1772573103975606000,8.01760595703125,0.5183191895484924,0.36392298340797424,-0.16630806028842926
1772573103993441800,8.03544189453125,0.31093040108680725,0.3191770911216736,0.2770273983478546
1772573104011275800,8.05327587890625,0.052228979766368866,0.36453384160995483,0.8723155856132507
1772573104029111000,8.071111083984375,-0.031612277030944824,0.22571471333503723,1.1612548828125
1772573104046945800,8.08894580078125,-0.08216137439012527,0.18509216606616974,1.2226468324661255
1772573104064781800,8.10678173828125,-0.21365012228488922,0.40256020426750183,1.2173017263412476
