time,seconds_elapsed,z,y,x
1772536354586910500,0.066910400390625,-1.0015716552734375,-0.066802978515625,-0.041229248046875
1772536354596958500,0.07695849609375,-1.0036773681640625,-0.0659942626953125,-0.0410003662109375
1772536354607006500,0.08700634765625,-0.9979095458984375,-0.059112548828125,-0.0450439453125
1772536354617054500,0.097054443359375,-0.994354248046875,-0.050994873046875,-0.0432586669921875
1772536354627103500,0.107103515625,-0.9896240234375,-0.0503997802734375,-0.03680419921875
1772536354637151500,0.1171513671875,-0.9867706298828125,-0.0547027587890625,-0.0348663330078125
1772536354647199500,0.127199462890625,-0.9814453125,-0.06182861328125,-0.02362060546875
1772536354657247500,0.13724755859375,-0.98602294921875,-0.0582733154296875,-0.015899658203125
1772536354667296500,0.147296630859375,-0.989105224609375,-0.0528717041015625,-0.016082763671875
1772536354677344500,0.157344482421875,-0.982635498046875,-0.0514678955078125,-0.017333984375
1772536354687392500,0.167392578125,-0.97906494140625,-0.0515899658203125,-0.01495361328125
1772536354697440500,0.1774404296875,-0.9840240478515625,-0.0507049560546875,-0.015655517578125
1772536354707489500,0.187489501953125,-0.9898681640625,-0.0546112060546875,-0.01708984375
1772536354717537300,0.197537353515625,-0.9933624267578125,-0.0601348876953125,-0.0199737548828125
1772536354727585500,0.20758544921875,-0.995452880859375,-0.0595550537109375,-0.0234832763671875
1772536354737633500,0.217633544921875,-0.9939727783203125,-0.0557861328125,-0.0262908935546875
1772536354747681500,0.227681640625,-0.996307373046875,-0.0558929443359375,-0.02825927734375
1772536354757730600,0.23773046875,-1.002288818359375,-0.06072998046875,-0.0292205810546875
1772536354767778300,0.2477783203125,-1.000213623046875,-0.0681304931640625,-0.030853271484375
1772536354777826600,0.25782666015625,-1.0001068115234375,-0.075408935546875,-0.0283355712890625
1772536354787874600,0.26787451171875,-1.0070648193359375,-0.077911376953125,-0.01922607421875
1772536354797923600,0.277923583984375,-1.0127105712890625,-0.0738525390625,-0.018646240234375
1772536354807971600,0.2879716796875,-1.008819580078125,-0.0682373046875,-0.0178070068359375
1772536354818019300,0.298019287109375,-1.009307861328125,-0.0667266845703125,-0.014923095703125
1772536354828067600,0.308067626953125,-1.009002685546875,-0.0643157958984375,-0.01373291015625
1772536354838116400,0.318116455078125,-1.00201416015625,-0.061614990234375,-0.0109405517578125
1772536354848164600,0.32816455078125,-0.9992523193359375,-0.0587921142578125,-0.0080108642578125
1772536354858212400,0.33821240234375,-1.00189208984375,-0.0567169189453125,-0.0039215087890625
1772536354868260400,0.34826025390625,-1.0079803466796875,-0.0556793212890625,-0.0012664794921875
1772536354878308600,0.35830859375,-1.00640869140625,-0.052825927734375,-0.0024261474609375
1772536354888357400,0.368357421875,-1.0057830810546875,-0.050933837890625,-0.006011962890625
1772536354898405600,0.378405517578125,-1.00408935546875,-0.05023193359375,-0.01092529296875
1772536354908453400,0.388453369140625,-1.001251220703125,-0.04864501953125,-0.0112762451171875
1772536354918501600,0.398501708984375,-1.0019683837890625,-0.0504608154296875,-0.010986328125
1772536354928550400,0.40855029296875,-1.0020294189453125,-0.0570526123046875,-0.0106201171875
1772536354938598400,0.418598388671875,-1.00372314453125,-0.0589447021484375,-0.0066986083984375
1772536354948646700,0.428646728515625,-1.0052032470703125,-0.064056396484375,-0.004364013671875
1772536354958694400,0.4386943359375,-1.0030975341796875,-0.0692901611328125,0.0006561279296875
1772536354968743700,0.44874365234375,-1.0017242431640625,-0.072479248046875,0.003631591796875
1772536354978791400,0.45879150390625,-0.997406005859375,-0.0740509033203125,0.0019073486328125
1772536354988839400,0.46883935546875,-0.9923095703125,-0.0745849609375,0.0003509521484375
1772536354998887400,0.478887451171875,-0.9911651611328125,-0.07568359375,0.0029754638671875
1772536355008936400,0.4889365234375,-0.9908447265625,-0.07489013671875,0.00604248046875
1772536355018984400,0.498984375,-0.9931182861328125,-0.074432373046875,0.0078887939453125
1772536355029032000,0.509031982421875,-0.993682861328125,-0.073944091796875,0.0074615478515625
1772536355039080200,0.519080078125,-0.9910736083984375,-0.07171630859375,0.0055084228515625
1772536355049128000,0.5291279296875,-0.9897918701171875,-0.0707244873046875,0.007415771484375
1772536355059177200,0.53917724609375,-0.9990997314453125,-0.07208251953125,0.0088958740234375
1772536355069225000,0.549224853515625,-1.0057525634765625,-0.069000244140625,0.00775146484375
1772536355079273000,0.55927294921875,-1.0050506591796875,-0.061614990234375,0.0035552978515625
1772536355089321200,0.5693212890625,-1.0061798095703125,-0.0598907470703125,-0.0011749267578125
1772536355099370000,0.579369873046875,-1.0110321044921875,-0.0585479736328125,-0.0021820068359375
1772536355109418200,0.589418212890625,-1.0108795166015625,-0.0611419677734375,-0.0028839111328125
1772536355119466000,0.599466064453125,-1.003509521484375,-0.06378173828125,-0.0012969970703125
1772536355129514000,0.609513916015625,-1.001220703125,-0.0663299560546875,0.00274658203125
1772536355139563000,0.61956298828125,-1.00128173828125,-0.06805419921875,0.0066070556640625
1772536355149611000,0.629611083984375,-1.0045013427734375,-0.070770263671875,0.0125732421875
1772536355159659300,0.6396591796875,-1.0052032470703125,-0.07244873046875,0.0187225341796875
1772536355169707000,0.64970703125,-1.0014190673828125,-0.071807861328125,0.018463134765625
1772536355179756300,0.65975634765625,-1.0042266845703125,-0.0660247802734375,0.01531982421875
1772536355189804000,0.669803955078125,-1.005615234375,-0.06268310546875,0.0141754150390625
1772536355199852000,0.67985205078125,-1.0053253173828125,-0.06170654296875,0.0147552490234375
1772536355209900000,0.689900146484375,-1.0034027099609375,-0.061553955078125,0.011474609375
1772536355219948000,0.699947998046875,-0.9996185302734375,-0.067535400390625,0.0103302001953125
1772536355229997000,0.7099970703125,-1.0018157958984375,-0.0703277587890625,0.0118560791015625
1772536355240045000,0.720045166015625,-1.0062408447265625,-0.073699951171875,0.013458251953125
1772536355250093000,0.730093017578125,-1.0064697265625,-0.0768280029296875,0.015106201171875
1772536355260141000,0.74014111328125,-1.0045623779296875,-0.0742034912109375,0.0130462646484375
1772536355270190000,0.750190185546875,-0.9986724853515625,-0.0753173828125,0.011138916015625
1772536355280238000,0.760238037109375,-0.9983367919921875,-0.077484130859375,0.0112457275390625
1772536355290286000,0.7702861328125,-1.000213623046875,-0.0772247314453125,0.01043701171875
1772536355300334000,0.780333984375,-1.00201416015625,-0.074737548828125,0.010528564453125
1772536355310383000,0.790383056640625,-0.9996490478515625,-0.07342529296875,0.010833740234375
1772536355320431000,0.80043115234375,-0.9981842041015625,-0.07342529296875,0.0105743408203125
1772536355330479000,0.81047900390625,-0.999176025390625,-0.072021484375,0.0092926025390625
1772536355340527000,0.820527099609375,-0.9933929443359375,-0.070037841796875,0.0053863525390625
1772536355350574800,0.830574951171875,-0.9935150146484375,-0.0695953369140625,0.006134033203125
1772536355360624000,0.8406240234375,-0.9975433349609375,-0.066314697265625,0.007965087890625
1772536355370671900,0.850671875,-0.9940338134765625,-0.068084716796875,0.009521484375
1772536355380720000,0.86072021484375,-0.9958343505859375,-0.069732666015625,0.0105133056640625
1772536355390768000,0.87076806640625,-0.9987030029296875,-0.067840576171875,0.010833740234375
1772536355400817200,0.880817138671875,-0.9960784912109375,-0.068206787109375,0.0098114013671875
1772536355410865200,0.890865234375,-0.9964752197265625,-0.0684051513671875,0.00921630859375
1772536355420913000,0.900912841796875,-1.0017852783203125,-0.06829833984375,0.0052032470703125
1772536355430961200,0.910961181640625,-0.9992218017578125,-0.06695556640625,0.001953125
1772536355441010000,0.921010009765625,-0.9966583251953125,-0.0658111572265625,0.002960205078125
1772536355451058200,0.93105810546875,-1.000244140625,-0.0676422119140625,0.00421142578125
1772536355461106200,0.941106201171875,-1.001556396484375,-0.0680999755859375,0.0021514892578125
1772536355471154000,0.95115380859375,-0.9983978271484375,-0.0674591064453125,0.0003509521484375
1772536355481203200,0.961203125,-0.997650146484375,-0.065826416015625,-0.0016021728515625
1772536355491251000,0.9712509765625,-0.994964599609375,-0.0665740966796875,-0.003265380859375
1772536355501299200,0.98129931640625,-0.9941864013671875,-0.0667266845703125,-0.001983642578125
1772536355511347000,0.991346923828125,-0.997528076171875,-0.067657470703125,-0.00201416015625
1772536355521395000,1.00139501953125,-0.9975738525390625,-0.0689544677734375,0.000701904296875
1772536355531444000,1.01144384765625,-1.001190185546875,-0.06683349609375,0.000335693359375
1772536355541492000,1.021491943359375,-1.0003204345703125,-0.0660858154296875,0.00128173828125
1772536355551540200,1.031540283203125,-1.0031890869140625,-0.0650787353515625,0.0020599365234375
1772536355561588000,1.041587890625,-1.00579833984375,-0.0625,0.001068115234375
1772536355571637200,1.05163720703125,-1.0034637451171875,-0.061370849609375,0.003204345703125
1772536355581685000,1.06168505859375,-1.0000152587890625,-0.061981201171875,0.0048828125
1772536355591733000,1.07173291015625,-0.998504638671875,-0.0615081787109375,0.00634765625
1772536355601781200,1.08178125,-1.000885009765625,-0.06121826171875,0.008758544921875
1772536355611830000,1.091830078125,-1.0000762939453125,-0.0639801025390625,0.010101318359375
1772536355621878300,1.101878173828125,-1.0005035400390625,-0.0670318603515625,0.012481689453125
1772536355631926000,1.111926025390625,-1.0007781982421875,-0.0645599365234375,0.01214599609375
1772536355641974000,1.12197412109375,-1.0013885498046875,-0.0624237060546875,0.0132904052734375
1772536355652023000,1.13202294921875,-1.002471923828125,-0.0612640380859375,0.0125885009765625
1772536355662071000,1.142071044921875,-1.003387451171875,-0.0598602294921875,0.0108184814453125
1772536355672119000,1.152119140625,-1.000335693359375,-0.05926513671875,0.0106048583984375
1772536355682167000,1.1621669921875,-1.001007080078125,-0.06072998046875,0.010223388671875
1772536355692215000,1.172215087890625,-1.0077362060546875,-0.062103271484375,0.0091705322265625
1772536355702264000,1.18226416015625,-1.010772705078125,-0.0624237060546875,0.0071563720703125
1772536355712312000,1.19231201171875,-1.00701904296875,-0.06170654296875,0.0060577392578125
1772536355722360000,1.202360107421875,-1.005828857421875,-0.0609283447265625,0.0046539306640625
1772536355732408000,1.212407958984375,-1.006561279296875,-0.060943603515625,0.0032501220703125
1772536355742457000,1.22245703125,-1.0054473876953125,-0.0614471435546875,0.0010223388671875
1772536355752505000,1.232505126953125,-1.001190185546875,-0.0643157958984375,-0.0000762939453125
1772536355762553000,1.242552978515625,-1.002655029296875,-0.0645904541015625,0.0032958984375
1772536355772601000,1.25260107421875,-1.0044097900390625,-0.0650482177734375,0.0041046142578125
1772536355782650000,1.262650146484375,-1.0000152587890625,-0.06475830078125,0.002288818359375
1772536355792698000,1.272697998046875,-0.9974212646484375,-0.0652923583984375,0.0026702880859375
1772536355802746000,1.28274609375,-0.998992919921875,-0.0644073486328125,0.0040283203125
1772536355812793900,1.2927939453125,-1.0008087158203125,-0.0648040771484375,0.0042266845703125
1772536355822843100,1.302843017578125,-0.996307373046875,-0.0654449462890625,0.00140380859375
1772536355832891000,1.312890869140625,-0.9936676025390625,-0.063232421875,0.0030364990234375
1772536355842939100,1.322939208984375,-0.9963836669921875,-0.063690185546875,0.0028839111328125
1772536355852987100,1.332987060546875,-0.9964141845703125,-0.066741943359375,0.0008087158203125
1772536355863035000,1.343034912109375,-0.9935455322265625,-0.0665740966796875,-0.0001068115234375
1772536355873084200,1.353084228515625,-0.991058349609375,-0.06610107421875,0.000244140625
1772536355883132000,1.3631318359375,-0.9923248291015625,-0.068359375,0.0004730224609375
1772536355893180200,1.37318017578125,-0.9989776611328125,-0.070587158203125,0.0018768310546875
1772536355903228200,1.383228271484375,-1.0044708251953125,-0.0709991455078125,0.0017852783203125
1772536355913277200,1.393277099609375,-1.0013580322265625,-0.0714874267578125,0.0018157958984375
1772536355923325200,1.4033251953125,-0.9997711181640625,-0.0683135986328125,0.0018310546875
1772536355933373000,1.413373046875,-1.0037078857421875,-0.06817626953125,0.0031890869140625
1772536355943421200,1.423421142578125,-1.00726318359375,-0.06805419921875,0.0030364990234375
1772536355953470000,1.433469970703125,-1.0042266845703125,-0.06732177734375,0.0035247802734375
1772536355963518200,1.443518310546875,-1.001708984375,-0.066162109375,0.0039215087890625
1772536355973566000,1.45356591796875,-1.003692626953125,-0.06536865234375,0.00347900390625
1772536355983614000,1.463614013671875,-1.002471923828125,-0.0683746337890625,0.0018463134765625
1772536355993662200,1.473662109375,-0.99652099609375,-0.0674591064453125,0.0002593994140625
1772536356003711000,1.4837109375,-0.9953460693359375,-0.066864013671875,0.00262451171875
1772536356013759200,1.49375927734375,-0.999725341796875,-0.069732666015625,0.0020599365234375
1772536356023807000,1.503806884765625,-0.9997406005859375,-0.0710601806640625,-0.002166748046875
1772536356033855200,1.513855224609375,-0.99603271484375,-0.0707244873046875,-0.0022430419921875
1772536356043904300,1.523904296875,-0.9989776611328125,-0.071075439453125,-0.0043487548828125
1772536356053952300,1.5339521484375,-1.0023040771484375,-0.071136474609375,-0.0053253173828125
1772536356064000300,1.544000244140625,-1.0009307861328125,-0.0712890625,-0.0041046142578125
1772536356074048300,1.55404833984375,-1.00067138671875,-0.070587158203125,-0.0026397705078125
1772536356084097000,1.564096923828125,-1.0035858154296875,-0.067718505859375,-0.0015411376953125
1772536356094145300,1.574145263671875,-0.9994354248046875,-0.0666351318359375,-0.0022430419921875
1772536356104193300,1.584193359375,-0.997650146484375,-0.0670166015625,-0.0011138916015625
1772536356114241000,1.594240966796875,-0.9994049072265625,-0.0662689208984375,0.0006103515625
1772536356124289300,1.604289306640625,-0.9975738525390625,-0.0656585693359375,0.0002899169921875
1772536356134338000,1.614338134765625,-0.9958648681640625,-0.06549072265625,0.000091552734375
1772536356144386300,1.62438623046875,-0.9996185302734375,-0.064788818359375,0.00042724609375
1772536356154434300,1.634434326171875,-0.999298095703125,-0.065338134765625,-0.0003509521484375
1772536356164482000,1.64448193359375,-0.99884033203125,-0.064788818359375,-0.000518798828125
1772536356174531300,1.65453125,-0.99798583984375,-0.0648193359375,-0.003662109375
1772536356184579000,1.6645791015625,-0.9965362548828125,-0.0661163330078125,-0.0043487548828125
1772536356194627300,1.67462744140625,-0.9964447021484375,-0.066497802734375,-0.00396728515625
1772536356204675000,1.684675048828125,-0.99798583984375,-0.068267822265625,-0.004547119140625
1772536356214724400,1.694724365234375,-0.9974822998046875,-0.070220947265625,-0.0062103271484375
1772536356224772000,1.704772216796875,-0.9940185546875,-0.0716705322265625,-0.005889892578125
1772536356234820000,1.714820068359375,-0.998199462890625,-0.071929931640625,-0.0035247802734375
1772536356244868400,1.724868408203125,-1.000885009765625,-0.0719451904296875,-0.0037689208984375
1772536356254917000,1.734917236328125,-0.9976959228515625,-0.0711669921875,-0.004791259765625
1772536356264965400,1.74496533203125,-0.996673583984375,-0.06884765625,-0.0048675537109375
1772536356275013000,1.75501318359375,-0.99993896484375,-0.0685882568359375,-0.0037841796875
1772536356285061000,1.76506103515625,-1.00067138671875,-0.068359375,-0.0020294189453125
1772536356295109400,1.775109375,-1.00079345703125,-0.0668487548828125,-0.0018310546875
1772536356305158100,1.785158203125,-1.002593994140625,-0.064605712890625,0.000244140625
1772536356315206400,1.795206298828125,-1.0041961669921875,-0.0628662109375,0.0012969970703125
1772536356325254100,1.805254150390625,-1.0053558349609375,-0.061859130859375,0.003204345703125
1772536356335302100,1.81530224609375,-1.0041961669921875,-0.062713623046875,0.0026702880859375
1772536356345351200,1.82535107421875,-0.9995574951171875,-0.0623779296875,0.000518798828125
1772536356355399200,1.835399169921875,-0.999664306640625,-0.061309814453125,0.0024871826171875
1772536356365447200,1.845447265625,-1.0021514892578125,-0.0625457763671875,0.0040740966796875
1772536356375495200,1.8554951171875,-1.00067138671875,-0.063201904296875,0.0037078857421875
1772536356385544200,1.865544189453125,-1.001617431640625,-0.063232421875,0.0033111572265625
1772536356395592200,1.87559228515625,-1.0016632080078125,-0.065155029296875,0.004241943359375
1772536356405640200,1.88564013671875,-1.0045318603515625,-0.0664825439453125,0.0036163330078125
1772536356415688200,1.895688232421875,-1.0016632080078125,-0.0655975341796875,0.0003204345703125
1772536356425736200,1.905736083984375,-0.99920654296875,-0.0641326904296875,-0.000640869140625
1772536356435785200,1.91578515625,-0.9997711181640625,-0.065338134765625,-0.0001220703125
1772536356445833200,1.925833251953125,-1.0040130615234375,-0.0652618408203125,-0.0009307861328125
1772536356455881200,1.935881103515625,-1.0042266845703125,-0.06610107421875,-0.0009002685546875
1772536356465929200,1.94592919921875,-0.998046875,-0.064239501953125,-0.0042572021484375
1772536356475978200,1.955978271484375,-0.9945831298828125,-0.0630340576171875,-0.003875732421875
1772536356486026200,1.966026123046875,-0.99627685546875,-0.0653228759765625,-0.001922607421875
1772536356496074200,1.97607421875,-1.00140380859375,-0.0687103271484375,0.000640869140625
1772536356506122200,1.986122314453125,-1.0045318603515625,-0.0673370361328125,0.000518798828125
1772536356516171300,1.996171142578125,-1.0015106201171875,-0.0623931884765625,-0.000213623046875
1772536356526219000,2.006218994140625,-1.0000762939453125,-0.0610504150390625,-0.001312255859375
1772536356536267300,2.016267333984375,-1.000396728515625,-0.0604400634765625,-0.0015869140625
1772536356546315300,2.026315185546875,-1.0008392333984375,-0.0622100830078125,-0.0004730224609375
1772536356556363000,2.036363037109375,-1.0028076171875,-0.0650177001953125,0.0015411376953125
1772536356566412300,2.046412353515625,-1.0047760009765625,-0.066192626953125,0.00439453125
1772536356576460000,2.0564599609375,-1.0027313232421875,-0.063690185546875,0.0008392333984375
1772536356586508300,2.06650830078125,-0.9985198974609375,-0.0614471435546875,-0.0020294189453125
1772536356596556300,2.076556396484375,-0.996612548828125,-0.06231689453125,-0.0020294189453125
1772536356606605300,2.086605224609375,-0.9971160888671875,-0.0655517578125,-0.001007080078125
1772536356616653300,2.0966533203125,-0.998626708984375,-0.0695648193359375,0.00018310546875
1772536356626701000,2.106701171875,-0.999908447265625,-0.071990966796875,0.0016021728515625
1772536356636749300,2.116749267578125,-0.998748779296875,-0.072235107421875,-0.001678466796875
1772536356646798000,2.126798095703125,-0.996307373046875,-0.0690155029296875,-0.0044097900390625
1772536356656846300,2.136846435546875,-0.998321533203125,-0.0675048828125,-0.0047149658203125
1772536356666894000,2.14689404296875,-0.9977874755859375,-0.06988525390625,-0.0067596435546875
1772536356676942000,2.156942138671875,-0.9942169189453125,-0.0692596435546875,-0.0067291259765625
1772536356686990300,2.166990234375,-0.9920196533203125,-0.0670318603515625,-0.005523681640625
1772536356697039000,2.1770390625,-1.0009765625,-0.0692596435546875,-0.0027008056640625
1772536356707087400,2.18708740234375,-1.00701904296875,-0.0708770751953125,-0.0020599365234375
1772536356717135000,2.197135009765625,-0.9981842041015625,-0.0635833740234375,-0.0081329345703125
1772536356727183000,2.20718310546875,-0.9935150146484375,-0.05804443359375,-0.0063934326171875
1772536356737232100,2.217232177734375,-1.0010986328125,-0.062774658203125,-0.004119873046875
1772536356747280100,2.227280029296875,-1.0043182373046875,-0.06787109375,-0.0030059814453125
1772536356757328400,2.237328369140625,-1.00445556640625,-0.0652618408203125,-0.0018463134765625
1772536356767376100,2.247376220703125,-1.0028228759765625,-0.0634613037109375,-0.0045928955078125
1772536356777425400,2.25742529296875,-1.0020294189453125,-0.0624237060546875,-0.0044097900390625
1772536356787473200,2.26747314453125,-1.003143310546875,-0.062530517578125,-0.004547119140625
1772536356797521200,2.277521240234375,-1.0014495849609375,-0.0637359619140625,-0.0061492919921875
1772536356807569200,2.287569091796875,-0.998382568359375,-0.06561279296875,-0.006011962890625
1772536356817618200,2.2976181640625,-1.00323486328125,-0.0680999755859375,-0.0030059814453125
1772536356827666200,2.307666259765625,-1.005096435546875,-0.0698394775390625,-0.0052947998046875
1772536356837714200,2.317714111328125,-0.9976043701171875,-0.066986083984375,-0.007293701171875
1772536356847762200,2.32776220703125,-0.9968414306640625,-0.0638275146484375,-0.00714111328125
1772536356857810200,2.33781005859375,-1.00006103515625,-0.0658416748046875,-0.005035400390625
1772536356867859200,2.347859130859375,-1.0001983642578125,-0.069244384765625,-0.00457763671875
1772536356877907200,2.3579072265625,-0.9985809326171875,-0.069671630859375,-0.00518798828125
1772536356887955200,2.367955078125,-1.0006103515625,-0.0699005126953125,-0.00311279296875
1772536356898003200,2.378003173828125,-1.000457763671875,-0.0697784423828125,-0.004608154296875
1772536356908052200,2.38805224609375,-1.0003662109375,-0.0651397705078125,-0.00579833984375
1772536356918100200,2.398100341796875,-0.9972381591796875,-0.06304931640625,-0.006103515625
1772536356928148200,2.408148193359375,-0.99810791015625,-0.062591552734375,-0.0073394775390625
1772536356938196200,2.4181962890625,-1.004791259765625,-0.0614013671875,-0.0050048828125
1772536356948245200,2.428245361328125,-1.006622314453125,-0.0609283447265625,-0.0058135986328125
1772536356958293200,2.438293212890625,-1.000335693359375,-0.057525634765625,-0.00775146484375
1772536356968341000,2.448341064453125,-1.0017547607421875,-0.056427001953125,-0.006744384765625
1772536356978389200,2.45838916015625,-1.004913330078125,-0.0592041015625,-0.0054779052734375
1772536356988437200,2.468437255859375,-1.005126953125,-0.060028076171875,-0.0056610107421875
1772536356998486300,2.478486328125,-1.0003509521484375,-0.0633392333984375,-0.004791259765625
1772536357008534300,2.4885341796875,-1.0030059814453125,-0.0645294189453125,-0.0032501220703125
1772536357018582000,2.49858203125,-1.00335693359375,-0.0660400390625,-0.005523681640625
1772536357028630300,2.50863037109375,-0.9986572265625,-0.066375732421875,-0.0054779052734375
1772536357038679300,2.51867919921875,-0.99578857421875,-0.067535400390625,-0.00653076171875
1772536357048727600,2.5287275390625,-0.9992523193359375,-0.0684967041015625,-0.00634765625
1772536357058775600,2.538775634765625,-1.0032501220703125,-0.06927490234375,-0.0054931640625
1772536357068823600,2.548823486328125,-0.9981231689453125,-0.0676727294921875,-0.007904052734375
1772536357078872300,2.558872314453125,-0.9946441650390625,-0.0651702880859375,-0.007476806640625
1772536357088920300,2.56892041015625,-1.0003662109375,-0.0649566650390625,-0.005279541015625
1772536357098968600,2.578968505859375,-0.99957275390625,-0.0647430419921875,-0.00421142578125
1772536357109016300,2.589016357421875,-0.9959564208984375,-0.063934326171875,-0.0025634765625
1772536357119064600,2.599064697265625,-0.999267578125,-0.063720703125,-0.001617431640625
1772536357129113300,2.60911328125,-1.000732421875,-0.0645294189453125,-0.0018157958984375
1772536357139161300,2.619161376953125,-0.9967498779296875,-0.0639801025390625,-0.0017242431640625
1772536357149209600,2.629209716796875,-0.9977569580078125,-0.06390380859375,-0.00006103515625
1772536357159257300,2.63925732421875,-1.0017242431640625,-0.064056396484375,-0.0001373291015625
1772536357169306600,2.649306640625,-1.00274658203125,-0.063079833984375,-0.0014190673828125
1772536357179354400,2.659354248046875,-0.9990386962890625,-0.0607147216796875,-0.0023345947265625
1772536357189402400,2.66940234375,-1.0042266845703125,-0.0590972900390625,-0.00274658203125
1772536357199450400,2.679450439453125,-1.00909423828125,-0.061553955078125,-0.00384521484375
1772536357209498400,2.689498291015625,-1.0037841796875,-0.0612945556640625,-0.0032806396484375
1772536357219547400,2.69954736328125,-1.002197265625,-0.0612945556640625,-0.0023651123046875
1772536357229595400,2.709595458984375,-1.004425048828125,-0.0630950927734375,-0.0030670166015625
1772536357239643600,2.7196435546875,-1.005859375,-0.06512451171875,-0.0032958984375
1772536357249691400,2.72969140625,-1.0045928955078125,-0.0634765625,-0.00335693359375
1772536357259740400,2.739740478515625,-1.0002288818359375,-0.0629425048828125,-0.0048065185546875
1772536357269788400,2.749788330078125,-0.9989013671875,-0.0620880126953125,-0.00469970703125
1772536357279836400,2.75983642578125,-1.0021820068359375,-0.063201904296875,-0.0026702880859375
1772536357289884700,2.769884765625,-1.0011138916015625,-0.065887451171875,-0.0039825439453125
1772536357299933400,2.779933349609375,-0.9976654052734375,-0.064605712890625,-0.004608154296875
1772536357309981400,2.7899814453125,-0.996612548828125,-0.064300537109375,-0.0043487548828125
1772536357320029400,2.800029541015625,-0.9962615966796875,-0.0673370361328125,-0.0051116943359375
1772536357330077400,2.810077392578125,-0.99554443359375,-0.069122314453125,-0.0051727294921875
1772536357340125400,2.82012548828125,-0.994415283203125,-0.06768798828125,-0.0055694580078125
1772536357350174500,2.830174560546875,-0.9951324462890625,-0.068634033203125,-0.0042266845703125
1772536357360222500,2.840222412109375,-0.99847412109375,-0.067108154296875,-0.0041961669921875
1772536357370270500,2.8502705078125,-0.99847412109375,-0.0659332275390625,-0.0066680908203125
1772536357380318500,2.860318359375,-0.9958343505859375,-0.06298828125,-0.0078125
1772536357390367500,2.870367431640625,-0.9968109130859375,-0.060821533203125,-0.0064697265625
1772536357400415500,2.88041552734375,-0.9990081787109375,-0.0629425048828125,-0.00665283203125
1772536357410463500,2.89046337890625,-1.0009307861328125,-0.0640411376953125,-0.0050048828125
1772536357420511500,2.900511474609375,-1.0011138916015625,-0.0637359619140625,-0.003936767578125
1772536357430560300,2.910560302734375,-1.0030670166015625,-0.0628662109375,-0.0027008056640625
1772536357440608500,2.9206083984375,-1.0034027099609375,-0.0629119873046875,-0.0043182373046875
1772536357450656500,2.930656494140625,-1.002288818359375,-0.0612640380859375,-0.005401611328125
1772536357460704500,2.94070458984375,-1.002197265625,-0.06085205078125,-0.005859375
1772536357470752500,2.95075244140625,-1.0021820068359375,-0.0621795654296875,-0.0048980712890625
1772536357480801300,2.96080126953125,-1.0000762939453125,-0.062774658203125,-0.00494384765625
1772536357490849500,2.970849609375,-1.00103759765625,-0.063018798828125,-0.0052337646484375
1772536357500897300,2.980897216796875,-1.001617431640625,-0.0636749267578125,-0.0048828125
1772536357510945500,2.990945556640625,-0.99810791015625,-0.064483642578125,-0.0024261474609375
1772536357520994300,3.000994384765625,-0.99896240234375,-0.06646728515625,-0.0011444091796875
1772536357531042600,3.01104248046875,-1.00006103515625,-0.0689239501953125,-0.0009307861328125
1772536357541090600,3.021090576171875,-0.9972686767578125,-0.0682220458984375,-0.002655029296875
1772536357551138300,3.03113818359375,-0.9951324462890625,-0.06756591796875,-0.003387451171875
1772536357561187600,3.0411875,-1.0006256103515625,-0.067596435546875,-0.003631591796875
1772536357571235300,3.0512353515625,-1.0066070556640625,-0.0687255859375,-0.0034637451171875
1772536357581283600,3.06128369140625,-1.001220703125,-0.0646514892578125,-0.0075836181640625
1772536357591331600,3.07133154296875,-0.997802734375,-0.0614013671875,-0.005889892578125
1772536357601380400,3.08138037109375,-1.005126953125,-0.0620880126953125,-0.0050811767578125
1772536357611428600,3.0914287109375,-1.0057525634765625,-0.0634613037109375,-0.004638671875
1772536357621476400,3.101476318359375,-1.0027313232421875,-0.0623626708984375,-0.004913330078125
1772536357631524600,3.111524658203125,-0.997772216796875,-0.060882568359375,-0.005889892578125
1772536357641572400,3.121572265625,-0.995941162109375,-0.062103271484375,-0.004547119140625
1772536357651621400,3.131621337890625,-0.997467041015625,-0.0651092529296875,-0.0039520263671875
1772536357661669400,3.14166943359375,-0.9978790283203125,-0.067169189453125,-0.0011444091796875
1772536357671717400,3.15171728515625,-0.9981689453125,-0.0674591064453125,-0.001495361328125
1772536357681765600,3.161765625,-0.9970245361328125,-0.0673675537109375,-0.0030975341796875
1772536357691814400,3.171814453125,-0.99755859375,-0.0671844482421875,-0.0030975341796875
1772536357701862700,3.181862548828125,-0.998382568359375,-0.06671142578125,-0.0043792724609375
1772536357711910400,3.191910400390625,-0.9976043701171875,-0.0655364990234375,-0.0046844482421875
1772536357721958400,3.20195849609375,-1.000701904296875,-0.065887451171875,-0.00323486328125
1772536357732006700,3.212006591796875,-1.0031890869140625,-0.064788818359375,-0.005615234375
1772536357742055400,3.222055419921875,-1.002716064453125,-0.0633392333984375,-0.00384521484375
1772536357752103700,3.232103759765625,-1.00408935546875,-0.0624542236328125,-0.002685546875
1772536357762151400,3.2421513671875,-1.0040435791015625,-0.0630035400390625,-0.00225830078125
1772536357772199400,3.252199462890625,-1.000946044921875,-0.061004638671875,-0.000213623046875
1772536357782248400,3.26224853515625,-1.0024566650390625,-0.0620880126953125,0.0005645751953125
1772536357792296400,3.27229638671875,-1.002716064453125,-0.06170654296875,0.0000762939453125
1772536357802344400,3.282344482421875,-0.99835205078125,-0.062255859375,0.0002899169921875
1772536357812392400,3.292392333984375,-1.0010528564453125,-0.0625457763671875,0.001556396484375
1772536357822441200,3.302441162109375,-1.0063934326171875,-0.0622406005859375,0.0009613037109375
1772536357832489500,3.312489501953125,-1.0036163330078125,-0.060272216796875,0.000091552734375
1772536357842537500,3.322537353515625,-1.0023651123046875,-0.0576629638671875,-0.0027618408203125
1772536357852585500,3.33258544921875,-1.002166748046875,-0.0599517822265625,-0.003814697265625
1772536357862633500,3.342633544921875,-1.0035858154296875,-0.0628814697265625,-0.0015716552734375
1772536357872682500,3.3526826171875,-1.0078582763671875,-0.0646209716796875,-0.0014190673828125
1772536357882730500,3.36273046875,-1.0053558349609375,-0.0640716552734375,-0.002685546875
1772536357892778500,3.372778564453125,-0.9987640380859375,-0.0638275146484375,-0.003570556640625
1772536357902826500,3.382826416015625,-0.9979095458984375,-0.0642852783203125,-0.00384521484375
1772536357912875500,3.39287548828125,-1.000396728515625,-0.066253662109375,-0.0016326904296875
1772536357922923500,3.402923583984375,-0.9990692138671875,-0.0673065185546875,-0.003692626953125
1772536357932971500,3.412971435546875,-0.9948577880859375,-0.064300537109375,-0.00445556640625
1772536357943019300,3.423019287109375,-0.9939727783203125,-0.0651397705078125,-0.00396728515625
1772536357953068500,3.433068603515625,-0.9975738525390625,-0.0676727294921875,-0.001983642578125
1772536357963116300,3.4431162109375,-0.9994354248046875,-0.0675811767578125,-0.0025482177734375
1772536357973164500,3.45316455078125,-0.994659423828125,-0.0648040771484375,-0.0038604736328125
1772536357983212500,3.463212646484375,-0.99163818359375,-0.0629425048828125,-0.0038299560546875
1772536357993260300,3.47326025390625,-0.99969482421875,-0.064361572265625,-0.00048828125
1772536358003309600,3.4833095703125,-1.00396728515625,-0.0660858154296875,0.0004730224609375
1772536358013357300,3.493357421875,-0.9993896484375,-0.06451416015625,-0.0020751953125
1772536358023405600,3.503405517578125,-0.9979705810546875,-0.060821533203125,-0.0014495849609375
1772536358033457200,3.51345703125,-1.0037994384765625,-0.0609588623046875,0.00067138671875
1772536358043506000,3.523505859375,-1.0037994384765625,-0.0618896484375,-0.0026397705078125
1772536358053554200,3.53355419921875,-0.998382568359375,-0.0622100830078125,-0.0027923583984375
1772536358063602000,3.543601806640625,-0.9996795654296875,-0.06402587890625,-0.0003204345703125
1772536358073650000,3.55364990234375,-1.0035400390625,-0.06658935546875,0.000213623046875
1772536358083699000,3.563698974609375,-1.0022430419921875,-0.0647125244140625,-0.0018310546875
1772536358093747000,3.573746826171875,-1.0045013427734375,-0.061553955078125,-0.001129150390625
1772536358103795000,3.583794921875,-1.0086669921875,-0.06005859375,-0.0044097900390625
1772536358113843000,3.593843017578125,-1.0035552978515625,-0.059539794921875,-0.004913330078125
1772536358123891000,3.603890869140625,-1.00048828125,-0.0592803955078125,-0.0037841796875
1772536358133940000,3.61393994140625,-0.9993133544921875,-0.0625457763671875,-0.0019683837890625
1772536358143988000,3.623988037109375,-0.99945068359375,-0.0664825439453125,-0.001312255859375
1772536358154036000,3.634035888671875,-0.9997711181640625,-0.067840576171875,-0.002044677734375
1772536358164084000,3.644083984375,-0.998748779296875,-0.066558837890625,-0.0018463134765625
1772536358174133000,3.654133056640625,-0.9979248046875,-0.0662689208984375,-0.0014801025390625
1772536358184181000,3.664180908203125,-0.9996795654296875,-0.0655670166015625,-0.0023193359375
1772536358194229000,3.67422900390625,-0.9992828369140625,-0.06536865234375,-0.0016632080078125
1772536358204277000,3.684277099609375,-1.000640869140625,-0.06475830078125,-0.0028533935546875
1772536358214325000,3.694324951171875,-0.99920654296875,-0.064788818359375,-0.0037689208984375
1772536358224374000,3.7043740234375,-1.0019378662109375,-0.0640716552734375,-0.00238037109375
1772536358234422000,3.714422119140625,-1.0018463134765625,-0.0628662109375,-0.003814697265625
1772536358244469800,3.7244697265625,-1.0015106201171875,-0.06121826171875,-0.002410888671875
1772536358254518000,3.73451806640625,-1.003631591796875,-0.0599822998046875,-0.003448486328125
1772536358264566800,3.74456689453125,-1.0030975341796875,-0.060333251953125,-0.003936767578125
1772536358274615000,3.754614990234375,-1.0006256103515625,-0.059722900390625,-0.00238037109375
1772536358284663000,3.7646630859375,-1.0029449462890625,-0.060821533203125,-0.0014801025390625
1772536358294710800,3.774710693359375,-1.0000762939453125,-0.0625762939453125,-0.002655029296875
1772536358304760000,3.784760009765625,-0.99737548828125,-0.0638275146484375,-0.00146484375
1772536358314807800,3.794807861328125,-0.9992218017578125,-0.0654449462890625,-0.0016326904296875
1772536358324856000,3.80485595703125,-1.00177001953125,-0.0672454833984375,-0.000396728515625
1772536358334904000,3.814904052734375,-1.001007080078125,-0.0689697265625,-0.0007781982421875
1772536358344953000,3.824953125,-1.0013275146484375,-0.0688323974609375,-0.0013885498046875
1772536358355001000,3.8350009765625,-0.9995574951171875,-0.06744384765625,-0.0027618408203125
1772536358365048800,3.845048828125,-0.9982757568359375,-0.0652008056640625,-0.00421142578125
1772536358375097000,3.85509716796875,-0.999755859375,-0.0647430419921875,-0.0043182373046875
1772536358385144800,3.865144775390625,-1.001617431640625,-0.0654296875,-0.0039215087890625
1772536358395194000,3.875194091796875,-0.9982147216796875,-0.0651397705078125,-0.00421142578125
1772536358405241900,3.885241943359375,-0.9967041015625,-0.0634918212890625,-0.0040283203125
1772536358415289900,3.895289794921875,-0.9975433349609375,-0.064361572265625,-0.00384521484375
1772536358425338000,3.905338134765625,-0.9989166259765625,-0.06451416015625,-0.002838134765625
1772536358435387000,3.915386962890625,-0.9951934814453125,-0.06494140625,-0.00311279296875
1772536358445435100,3.92543505859375,-0.9926605224609375,-0.0647735595703125,-0.003631591796875
1772536358455483000,3.93548291015625,-0.9981536865234375,-0.0649261474609375,-0.002716064453125
1772536358465531000,3.94553076171875,-0.999267578125,-0.06402587890625,-0.0040130615234375
1772536358475579100,3.9555791015625,-0.9985198974609375,-0.061737060546875,-0.00347900390625
1772536358485628000,3.9656279296875,-1.0017852783203125,-0.0616302490234375,-0.0037841796875
1772536358495676200,3.97567626953125,-1.0035858154296875,-0.0635223388671875,-0.0031585693359375
1772536358505724000,3.985723876953125,-1.003021240234375,-0.0640106201171875,-0.00286865234375
1772536358515772000,3.99577197265625,-1.002532958984375,-0.0638885498046875,-0.002716064453125
1772536358525821000,4.005821044921875,-1.0037384033203125,-0.0646514892578125,-0.0016326904296875
1772536358535869000,4.015868896484375,-1.0045013427734375,-0.0628814697265625,-0.003021240234375
1772536358545917000,4.0259169921875,-1.0020751953125,-0.0632781982421875,-0.0033111572265625
1772536358555965000,4.03596484375,-0.9997711181640625,-0.0642242431640625,-0.00299072265625
1772536358566014000,4.046013916015625,-1.0003662109375,-0.0657806396484375,-0.000640869140625
1772536358576062000,4.05606201171875,-1.0045623779296875,-0.0670928955078125,-0.0013275146484375
1772536358586110000,4.06610986328125,-0.99932861328125,-0.065185546875,-0.002838134765625
1772536358596158000,4.076157958984375,-0.9989776611328125,-0.0640869140625,-0.0023040771484375
1772536358606206000,4.0862060546875,-1.001800537109375,-0.0656890869140625,-0.002044677734375
1772536358616255000,4.0962548828125,-0.9995574951171875,-0.0665740966796875,-0.0036773681640625
1772536358626303000,4.106302978515625,-0.9993743896484375,-0.0657196044921875,-0.00360107421875
1772536358636351000,4.11635107421875,-0.99932861328125,-0.068023681640625,-0.0025787353515625
1772536358646399000,4.12639892578125,-0.998291015625,-0.0686492919921875,-0.0045928955078125
1772536358656448000,4.136447998046875,-0.997283935546875,-0.06622314453125,-0.00518798828125
1772536358666496000,4.14649609375,-1.0002593994140625,-0.0663604736328125,-0.0049896240234375
1772536358676544000,4.1565439453125,-1.00115966796875,-0.0660400390625,-0.004119873046875
1772536358686591700,4.166591796875,-1.0015869140625,-0.063751220703125,-0.002960205078125
1772536358696640000,4.176639892578125,-0.999603271484375,-0.0629425048828125,-0.003875732421875
1772536358706688800,4.186688720703125,-0.9982147216796875,-0.0632781982421875,-0.004119873046875
1772536358716737000,4.196737060546875,-0.997161865234375,-0.0632476806640625,-0.0029144287109375
1772536358726785000,4.206784912109375,-0.997802734375,-0.0668792724609375,-0.00140380859375
1772536358736832800,4.216832763671875,-0.9981536865234375,-0.0680694580078125,-0.0002288818359375
1772536358746882000,4.226882080078125,-0.998748779296875,-0.067535400390625,-0.0005035400390625
1772536358756929800,4.2369296875,-0.99822998046875,-0.0657958984375,-0.003021240234375
1772536358766978000,4.24697802734375,-0.9950714111328125,-0.0647125244140625,-0.00469970703125
1772536358777026000,4.257026123046875,-0.997711181640625,-0.063690185546875,-0.005126953125
1772536358787075000,4.267074951171875,-1.000274658203125,-0.0653076171875,-0.0047454833984375
1772536358797123000,4.277123046875,-0.9989166259765625,-0.0662078857421875,-0.00506591796875
1772536358807170800,4.2871708984375,-0.9987640380859375,-0.0656280517578125,-0.004791259765625
1772536358817219000,4.297218994140625,-1.000762939453125,-0.066070556640625,-0.003997802734375
1772536358827266800,4.307266845703125,-1.0019378662109375,-0.066986083984375,-0.0025177001953125
1772536358837316000,4.317316162109375,-1.00244140625,-0.0657501220703125,-0.0018310546875
1772536358847363800,4.32736376953125,-1.002777099609375,-0.0648193359375,-0.0025787353515625
1772536358857411800,4.337411865234375,-1.002655029296875,-0.064971923828125,-0.00201416015625
1772536358867460000,4.347460205078125,-1.00396728515625,-0.0636138916015625,-0.0020599365234375
1772536358877508900,4.3575087890625,-1.0025177001953125,-0.0626220703125,-0.0039520263671875
1772536358887557000,4.36755712890625,-1.001190185546875,-0.0618438720703125,-0.0052337646484375
1772536358897604900,4.37760498046875,-1.0008697509765625,-0.060699462890625,-0.0049285888671875
1772536358907652900,4.38765283203125,-1.0009002685546875,-0.0608978271484375,-0.0045623779296875
1772536358917702000,4.397701904296875,-0.999725341796875,-0.060272216796875,-0.00482177734375
1772536358927750000,4.40775,-1.0007476806640625,-0.0596160888671875,-0.005401611328125
1772536358937798100,4.417798095703125,-1.0010986328125,-0.060821533203125,-0.004913330078125
1772536358947846000,4.427845947265625,-1.0012054443359375,-0.0615997314453125,-0.0041656494140625
1772536358957894000,4.437893798828125,-1.0001373291015625,-0.061126708984375,-0.0050048828125
1772536358967943000,4.44794287109375,-0.999542236328125,-0.060943603515625,-0.0049591064453125
1772536358977991000,4.457990966796875,-0.99969482421875,-0.0623779296875,-0.002899169921875
1772536358988039000,4.468038818359375,-1.000030517578125,-0.06512451171875,-0.00225830078125
1772536358998087000,4.4780869140625,-1.0018463134765625,-0.064422607421875,-0.0020294189453125
1772536359008136000,4.488135986328125,-1.000946044921875,-0.0632171630859375,-0.003662109375
1772536359018184000,4.498183837890625,-0.997711181640625,-0.0626220703125,-0.00543212890625
1772536359028232000,4.50823193359375,-0.9998931884765625,-0.0634307861328125,-0.0051422119140625
1772536359038275600,4.518275634765625,-1.00469970703125,-0.065032958984375,-0.00311279296875
1772536359048324600,4.52832470703125,-1.0025177001953125,-0.0623779296875,-0.0048828125
1772536359058372600,4.53837255859375,-0.9997100830078125,-0.0601348876953125,-0.0065460205078125
1772536359068420600,4.548420654296875,-1.000640869140625,-0.061309814453125,-0.006744384765625
1772536359078468600,4.558468505859375,-1.003265380859375,-0.06353759765625,-0.0040283203125
1772536359088516400,4.568516357421875,-1.0026702880859375,-0.0626678466796875,-0.00323486328125
1772536359098565600,4.578565673828125,-1.00091552734375,-0.0608673095703125,-0.0049285888671875
1772536359108613400,4.58861328125,-0.999603271484375,-0.0629119873046875,-0.0054779052734375
1772536359118661600,4.59866162109375,-0.9984893798828125,-0.061553955078125,-0.0042572021484375
1772536359128709600,4.608709716796875,-0.9988250732421875,-0.0625762939453125,-0.0038909912109375
1772536359138758700,4.618758544921875,-0.99847412109375,-0.06396484375,-0.0039520263671875
1772536359148806700,4.628806640625,-1.0012664794921875,-0.06341552734375,-0.004150390625
1772536359158854400,4.6388544921875,-1.001434326171875,-0.063201904296875,-0.00323486328125
1772536359168902700,4.648902587890625,-1.0007476806640625,-0.061126708984375,-0.0054168701171875
1772536359178950700,4.65895068359375,-1.0012359619140625,-0.059234619140625,-0.0081939697265625
1772536359188999700,4.668999755859375,-0.9995574951171875,-0.060272216796875,-0.007415771484375
1772536359199047700,4.679047607421875,-0.999847412109375,-0.060821533203125,-0.00579833984375
1772536359209095400,4.689095458984375,-1.0010528564453125,-0.064056396484375,-0.0069732666015625
1772536359219143700,4.699143798828125,-0.9993133544921875,-0.065338134765625,-0.006683349609375
1772536359229192400,4.7091923828125,-1.0009765625,-0.0647735595703125,-0.0065765380859375
1772536359239240700,4.71924072265625,-1.00152587890625,-0.0623321533203125,-0.00653076171875
1772536359249288400,4.729288330078125,-0.9979248046875,-0.0611419677734375,-0.0082244873046875
1772536359259336400,4.73933642578125,-0.9968109130859375,-0.0607757568359375,-0.0061492919921875
1772536359269384700,4.749384765625,-1.002349853515625,-0.0635833740234375,-0.005462646484375
1772536359279433500,4.75943359375,-1.0028533935546875,-0.0665740966796875,-0.0060577392578125
1772536359289481700,4.769481689453125,-1.00030517578125,-0.0651092529296875,-0.0054931640625
1772536359299529500,4.779529541015625,-1.0005645751953125,-0.063568115234375,-0.00689697265625
1772536359309577500,4.789577392578125,-1.0003662109375,-0.061798095703125,-0.005706787109375
1772536359319626500,4.79962646484375,-1,-0.062652587890625,-0.0040435791015625
1772536359329674500,4.809674560546875,-1.0001678466796875,-0.06298828125,-0.004486083984375
1772536359339722800,4.81972265625,-1.0044403076171875,-0.0625152587890625,-0.002899169921875
1772536359349770500,4.8297705078125,-1.0027008056640625,-0.062255859375,-0.0056915283203125
1772536359359819800,4.83981982421875,-0.9953155517578125,-0.05987548828125,-0.0077667236328125
1772536359369867500,4.849867431640625,-0.9990386962890625,-0.0623931884765625,-0.00537109375
1772536359379915500,4.85991552734375,-1.00262451171875,-0.065704345703125,-0.0061798095703125
1772536359389963500,4.869963623046875,-1.0006866455078125,-0.066864013671875,-0.0057525634765625
1772536359400011500,4.880011474609375,-0.99774169921875,-0.0649566650390625,-0.006195068359375
1772536359410060500,4.890060546875,-1.000274658203125,-0.0635528564453125,-0.00543212890625
1772536359420108500,4.900108642578125,-1.0016632080078125,-0.0635986328125,-0.0063018798828125
1772536359430156500,4.910156494140625,-1.0006866455078125,-0.0629425048828125,-0.00860595703125
1772536359440204500,4.92020458984375,-0.99945068359375,-0.0633697509765625,-0.0074615478515625
1772536359450253600,4.930253662109375,-1.000823974609375,-0.06378173828125,-0.0073089599609375
1772536359460301600,4.940301513671875,-1.0008544921875,-0.0646514892578125,-0.007232666015625
1772536359470349600,4.950349609375,-0.99932861328125,-0.063262939453125,-0.007781982421875
1772536359480397800,4.960397705078125,-0.99755859375,-0.0643157958984375,-0.0077362060546875
1772536359490446600,4.970446533203125,-0.999664306640625,-0.066314697265625,-0.0061798095703125
1772536359500494600,4.98049462890625,-1.001495361328125,-0.0679473876953125,-0.0042266845703125
1772536359510542600,4.99054248046875,-1.00054931640625,-0.067535400390625,-0.00408935546875
1772536359520590600,5.000590576171875,-1.000823974609375,-0.0660552978515625,-0.0045623779296875
1772536359530638600,5.010638671875,-1.0052642822265625,-0.0673828125,-0.0047149658203125
1772536359540687600,5.0206875,-0.9974517822265625,-0.0635223388671875,-0.0093536376953125
1772536359550735400,5.0307353515625,-0.999359130859375,-0.06060791015625,-0.0072021484375
1772536359560783600,5.04078369140625,-0.9993133544921875,-0.06158447265625,-0.009307861328125
1772536359570831600,5.05083154296875,-0.9998779296875,-0.059112548828125,-0.008056640625
1772536359580880600,5.060880615234375,-1.003875732421875,-0.06060791015625,-0.0124359130859375
1772536359590928600,5.0709287109375,-1.002166748046875,-0.06134033203125,-0.0120697021484375
1772536359600976400,5.080976318359375,-1.002349853515625,-0.0607452392578125,-0.0104827880859375
1772536359611024600,5.091024658203125,-1.0029754638671875,-0.0628662109375,-0.0108184814453125
1772536359621072600,5.10107275390625,-0.9987335205078125,-0.06182861328125,-0.0102386474609375
1772536359631121700,5.11112158203125,-0.9978485107421875,-0.0626678466796875,-0.00799560546875
1772536359641169700,5.121169677734375,-1.0017242431640625,-0.064483642578125,-0.0042877197265625
1772536359651217700,5.1312177734375,-0.9974517822265625,-0.0666656494140625,-0.0112762451171875
1772536359661265700,5.141265625,-0.9907379150390625,-0.06439208984375,-0.0118865966796875
1772536359671314400,5.151314453125,-0.99530029296875,-0.06561279296875,-0.0099945068359375
1772536359681362700,5.16136279296875,-0.997100830078125,-0.067474365234375,-0.0115509033203125
1772536359691410400,5.171410400390625,-0.998291015625,-0.065338134765625,-0.0110015869140625
1772536359701458700,5.181458740234375,-1.000457763671875,-0.064178466796875,-0.0118255615234375
1772536359711507500,5.191507568359375,-0.9989776611328125,-0.0640106201171875,-0.0127105712890625
1772536359721555500,5.201555419921875,-0.9992218017578125,-0.0651702880859375,-0.010833740234375
1772536359731603700,5.211603759765625,-1.0005645751953125,-0.06561279296875,-0.0107879638671875
1772536359741651500,5.2216513671875,-0.9994659423828125,-0.0673675537109375,-0.009674072265625
1772536359751699700,5.23169970703125,-1.000701904296875,-0.0662078857421875,-0.00872802734375
1772536359761748500,5.24174853515625,-1.000946044921875,-0.06536865234375,-0.0095672607421875
1772536359771796500,5.25179638671875,-1.0008087158203125,-0.064788818359375,-0.0082244873046875
1772536359781844700,5.2618447265625,-1.001617431640625,-0.064056396484375,-0.007781982421875
1772536359791892500,5.271892578125,-1.0019683837890625,-0.064208984375,-0.007568359375
1772536359801941800,5.281941650390625,-1.0008392333984375,-0.0643310546875,-0.00738525390625
1772536359811989500,5.291989501953125,-1.001251220703125,-0.063507080078125,-0.0079193115234375
1772536359822037800,5.302037841796875,-1.002838134765625,-0.06451416015625,-0.0100555419921875
1772536359832085500,5.31208544921875,-1.0044097900390625,-0.0644989013671875,-0.00872802734375
1772536359842133500,5.322133544921875,-1.0054931640625,-0.06304931640625,-0.007843017578125
1772536359852182500,5.3321826171875,-1.0042266845703125,-0.0621337890625,-0.008087158203125
1772536359862230500,5.34223046875,-1.0029144287109375,-0.0601959228515625,-0.00872802734375
1772536359872278800,5.35227880859375,-1.0014801025390625,-0.0593109130859375,-0.007781982421875
1772536359882326500,5.362326416015625,-1.0030975341796875,-0.0596923828125,-0.0078277587890625
1772536359892375600,5.37237548828125,-1.0020599365234375,-0.0597686767578125,-0.00830078125
1772536359902423600,5.382423583984375,-0.9993438720703125,-0.0604705810546875,-0.0087890625
1772536359912471600,5.392471435546875,-1.0006256103515625,-0.062103271484375,-0.009918212890625
1772536359922519800,5.402519775390625,-0.9994354248046875,-0.064697265625,-0.011077880859375
1772536359932567600,5.412567626953125,-1.000579833984375,-0.067291259765625,-0.0109100341796875
1772536359942616600,5.422616455078125,-0.99859619140625,-0.0680694580078125,-0.0133056640625
1772536359952664600,5.43266455078125,-0.996734619140625,-0.0692291259765625,-0.015350341796875
1772536359962712600,5.442712646484375,-0.9978485107421875,-0.069061279296875,-0.0152130126953125
1772536359972760600,5.452760498046875,-1.00177001953125,-0.068359375,-0.0130462646484375
1772536359982809600,5.4628095703125,-1.001708984375,-0.0670318603515625,-0.013336181640625
1772536359992857600,5.472857666015625,-0.9985809326171875,-0.0635528564453125,-0.01251220703125
1772536360002905600,5.482905517578125,-0.99835205078125,-0.0625457763671875,-0.0140228271484375
1772536360012953600,5.49295361328125,-0.9995574951171875,-0.06304931640625,-0.0123291015625
1772536360023001600,5.503001708984375,-0.99810791015625,-0.063262939453125,-0.009796142578125
1772536360033050600,5.513050537109375,-0.997314453125,-0.0635986328125,-0.0087890625
1772536360043099000,5.523098876953125,-1.000030517578125,-0.0644073486328125,-0.0068511962890625
1772536360053147000,5.53314697265625,-1.0018463134765625,-0.0630645751953125,-0.007049560546875
1772536360063194600,5.543194580078125,-1.0020904541015625,-0.0630035400390625,-0.0087432861328125
1772536360073244000,5.553243896484375,-1.0016021728515625,-0.0625,-0.0106658935546875
1772536360083291600,5.563291748046875,-0.99932861328125,-0.063507080078125,-0.011474609375
1772536360093340000,5.57333984375,-1.0010986328125,-0.0660400390625,-0.01092529296875
1772536360103388000,5.583387939453125,-1.001800537109375,-0.0679168701171875,-0.0102081298828125
1772536360113437000,5.59343701171875,-0.9995880126953125,-0.0674285888671875,-0.0103607177734375
1772536360123485000,5.60348486328125,-1.0023040771484375,-0.06695556640625,-0.0095367431640625
1772536360133532700,5.61353271484375,-1.0026397705078125,-0.0662841796875,-0.009246826171875
1772536360143581000,5.623580810546875,-1.0019073486328125,-0.065399169921875,-0.009490966796875
1772536360153629000,5.63362890625,-1.0009765625,-0.064788818359375,-0.0095062255859375
1772536360163678000,5.643677978515625,-1.00213623046875,-0.06549072265625,-0.010589599609375
1772536360173726000,5.653725830078125,-1.000885009765625,-0.06427001953125,-0.011810302734375
1772536360183773700,5.663773681640625,-1.0016021728515625,-0.062835693359375,-0.0125732421875
1772536360193822000,5.673822021484375,-1.004638671875,-0.0612945556640625,-0.0135650634765625
1772536360203870700,5.68387060546875,-1.0032958984375,-0.061004638671875,-0.01287841796875
1772536360213919000,5.6939189453125,-1.001739501953125,-0.05938720703125,-0.013275146484375
1772536360223966700,5.703966796875,-1.00299072265625,-0.057586669921875,-0.013336181640625
1772536360234014700,5.7140146484375,-1.004150390625,-0.0596466064453125,-0.0133209228515625
1772536360244063000,5.72406298828125,-0.9988861083984375,-0.0610809326171875,-0.0132904052734375
1772536360254111700,5.73411181640625,-0.99822998046875,-0.0599212646484375,-0.0136260986328125
1772536360264160000,5.744159912109375,-0.9973602294921875,-0.0615386962890625,-0.014007568359375
1772536360274207700,5.754207763671875,-0.9956207275390625,-0.065704345703125,-0.0123138427734375
1772536360284255700,5.764255859375,-0.9978485107421875,-0.06787109375,-0.0108795166015625
1772536360294304800,5.7743046875,-0.998626708984375,-0.06976318359375,-0.0108489990234375
1772536360304352800,5.784352783203125,-0.99798583984375,-0.0699310302734375,-0.010833740234375
1772536360314401000,5.794401123046875,-0.9971160888671875,-0.06927490234375,-0.0120849609375
1772536360324448800,5.80444873046875,-0.9984283447265625,-0.068756103515625,-0.0117034912109375
1772536360334496800,5.814496826171875,-1.0007781982421875,-0.067962646484375,-0.012420654296875
1772536360344545800,5.8245458984375,-1.0005340576171875,-0.0660552978515625,-0.0123138427734375
1772536360354593800,5.83459375,-1.00115966796875,-0.066314697265625,-0.0127716064453125
1772536360364641800,5.844641845703125,-0.999420166015625,-0.0681304931640625,-0.0113983154296875
1772536360374689800,5.854689697265625,-0.998748779296875,-0.0680389404296875,-0.01165771484375
1772536360384738800,5.86473876953125,-1.0000762939453125,-0.0689544677734375,-0.0112762451171875
1772536360394786800,5.874786865234375,-1.0001373291015625,-0.0698089599609375,-0.0110626220703125
1772536360404834800,5.884834716796875,-1.0018310546875,-0.0695953369140625,-0.011260986328125
1772536360414882800,5.8948828125,-1.000091552734375,-0.067779541015625,-0.011199951171875
1772536360424931800,5.904931884765625,-1.0001983642578125,-0.0649566650390625,-0.010986328125
1772536360434979800,5.914979736328125,-0.999603271484375,-0.063507080078125,-0.0117645263671875
1772536360445027800,5.92502783203125,-1.0008697509765625,-0.0640716552734375,-0.0126800537109375
1772536360455075800,5.935075927734375,-1.002105712890625,-0.065826416015625,-0.0124664306640625
1772536360465124900,5.945124755859375,-1.0027923583984375,-0.066741943359375,-0.01153564453125
1772536360475172900,5.9551728515625,-1.0020599365234375,-0.0655517578125,-0.0126190185546875
1772536360485220900,5.965220947265625,-1.0024566650390625,-0.0639801025390625,-0.0126953125
1772536360495268900,5.975268798828125,-1.00079345703125,-0.062591552734375,-0.01220703125
1772536360505316600,5.985316650390625,-1.0006103515625,-0.0619964599609375,-0.013275146484375
1772536360515366000,5.995365966796875,-1.0000152587890625,-0.0637664794921875,-0.0127410888671875
1772536360525413600,6.00541357421875,-1.0028076171875,-0.065673828125,-0.0128173828125
1772536360535462000,6.0154619140625,-0.994659423828125,-0.067840576171875,-0.013946533203125
1772536360545510000,6.025510009765625,-0.998931884765625,-0.0707550048828125,-0.0127410888671875
1772536360555559000,6.035558837890625,-1.0000457763671875,-0.0714111328125,-0.0142822265625
1772536360565607000,6.04560693359375,-0.9949798583984375,-0.0705108642578125,-0.0153045654296875
1772536360575654700,6.055654541015625,-0.9981689453125,-0.0697174072265625,-0.0170135498046875
1772536360585703000,6.065702880859375,-0.9969635009765625,-0.0703887939453125,-0.0150604248046875
1772536360595751000,6.0757509765625,-0.99749755859375,-0.0710296630859375,-0.0162353515625
1772536360605800000,6.085800048828125,-1.00030517578125,-0.0703887939453125,-0.013885498046875
1772536360615848000,6.095847900390625,-0.9986724853515625,-0.0716400146484375,-0.01568603515625
1772536360625895700,6.105895751953125,-0.997222900390625,-0.0678558349609375,-0.0141448974609375
1772536360635944000,6.11594384765625,-1.0017242431640625,-0.0657501220703125,-0.013916015625
1772536360645992700,6.12599267578125,-0.999114990234375,-0.0645751953125,-0.01202392578125
1772536360656041000,6.136041015625,-0.99951171875,-0.0629730224609375,-0.012908935546875
1772536360666088700,6.146088623046875,-0.99835205078125,-0.0631561279296875,-0.0123138427734375
1772536360676136700,6.15613671875,-0.9952392578125,-0.0641021728515625,-0.010650634765625
1772536360686185700,6.166185791015625,-0.9970245361328125,-0.0659637451171875,-0.009307861328125
1772536360696233700,6.176233642578125,-1.0027923583984375,-0.068145751953125,-0.0096282958984375
1772536360706282000,6.186281982421875,-1.0027923583984375,-0.0668182373046875,-0.010833740234375
1772536360716329700,6.196329833984375,-1.0002899169921875,-0.0643768310546875,-0.01385498046875
1772536360726377700,6.206377685546875,-0.99993896484375,-0.063812255859375,-0.0162506103515625
1772536360736426800,6.2164267578125,-1.0012359619140625,-0.066253662109375,-0.0147705078125
1772536360746474800,6.226474853515625,-1.0047760009765625,-0.0676727294921875,-0.0149383544921875
1772536360756523000,6.23652294921875,-0.999847412109375,-0.069183349609375,-0.0142822265625
1772536360766570800,6.24657080078125,-0.996551513671875,-0.070281982421875,-0.013824462890625
1772536360776620000,6.2566201171875,-1.00140380859375,-0.0724945068359375,-0.012939453125
1772536360786667800,6.266667724609375,-1.005218505859375,-0.073150634765625,-0.01190185546875
1772536360796715800,6.2767158203125,-1.0020904541015625,-0.0708465576171875,-0.0118560791015625
1772536360806763800,6.286763671875,-0.9977264404296875,-0.0680694580078125,-0.01336669921875
1772536360816811800,6.296811767578125,-0.99945068359375,-0.068939208984375,-0.0125885009765625
1772536360826860800,6.30686083984375,-0.999908447265625,-0.0703277587890625,-0.0135498046875
1772536360836908800,6.31690869140625,-0.997314453125,-0.0694580078125,-0.0125732421875
1772536360846956800,6.326956787109375,-1.0021820068359375,-0.0697784423828125,-0.011138916015625
1772536360857004800,6.3370048828125,-1.0021820068359375,-0.0695343017578125,-0.0137176513671875
1772536360867053800,6.3470537109375,-0.9973297119140625,-0.0654144287109375,-0.0123443603515625
1772536360877101800,6.357101806640625,-1.0019989013671875,-0.0639801025390625,-0.0120391845703125
1772536360887149800,6.36714990234375,-1.00531005859375,-0.0661163330078125,-0.01202392578125
1772536360897197800,6.37719775390625,-1.0046234130859375,-0.066375732421875,-0.0121612548828125
1772536360907245800,6.387245849609375,-1.000701904296875,-0.06451416015625,-0.0125732421875
1772536360917294800,6.397294921875,-0.9983062744140625,-0.06536865234375,-0.0151214599609375
1772536360927342800,6.4073427734375,-0.996429443359375,-0.0672149658203125,-0.0154266357421875
1772536360937390800,6.417390869140625,-0.99761962890625,-0.0708465576171875,-0.0128326416015625
1772536360947438600,6.4274384765625,-0.999725341796875,-0.073699951171875,-0.0115814208984375
1772536360957487900,6.43748779296875,-1.0004425048828125,-0.073944091796875,-0.0148162841796875
1772536360967535600,6.44753564453125,-0.9960479736328125,-0.0718536376953125,-0.015838623046875
1772536360977583900,6.457583984375,-0.997100830078125,-0.0716400146484375,-0.015533447265625
1772536360987631900,6.4676318359375,-1.000274658203125,-0.0725250244140625,-0.0159759521484375
1772536360997681000,6.477680908203125,-0.9996185302734375,-0.0721893310546875,-0.015228271484375
1772536361007729000,6.48772900390625,-0.997100830078125,-0.070831298828125,-0.01611328125
1772536361017776600,6.497776611328125,-0.9977874755859375,-0.0712127685546875,-0.014556884765625
1772536361027825000,6.507824951171875,-1.0015411376953125,-0.0713348388671875,-0.0136871337890625
1772536361037873400,6.517873291015625,-0.9995574951171875,-0.069000244140625,-0.013916015625
1772536361047922400,6.52792236328125,-1.0007781982421875,-0.067108154296875,-0.0118865966796875
1772536361057970400,6.537970458984375,-1.0013580322265625,-0.068145751953125,-0.0128936767578125
1772536361068018400,6.548018310546875,-1.001495361328125,-0.06781005859375,-0.010711669921875
1772536361078066400,6.55806640625,-1.000335693359375,-0.0677947998046875,-0.0118560791015625
1772536361088115500,6.568115478515625,-1.000091552734375,-0.0682525634765625,-0.0117034912109375
1772536361098163500,6.57816357421875,-1.001220703125,-0.0697784423828125,-0.0120391845703125
1772536361108211500,6.58821142578125,-1.0015869140625,-0.069580078125,-0.012451171875
1772536361118259500,6.598259521484375,-1.0014801025390625,-0.0689697265625,-0.0133819580078125
1772536361128307500,6.608307373046875,-1.0024261474609375,-0.069091796875,-0.0125579833984375
1772536361138356500,6.6183564453125,-1.0007171630859375,-0.068603515625,-0.0140838623046875
1772536361148404500,6.628404541015625,-1.001190185546875,-0.0679473876953125,-0.013946533203125
1772536361158452500,6.638452392578125,-1.0032806396484375,-0.0693206787109375,-0.0132598876953125
1772536361168500500,6.64850048828125,-1.000274658203125,-0.0712890625,-0.0136871337890625
1772536361178549500,6.658549560546875,-0.9964752197265625,-0.0709991455078125,-0.0139617919921875
1772536361188597500,6.668597412109375,-0.998687744140625,-0.0725860595703125,-0.012908935546875
1772536361198645200,6.678645263671875,-1.0032196044921875,-0.0733184814453125,-0.01263427734375
1772536361208693500,6.688693603515625,-0.997650146484375,-0.069915771484375,-0.0147247314453125
1772536361218741500,6.698741455078125,-0.993804931640625,-0.069244384765625,-0.0149688720703125
1772536361228790500,6.70879052734375,-0.9985198974609375,-0.073150634765625,-0.0141754150390625
1772536361238838500,6.718838623046875,-1.00048828125,-0.0739593505859375,-0.011260986328125
1772536361248886300,6.72888623046875,-0.9977569580078125,-0.074249267578125,-0.0105438232421875
1772536361258934500,6.7389345703125,-0.9989776611328125,-0.07440185546875,-0.0117950439453125
1772536361268983300,6.7489833984375,-1.0012359619140625,-0.0734710693359375,-0.011566162109375
1772536361279031600,6.759031494140625,-0.9988555908203125,-0.072357177734375,-0.0116424560546875
1772536361289079600,6.76907958984375,-0.996856689453125,-0.07147216796875,-0.012725830078125
1772536361299127300,6.779127197265625,-0.99835205078125,-0.070159912109375,-0.0134429931640625
1772536361309175600,6.789175537109375,-1.0003204345703125,-0.0716705322265625,-0.0139312744140625
1772536361319224300,6.799224365234375,-1.0003662109375,-0.072113037109375,-0.012451171875
1772536361329272600,6.8092724609375,-1.0008697509765625,-0.07098388671875,-0.0107879638671875
1772536361339320300,6.8193203125,-1.00311279296875,-0.070098876953125,-0.0128173828125
1772536361349368600,6.82936865234375,-1.0015411376953125,-0.067626953125,-0.0137786865234375
1772536361359417300,6.839417236328125,-0.9985198974609375,-0.0670166015625,-0.0142669677734375
1772536361369465300,6.84946533203125,-0.9979248046875,-0.068878173828125,-0.01483154296875
1772536361379513600,6.859513671875,-0.9991302490234375,-0.0720977783203125,-0.0130157470703125
1772536361389561300,6.869561279296875,-0.9988861083984375,-0.072418212890625,-0.0112762451171875
1772536361399610600,6.879610595703125,-0.998016357421875,-0.0731353759765625,-0.0106353759765625
1772536361409658400,6.889658447265625,-0.9974822998046875,-0.0743865966796875,-0.010284423828125
1772536361419706400,6.899706298828125,-0.9996337890625,-0.074462890625,-0.011474609375
1772536361429754400,6.90975439453125,-0.9998931884765625,-0.0750579833984375,-0.01068115234375
1772536361439802400,6.91980224609375,-0.9996795654296875,-0.0755462646484375,-0.0121307373046875
1772536361449851400,6.929851318359375,-1.000274658203125,-0.076446533203125,-0.0136566162109375
1772536361459899400,6.9398994140625,-1.0022430419921875,-0.074676513671875,-0.0130767822265625
1772536361469947400,6.949947509765625,-1.0033721923828125,-0.0731048583984375,-0.01416015625
1772536361479995400,6.959995361328125,-1.0027313232421875,-0.07159423828125,-0.0142974853515625
1772536361490044400,6.97004443359375,-1.0027313232421875,-0.0716400146484375,-0.0120086669921875
1772536361500092400,6.980092529296875,-1.0027313232421875,-0.0701446533203125,-0.0117034912109375
1772536361510140400,6.990140380859375,-1.0015716552734375,-0.0693359375,-0.01068115234375
1772536361520188700,7.000188720703125,-1.0009918212890625,-0.069549560546875,-0.00982666015625
1772536361530236400,7.010236328125,-1.0013275146484375,-0.0693817138671875,-0.0101470947265625
1772536361540285400,7.020285400390625,-0.99652099609375,-0.0687713623046875,-0.0115814208984375
1772536361550333400,7.03033349609375,-0.9940643310546875,-0.070404052734375,-0.0107269287109375
1772536361560381400,7.04038134765625,-0.9971160888671875,-0.0725555419921875,-0.0101470947265625
1772536361570429400,7.050429443359375,-0.996551513671875,-0.0748291015625,-0.01068115234375
1772536361580478500,7.060478515625,-0.9962921142578125,-0.073822021484375,-0.010833740234375
1772536361590526500,7.0705263671875,-0.9987945556640625,-0.0738525390625,-0.01336669921875
1772536361600574500,7.080574462890625,-0.9973602294921875,-0.075225830078125,-0.0143585205078125
1772536361610622500,7.09062255859375,-0.999542236328125,-0.076141357421875,-0.015167236328125
1772536361620670500,7.10067041015625,-1.0008392333984375,-0.0762481689453125,-0.0155181884765625
1772536361630719500,7.110719482421875,-0.99884033203125,-0.075836181640625,-0.0157470703125
1772536361640767500,7.120767578125,-1.0016326904296875,-0.07427978515625,-0.0156402587890625
1772536361650815500,7.1308154296875,-1.0020294189453125,-0.0745849609375,-0.0154266357421875
1772536361660863500,7.140863525390625,-0.99755859375,-0.0737762451171875,-0.014373779296875
1772536361670912500,7.15091259765625,-0.999420166015625,-0.07293701171875,-0.01226806640625
1772536361680960500,7.16096044921875,-1.000701904296875,-0.0749359130859375,-0.0115966796875
1772536361691008500,7.171008544921875,-0.9970550537109375,-0.074859619140625,-0.0118560791015625
1772536361701056500,7.181056396484375,-0.9951019287109375,-0.0735321044921875,-0.01153564453125
1772536361711104500,7.1911044921875,-1.00042724609375,-0.073760986328125,-0.0103912353515625
1772536361721153500,7.201153564453125,-1.00408935546875,-0.0742340087890625,-0.0089263916015625
1772536361731201500,7.211201416015625,-1.0001068115234375,-0.070465087890625,-0.01263427734375
1772536361741249500,7.22124951171875,-1.001007080078125,-0.0671539306640625,-0.0123748779296875
1772536361751297500,7.231297607421875,-1.0059051513671875,-0.0686187744140625,-0.01190185546875
1772536361761346300,7.24134619140625,-1.006011962890625,-0.069915771484375,-0.0121002197265625
1772536361771394600,7.25139453125,-1.0045318603515625,-0.0706634521484375,-0.011688232421875
1772536361781442300,7.2614423828125,-1.006805419921875,-0.07098388671875,-0.011322021484375
1772536361791490600,7.271490478515625,-1.00482177734375,-0.071929931640625,-0.0129547119140625
1772536361801538600,7.28153857421875,-1.000396728515625,-0.0718994140625,-0.0127410888671875
1772536361811587600,7.291587646484375,-1.0012664794921875,-0.0739898681640625,-0.0134735107421875
1772536361821635600,7.301635498046875,-1.0007171630859375,-0.07470703125,-0.0139923095703125
1772536361831683300,7.311683349609375,-0.9969329833984375,-0.075714111328125,-0.014862060546875
1772536361841731600,7.321731689453125,-0.9971466064453125,-0.0781097412109375,-0.01580810546875
1772536361851780400,7.3317802734375,-0.9996490478515625,-0.078704833984375,-0.0163726806640625
1772536361861828600,7.34182861328125,-0.9946136474609375,-0.0778045654296875,-0.0152587890625
1772536361871876400,7.35187646484375,-0.9936370849609375,-0.077911376953125,-0.0144805908203125
1772536361881924400,7.36192431640625,-0.9996337890625,-0.0769195556640625,-0.0138397216796875
1772536361891973400,7.371973388671875,-0.9964141845703125,-0.07550048828125,-0.0152740478515625
1772536361902021400,7.382021484375,-0.9956512451171875,-0.0736541748046875,-0.01397705078125
1772536361912069600,7.392069580078125,-0.99798583984375,-0.07440185546875,-0.0150604248046875
1772536361922117400,7.402117431640625,-0.9967803955078125,-0.07489013671875,-0.014495849609375
1772536361932165400,7.412165283203125,-0.996063232421875,-0.075439453125,-0.012115478515625
1772536361942214400,7.42221435546875,-0.9994659423828125,-0.0778961181640625,-0.01068115234375
1772536361952262400,7.432262451171875,-0.9996795654296875,-0.0782470703125,-0.0117034912109375
1772536361962310700,7.442310546875,-0.997650146484375,-0.0754547119140625,-0.0107421875
1772536361972358400,7.4523583984375,-1.0005035400390625,-0.0745391845703125,-0.012420654296875
1772536361982407700,7.46240771484375,-1.0016021728515625,-0.074554443359375,-0.0137176513671875
1772536361992455400,7.472455322265625,-0.9976043701171875,-0.0737457275390625,-0.0133056640625
1772536362002503400,7.48250341796875,-0.998260498046875,-0.07391357421875,-0.010955810546875
1772536362012551400,7.492551513671875,-0.9988861083984375,-0.0765533447265625,-0.0112152099609375
1772536362022599400,7.502599365234375,-0.9966278076171875,-0.076873779296875,-0.0113372802734375
1772536362032648400,7.5126484375,-0.9982147216796875,-0.0770263671875,-0.0092926025390625
1772536362042696200,7.5226962890625,-1.0030059814453125,-0.07916259765625,-0.010223388671875
1772536362052744200,7.532744140625,-1.001617431640625,-0.08013916015625,-0.0100250244140625
1772536362062792200,7.542792236328125,-0.9994354248046875,-0.0792236328125,-0.010284423828125
1772536362072841200,7.55284130859375,-1.0017852783203125,-0.0789642333984375,-0.0114593505859375
1772536362082889200,7.56288916015625,-1.0010833740234375,-0.0792236328125,-0.01275634765625
1772536362092937200,7.572937255859375,-0.99969482421875,-0.0774688720703125,-0.0108795166015625
1772536362102985200,7.582985107421875,-1.0052032470703125,-0.0777740478515625,-0.007354736328125
1772536362113033200,7.593033203125,-0.9964752197265625,-0.0811767578125,-0.0135345458984375
1772536362123082200,7.603082275390625,-0.994781494140625,-0.0742645263671875,-0.01025390625
1772536362133130200,7.613130126953125,-1.0001678466796875,-0.07421875,-0.00946044921875
1772536362143178200,7.62317822265625,-1.00091552734375,-0.076873779296875,-0.0094757080078125
1772536362153226200,7.633226318359375,-0.9986114501953125,-0.07562255859375,-0.01190185546875
1772536362163275300,7.643275146484375,-0.9969635009765625,-0.0740814208984375,-0.0120391845703125
1772536362173323300,7.6533232421875,-0.9971771240234375,-0.0752410888671875,-0.011688232421875
1772536362183371300,7.663371337890625,-0.9973297119140625,-0.076507568359375,-0.0106201171875
1772536362193419300,7.673419189453125,-0.997833251953125,-0.0783538818359375,-0.0106201171875
1772536362203467000,7.683467041015625,-0.99798583984375,-0.0784759521484375,-0.0112152099609375
1772536362213516300,7.693516357421875,-0.9979400634765625,-0.0793609619140625,-0.012237548828125
1772536362223564000,7.70356396484375,-0.9972686767578125,-0.0790252685546875,-0.0146331787109375
1772536362233612300,7.7136123046875,-1.00079345703125,-0.0791168212890625,-0.01507568359375
1772536362243660300,7.723660400390625,-0.9993438720703125,-0.0782470703125,-0.016754150390625
1772536362253709300,7.733709228515625,-0.9985504150390625,-0.07745361328125,-0.016265869140625
1772536362263757300,7.74375732421875,-0.9997406005859375,-0.078643798828125,-0.0163421630859375
1772536362273805000,7.75380517578125,-0.998748779296875,-0.081085205078125,-0.016448974609375
1772536362283853300,7.763853271484375,-0.998504638671875,-0.081207275390625,-0.0147247314453125
1772536362293901300,7.7739013671875,-0.999969482421875,-0.0815277099609375,-0.012481689453125
1772536362303950300,7.783950439453125,-1.000762939453125,-0.079864501953125,-0.01171875
1772536362313998300,7.793998291015625,-1.000152587890625,-0.078643798828125,-0.0109405517578125
1772536362324046000,7.804046142578125,-0.9980621337890625,-0.0770721435546875,-0.0115509033203125
1772536362334094300,7.81409423828125,-0.9974212646484375,-0.075164794921875,-0.010223388671875
1772536362344143000,7.82414306640625,-0.999481201171875,-0.07745361328125,-0.0088958740234375
1772536362354191400,7.83419140625,-0.999847412109375,-0.0793914794921875,-0.0074005126953125
1772536362364239000,7.844239013671875,-0.999603271484375,-0.0776519775390625,-0.00726318359375
1772536362374287000,7.854287109375,-0.996551513671875,-0.076171875,-0.00823974609375
1772536362384335400,7.86433544921875,-1.00079345703125,-0.074554443359375,-0.006439208984375
1772536362394384100,7.874384033203125,-0.99615478515625,-0.0762939453125,-0.009674072265625
1772536362404432400,7.884432373046875,-1.0002899169921875,-0.0776214599609375,-0.009613037109375
1772536362414480100,7.894480224609375,-0.999481201171875,-0.0786590576171875,-0.0099029541015625
1772536362424528100,7.904528076171875,-0.9986114501953125,-0.0805511474609375,-0.00933837890625
1772536362434577200,7.9145771484375,-1.00128173828125,-0.0819549560546875,-0.0115509033203125
1772536362444625200,7.924625244140625,-0.9979705810546875,-0.080902099609375,-0.0119476318359375
1772536362454673400,7.93467333984375,-0.998138427734375,-0.08001708984375,-0.012664794921875
1772536362464721200,7.94472119140625,-0.9983978271484375,-0.08209228515625,-0.0121002197265625
1772536362474769200,7.95476904296875,-0.99749755859375,-0.0831146240234375,-0.0123748779296875
1772536362484818200,7.964818115234375,-0.99517822265625,-0.0825958251953125,-0.011932373046875
1772536362494866200,7.9748662109375,-0.9945068359375,-0.0830230712890625,-0.0118408203125
1772536362504914200,7.9849140625,-0.9950103759765625,-0.084503173828125,-0.00958251953125
1772536362514962200,7.994962158203125,-0.9977874755859375,-0.0834197998046875,-0.0076141357421875
1772536362525011200,8.00501123046875,-0.99566650390625,-0.0815887451171875,-0.0088348388671875
1772536362535059200,8.01505908203125,-0.9921722412109375,-0.080230712890625,-0.010040283203125
1772536362545107200,8.025107177734375,-0.99432373046875,-0.0814056396484375,-0.0108489990234375
1772536362555155200,8.0351552734375,-0.995361328125,-0.0832366943359375,-0.0111541748046875
1772536362565203200,8.045203125,-0.997467041015625,-0.0839385986328125,-0.010498046875
1772536362575252200,8.055252197265625,-0.9957122802734375,-0.0845794677734375,-0.0101165771484375
1772536362585300200,8.06530029296875,-1.0009307861328125,-0.08319091796875,-0.011016845703125
1772536362595348200,8.07534814453125,-1.0019683837890625,-0.082305908203125,-0.01220703125
1772536362605396200,8.085396240234376,-1.001129150390625,-0.079254150390625,-0.013275146484375
1772536362615445200,8.0954453125,-1.0002593994140625,-0.07733154296875,-0.01348876953125
1772536362625493200,8.1054931640625,-0.999664306640625,-0.0772552490234375,-0.0103912353515625
1772536362635541200,8.115541259765624,-0.99884033203125,-0.0786285400390625,-0.011077880859375
1772536362645589000,8.125589111328125,-0.997406005859375,-0.0830535888671875,-0.0118255615234375
1772536362655638300,8.13563818359375,-1.001434326171875,-0.0797882080078125,-0.00738525390625
1772536362665686000,8.14568603515625,-0.9990081787109375,-0.07867431640625,-0.0088958740234375
1772536362675734300,8.155734375,-0.998748779296875,-0.0830230712890625,-0.0091552734375
1772536362685782300,8.1657822265625,-1.0010223388671875,-0.083221435546875,-0.0086669921875
1772536362695830000,8.175830078125,-0.9984893798828125,-0.0833282470703125,-0.008636474609375
1772536362705879300,8.18587939453125,-1.0000152587890625,-0.083099365234375,-0.009674072265625
1772536362715927000,8.195927001953125,-0.999908447265625,-0.0828094482421875,-0.0120849609375
1772536362725975300,8.205975341796876,-0.99993896484375,-0.0844879150390625,-0.0136566162109375
1772536362736023300,8.216023193359375,-1.0013580322265625,-0.0829010009765625,-0.013763427734375
1772536362746072300,8.226072265625,-1.0029754638671875,-0.081451416015625,-0.013092041015625
1772536362756120300,8.236120361328124,-1.003143310546875,-0.0792999267578125,-0.0133209228515625
1772536362766168000,8.24616796875,-1.0009002685546875,-0.0782012939453125,-0.0126800537109375
1772536362776216300,8.25621630859375,-1.0012054443359375,-0.0775909423828125,-0.0137176513671875
1772536362786264000,8.26626416015625,-0.99884033203125,-0.076568603515625,-0.0135040283203125
1772536362796313300,8.276313232421876,-0.9996490478515625,-0.0778961181640625,-0.009063720703125
1772536362806361000,8.286361083984374,-0.9929962158203125,-0.0807952880859375,-0.0150146484375
1772536362816409000,8.2964091796875,-0.9924163818359375,-0.0782470703125,-0.0130767822265625
1772536362826457300,8.306457275390626,-0.99627685546875,-0.0787353515625,-0.0124053955078125
1772536362836506000,8.316506103515625,-0.9991302490234375,-0.080596923828125,-0.014923095703125
1772536362846554400,8.326554443359376,-0.9975433349609375,-0.0802001953125,-0.016265869140625
1772536362856602000,8.33660205078125,-0.997467041015625,-0.080352783203125,-0.015472412109375
1772536362866650000,8.346650146484375,-0.9986114501953125,-0.0828094482421875,-0.0171356201171875
1772536362876698400,8.356698486328124,-0.9976806640625,-0.0848236083984375,-0.0187530517578125
1772536362886747100,8.3667470703125,-0.998382568359375,-0.0848846435546875,-0.01580810546875
1772536362896795400,8.37679541015625,-0.9988555908203125,-0.0854949951171875,-0.0158233642578125
1772536362906843100,8.386843017578125,-0.99835205078125,-0.08453369140625,-0.017822265625
1772536362916891100,8.39689111328125,-0.996246337890625,-0.0828857421875,-0.0174560546875
1772536362926940200,8.406940185546874,-1.0007781982421875,-0.083038330078125,-0.014068603515625
1772536362936988200,8.41698828125,-1.0008087158203125,-0.083831787109375,-0.0135040283203125
1772536362947036200,8.4270361328125,-0.994232177734375,-0.0822296142578125,-0.014434814453125
1772536362957084200,8.437084228515625,-1.0006256103515625,-0.080474853515625,-0.010711669921875
1772536362967132200,8.447132080078125,-0.9991912841796875,-0.08026123046875,-0.011383056640625
1772536362977181200,8.45718115234375,-1.003173828125,-0.0792083740234375,-0.0116424560546875
1772536362987229200,8.467229248046875,-1.00537109375,-0.0788421630859375,-0.0124664306640625
1772536362997277200,8.477277099609376,-1.0021820068359375,-0.0751495361328125,-0.0129241943359375
1772536363007325200,8.4873251953125,-1.0000762939453125,-0.0760955810546875,-0.0137786865234375
1772536363017374200,8.497374267578126,-1.0036468505859375,-0.078826904296875,-0.0130462646484375
1772536363027422200,8.507422119140625,-1.00537109375,-0.0817108154296875,-0.0112762451171875
1772536363037470700,8.517470703125,-1.0036773681640625,-0.0830535888671875,-0.01239013671875
1772536363047518700,8.527518798828124,-1.0013885498046875,-0.083526611328125,-0.0143890380859375
1772536363057566700,8.537566650390625,-0.997894287109375,-0.0821685791015625,-0.0140228271484375
1772536363067615700,8.54761572265625,-0.99786376953125,-0.0829925537109375,-0.0139617919921875
1772536363077663700,8.557663818359375,-0.996795654296875,-0.08526611328125,-0.015899658203125
1772536363087711700,8.567711669921875,-0.9944915771484375,-0.08367919921875,-0.012603759765625
1772536363097759700,8.577759765625,-0.9933929443359375,-0.08404541015625,-0.0127716064453125
1772536363107808500,8.58780859375,-0.990325927734375,-0.0850372314453125,-0.01434326171875
1772536363117856800,8.597856689453126,-0.9874420166015625,-0.08428955078125,-0.0147705078125
1772536363127904800,8.60790478515625,-0.9894866943359375,-0.0844879150390625,-0.0151824951171875
1772536363137952800,8.617952880859375,-0.991058349609375,-0.0861358642578125,-0.01312255859375
1772536363148000800,8.628000732421874,-0.991546630859375,-0.0856781005859375,-0.00970458984375
1772536363158049800,8.6380498046875,-0.9904022216796875,-0.078521728515625,-0.0130157470703125
1772536363168097800,8.648097900390624,-1.004302978515625,-0.079345703125,-0.01531982421875
1772536363178145500,8.6581455078125,-0.9993133544921875,-0.0838470458984375,-0.0153350830078125
1772536363188193800,8.66819384765625,-1.0035552978515625,-0.0811614990234375,-0.0144195556640625
1772536363198242600,8.67824267578125,-0.9954376220703125,-0.08221435546875,-0.0199737548828125
1772536363208290800,8.688290771484375,-1.001251220703125,-0.0852203369140625,-0.0129852294921875
1772536363218338800,8.6983388671875,-1.0092315673828125,-0.087127685546875,-0.011627197265625
1772536363228386600,8.708386474609375,-1.0089263916015625,-0.0844573974609375,-0.009979248046875
1772536363238434800,8.718434814453126,-1.003997802734375,-0.0793609619140625,-0.01080322265625
1772536363248483600,8.728483642578125,-1.00390625,-0.076995849609375,-0.011627197265625
1772536363258531800,8.73853173828125,-1.0025787353515625,-0.077545166015625,-0.0095672607421875
1772536363268579800,8.748579833984374,-1.0033416748046875,-0.07830810546875,-0.00921630859375
1772536363278627600,8.758627685546875,-0.99835205078125,-0.078765869140625,-0.0092926025390625
1772536363288676900,8.7686767578125,-0.997222900390625,-0.0775299072265625,-0.011138916015625
1772536363298724600,8.778724609375,-0.996826171875,-0.080841064453125,-0.009185791015625
