time,seconds_elapsed,z,y,x
1772536354595702500,0.07570263671875,-0.09689800441265106,-0.05647868290543556,0.13560627400875092
1772536354605750500,0.08575048828125,-0.09667164087295532,0.001987823285162449,0.138626828789711
1772536354615798500,0.095798583984375,-0.0919620543718338,0.0506097637116909,0.13485710322856903
1772536354625846300,0.10584619140625,-0.09169387072324753,0.06005839258432388,0.11576836556196213
1772536354635895600,0.1158955078125,-0.08677200973033905,0.05376024916768074,0.09518305957317352
1772536354645943300,0.125943359375,-0.07544665038585663,0.026699870824813843,0.07211235910654068
1772536354655991600,0.135991455078125,-0.060588207095861435,0.0004666880704462528,0.04319541156291962
1772536354666039600,0.14603955078125,-0.03951088711619377,-0.007078580092638731,0.011658523231744766
1772536354676088600,0.156088623046875,-0.02454007789492607,0.005006398539990187,-0.008495802991092205
1772536354686136600,0.166136474609375,-0.01730453222990036,0.021506013348698616,-0.02473655715584755
1772536354696184300,0.176184326171875,-0.018842026591300964,0.02728130668401718,-0.04193007946014404
1772536354706232600,0.186232666015625,-0.021144594997167587,0.030437152832746506,-0.05695616453886032
1772536354716281300,0.19628125,-0.017754744738340378,0.057471372187137604,-0.060162048786878586
1772536354726329600,0.20632958984375,-0.008577492088079453,0.09906408935785294,-0.05664614588022232
1772536354736377600,0.216377685546875,0.000074801966547966,0.14487820863723755,-0.043749116361141205
1772536354746425300,0.22642529296875,0.0037076198495924473,0.1739223748445511,-0.028093457221984863
1772536354756474400,0.236474365234375,0.011312942951917648,0.18462808430194855,-0.03086100146174431
1772536354766522400,0.2465224609375,0.011710552498698235,0.17269019782543182,-0.029762446880340576
1772536354776570600,0.256570556640625,0.0035838554613292217,0.1391448825597763,-0.016573935747146606
1772536354786618400,0.266618408203125,-0.01055699773132801,0.1004243865609169,0.006668802350759506
1772536354796666400,0.276666259765625,-0.021144725382328033,0.07376502454280853,0.019762439653277397
1772536354806715400,0.28671533203125,-0.025655321776866913,0.06868637353181839,0.021031701937317848
1772536354816763400,0.296763427734375,-0.018587429076433182,0.06744024157524109,0.020465945824980736
1772536354826811600,0.306811767578125,-0.015131711959838867,0.06665913760662079,0.02567136101424694
1772536354836859400,0.316859375,-0.01434848178178072,0.0766226127743721,0.03329680860042572
1772536354846908700,0.32690869140625,-0.01428642962127924,0.08423393219709396,0.04015631601214409
1772536354856956400,0.336956298828125,-0.01959383487701416,0.07799449563026428,0.04047929123044014
1772536354867004400,0.34700439453125,-0.017229747027158737,0.06339584290981293,0.04066517949104309
1772536354877052700,0.357052734375,-0.011052215471863747,0.059735771268606186,0.0336633026599884
1772536354887101400,0.367101318359375,-0.0005782684311270714,0.07571126520633698,0.028012873604893684
1772536354897149400,0.3771494140625,0.008844465017318726,0.10242553055286407,0.03964918106794357
1772536354907197400,0.387197509765625,0.00859998632222414,0.129179909825325,0.05834324285387993
1772536354917245400,0.397245361328125,0.009959995746612549,0.15445353090763092,0.0778588280081749
1772536354927294500,0.40729443359375,0.011125395074486732,0.16430775821208954,0.09966558963060379
1772536354937342500,0.417342529296875,0.012620417401194572,0.14724820852279663,0.09631773084402084
1772536354947390500,0.427390380859375,0.01814141497015953,0.11271554231643677,0.09202604740858078
1772536354957438500,0.4374384765625,0.018625855445861816,0.07433653622865677,0.08150596916675568
1772536354967486500,0.447486572265625,0.019094571471214294,0.05266959220170975,0.07062908262014389
1772536354977535500,0.457535400390625,0.018611667677760124,0.045723605901002884,0.05942540988326073
1772536354987583500,0.46758349609375,0.022532373666763306,0.0485558807849884,0.04564594849944115
1772536354997631500,0.477631591796875,0.01938457414507866,0.04667560011148453,0.03159095719456673
1772536355007679500,0.487679443359375,0.014727236703038216,0.046003151684999466,0.015030888840556145
1772536355017728500,0.497728515625,0.015838589519262314,0.03811015188694,-0.004691483452916145
1772536355027776500,0.507776611328125,0.017938224598765373,0.03618602082133293,-0.024464387446641922
1772536355037824300,0.51782421875,0.022720061242580414,0.03981926664710045,-0.04006051644682884
1772536355047872000,0.5278720703125,0.02054319530725479,0.03948104381561279,-0.05280400812625885
1772536355057921300,0.53792138671875,0.01748735085129738,0.024632425978779793,-0.05969268083572388
1772536355067969000,0.547968994140625,0.014839369803667068,0.024945879355072975,-0.04972260817885399
1772536355078017000,0.55801708984375,0.006639832630753517,0.04415977746248245,-0.04030962660908699
1772536355088065000,0.56806494140625,0.0052163731306791306,0.0707852691411972,-0.023844897747039795
1772536355098113000,0.578113037109375,0.006003594025969505,0.08086151629686356,-0.0157000869512558
1772536355108162000,0.588162109375,0.014179497957229614,0.08866404742002487,-0.007368120364844799
1772536355118210000,0.5982099609375,0.024928752332925797,0.0963924303650856,-0.0024735804181545973
1772536355128258000,0.608258056640625,0.03961688280105591,0.08323721587657928,-0.0023361612111330032
1772536355138306000,0.61830615234375,0.0495753139257431,0.05197136104106903,-0.007301342207938433
1772536355148355000,0.62835498046875,0.058738987892866135,0.013471106998622417,-0.0065423413179814816
1772536355158403000,0.638403076171875,0.06349831819534302,-0.0005349889397621155,-0.0005694035207852721
1772536355168451000,0.648451171875,0.06825979053974152,0.0016165785491466522,0.009358327835798264
1772536355178499000,0.6584990234375,0.07141103595495224,0.01503719948232174,0.024103369563817978
1772536355188548000,0.668548095703125,0.0756009891629219,0.03724317252635956,0.038891635835170746
1772536355198596000,0.67859619140625,0.08029061555862427,0.05931656062602997,0.05124104022979736
1772536355208644000,0.68864404296875,0.08420093357563019,0.08540648967027664,0.0630233958363533
1772536355218692000,0.698692138671875,0.0895109474658966,0.10348595678806305,0.06628868728876114
1772536355228741000,0.7087412109375,0.09516829252243042,0.08745293319225311,0.06464844197034836
1772536355238789000,0.7187890625,0.09927090257406235,0.050500981509685516,0.05694975331425667
1772536355248837000,0.728837158203125,0.09419092535972595,0.02103070542216301,0.05599048361182213
1772536355258885000,0.738885009765625,0.08643113076686859,0.013010166585445404,0.053325578570365906
1772536355268934000,0.748933837890625,0.0857967734336853,0.019576190039515495,0.05726732313632965
1772536355278982100,0.758982177734375,0.08157937973737717,0.02885179966688156,0.05444217845797539
1772536355289030100,0.769030029296875,0.07948453724384308,0.023037053644657135,0.05049590766429901
1772536355299078000,0.779077880859375,0.079312764108181,0.003849509172141552,0.04072050750255585
1772536355309126100,0.789126220703125,0.07475316524505615,-0.01742435432970524,0.033183228224515915
1772536355319175000,0.7991748046875,0.06796637177467346,-0.0366145595908165,0.01872039958834648
1772536355329223200,0.80922314453125,0.06361183524131775,-0.04492681846022606,0.011203095316886902
1772536355339271200,0.819271240234375,0.05856778845191002,-0.029827404767274857,0.003373335814103484
1772536355349319000,0.82931884765625,0.05491792783141136,-0.029032718390226364,-0.0018025175668299198
1772536355359368200,0.8393681640625,0.05123025178909302,-0.031046994030475616,-0.0090343551710248
1772536355369416000,0.849416015625,0.05068323761224747,-0.030276009812951088,-0.019326141104102135
1772536355379464200,0.859464111328125,0.045710403472185135,-0.04266109690070152,-0.029575655236840248
1772536355389512000,0.869511962890625,0.0436248816549778,-0.045200154185295105,-0.0456710010766983
1772536355399561200,0.879561279296875,0.039288513362407684,-0.039614565670490265,-0.05619341880083084
1772536355409609000,0.88960888671875,0.03734200447797775,-0.039077408611774445,-0.06811293214559555
1772536355419657000,0.899656982421875,0.035759687423706055,-0.04278813675045967,-0.07125727832317352
1772536355429705200,0.909705322265625,0.03782150521874428,-0.03363005816936493,-0.06549526005983353
1772536355439754000,0.91975390625,0.028274815529584885,-0.031924210488796234,-0.054840587079524994
1772536355449802200,0.92980224609375,0.0211468655616045,-0.03393916040658951,-0.0528903529047966
1772536355459850000,0.93985009765625,0.016342919319868088,-0.03711215406656265,-0.055878542363643646
1772536355469898000,0.94989794921875,0.008867427706718445,-0.028642235323786736,-0.059969425201416016
1772536355479946200,0.9599462890625,0.006738701369613409,-0.021364441141486168,-0.06256084889173508
1772536355489995000,0.9699951171875,0.0013053203001618385,-0.018050668761134148,-0.06097254529595375
1772536355500043300,0.980043212890625,-0.0012394003570079803,-0.016468290239572525,-0.05427919328212738
1772536355510091000,0.990091064453125,-0.012869157828390598,-0.017061643302440643,-0.04447662830352783
1772536355520139000,1.000138916015625,-0.02330421842634678,-0.012478794902563095,-0.03350953012704849
1772536355530188000,1.01018798828125,-0.03904908895492554,-0.009933877736330032,-0.02821330353617668
1772536355540236000,1.020236083984375,-0.04811666160821915,-0.007074472028762102,-0.02125721424818039
1772536355550284000,1.030283935546875,-0.05393300950527191,-0.010906760580837727,-0.019684351980686188
1772536355560332000,1.04033203125,-0.058497026562690735,-0.01767164096236229,-0.01490010041743517
1772536355570381000,1.050381103515625,-0.06608330458402634,-0.014601282775402069,-0.009798549115657806
1772536355580429000,1.060428955078125,-0.06909827888011932,-0.003427273128181696,-0.0037091649137437344
1772536355590477000,1.07047705078125,-0.06741835176944733,0.004492701031267643,0.0010941124055534601
1772536355600525000,1.080525146484375,-0.06874607503414154,0.004066964145749807,0.00665411539375782
1772536355610573000,1.090572998046875,-0.058896902948617935,0.005168714094907045,0.0033541927114129066
1772536355620622000,1.1006220703125,-0.04740116372704506,0.004231906030327082,-0.004968557041138411
1772536355630670000,1.110670166015625,-0.04149879887700081,-0.010686855763196945,-0.0121769355610013
1772536355640718000,1.120718017578125,-0.03740985319018364,-0.019377805292606354,-0.0178857259452343
1772536355650766000,1.13076611328125,-0.03253307193517685,-0.020474229007959366,-0.020919598639011383
1772536355660815000,1.140815185546875,-0.023196902126073837,-0.01634359359741211,-0.016508888453245163
1772536355670863000,1.150863037109375,-0.01816725544631481,-0.009674770757555962,-0.008050688542425632
1772536355680911000,1.1609111328125,-0.017883755266666412,-0.013394612818956375,-0.008843500167131424
1772536355690959000,1.170958984375,-0.018878445029258728,-0.025729045271873474,-0.011251264251768589
1772536355701008100,1.181008056640625,-0.017301887273788452,-0.03598830848932266,-0.003526565618813038
1772536355711056000,1.191055908203125,-0.01704622432589531,-0.03511745482683182,0.0040818192064762115
1772536355721104100,1.201104248046875,-0.01829541102051735,-0.033517345786094666,0.013992922380566597
1772536355731152100,1.211152099609375,-0.015265533700585365,-0.037130989134311676,0.02557261288166046
1772536355741201200,1.221201171875,-0.015404016710817814,-0.036915745586156845,0.03435574099421501
1772536355751249200,1.231249267578125,-0.01786956936120987,-0.029452502727508545,0.0432477705180645
1772536355761297000,1.241296875,-0.020246457308530807,-0.030679909512400627,0.04569932073354721
1772536355771345200,1.25134521484375,-0.01875215768814087,-0.03874316066503525,0.04713715985417366
1772536355781393200,1.26139306640625,-0.015383780002593994,-0.03535980358719826,0.04421960189938545
1772536355791442200,1.271442138671875,-0.01288972981274128,-0.03555847704410553,0.0426749661564827
1772536355801490200,1.281490234375,-0.011995173990726471,-0.03958464041352272,0.0330849252641201
1772536355811538000,1.291537841796875,-0.007781254127621651,-0.04356686770915985,0.030538409948349
1772536355821586200,1.301586181640625,-0.003149351105093956,-0.03436201810836792,0.03167865425348282
1772536355831635000,1.311635009765625,-0.0039182063192129135,-0.02660689502954483,0.025693997740745544
1772536355841683200,1.32168310546875,-0.004403366707265377,-0.02702575922012329,0.018145861104130745
1772536355851731000,1.33173095703125,0.00021748337894678116,-0.01985093764960766,0.010708183981478214
1772536355861779000,1.341779052734375,0.0024938234128057957,0.001995280385017395,0.016627691686153412
1772536355871828000,1.351827880859375,0.0026213889941573143,0.022351950407028198,0.01998567208647728
1772536355881876000,1.3618759765625,0.0022998093627393246,0.025778334587812424,0.012707951478660107
1772536355891924200,1.37192431640625,0.003482785541564226,0.012652944773435593,0.002947733039036393
1772536355901972000,1.381971923828125,0.006253674626350403,-0.007380705326795578,-0.0061660585924983025
1772536355912020000,1.39202001953125,0.008370354771614075,-0.00636817142367363,-0.002807280048727989
1772536355922069000,1.402069091796875,0.004283254034817219,-0.00001272512599825859,-0.0008520135888829827
1772536355932117000,1.412116943359375,0.0007260697893798351,-0.00626662652939558,0.0035611107014119625
1772536355942165200,1.422165283203125,0.003001605160534382,-0.004848312586545944,0.010245454497635365
1772536355952213000,1.432212890625,0.005200045183300972,0.0019099912606179714,0.01620933786034584
1772536355962262300,1.44226220703125,0.009084790013730526,0.006136492360383272,0.014908140525221825
1772536355972310000,1.45231005859375,0.015245480462908745,0.0011308151297271252,0.013062569312751293
1772536355982358000,1.46235791015625,0.020826417952775955,0.0033692773431539536,0.0075785210356116295
1772536355992406000,1.472406005859375,0.02171112224459648,0.012516169808804989,0.007772132754325867
1772536356002455000,1.482455078125,0.01793980970978737,0.013869181275367737,0.0014122824650257826
1772536356012503000,1.4925029296875,0.022006189450621605,0.002082564402371645,-0.004110048525035381
1772536356022551000,1.502551025390625,0.02366076037287712,0.0005688723176717758,-0.005511886440217495
1772536356032599300,1.512599365234375,0.017493143677711487,0.007237161509692669,0.0005364187527447939
1772536356042648300,1.5226484375,0.007980398833751678,0.0074433195404708385,0.004540364723652601
1772536356052696300,1.5326962890625,0.00153688108548522,0.0033215456642210484,0.005498836282640696
1772536356062744000,1.542744140625,0.006544605828821659,0.0032500443048775196,0.006061301566660404
1772536356072792300,1.552792236328125,0.0038281818851828575,0.0015690564177930355,0.006228282116353512
1772536356082840300,1.56284033203125,0.004078203346580267,-0.006669384427368641,0.007794271223247051
1772536356092889300,1.572889404296875,0.004625482950359583,-0.007749296259135008,0.006213152781128883
1772536356102937300,1.582937255859375,0.0057028597220778465,-0.0077379681169986725,0.004008553922176361
1772536356112985000,1.592985107421875,-0.00015982240438461304,-0.0134350024163723,-0.0012224273523315787
1772536356123033300,1.603033447265625,-0.0000947834923863411,-0.004881551023572683,-0.0025917193852365017
1772536356133082000,1.61308203125,-0.004429344087839127,-0.0045241545885801315,-0.011753791943192482
1772536356143130400,1.62313037109375,-0.0022048605605959892,-0.010512511245906353,-0.01639581099152565
1772536356153178000,1.63317822265625,-0.003816605545580387,-0.02141575887799263,-0.02323826774954796
1772536356163226000,1.64322607421875,-0.0065707191824913025,-0.02283766120672226,-0.026899682357907295
1772536356173275100,1.653275146484375,-0.005064435303211212,-0.017105471342802048,-0.02422294020652771
1772536356183323100,1.6633232421875,-0.008653838187456131,-0.008130148984491825,-0.020048189908266068
1772536356193371400,1.673371337890625,-0.01057850569486618,-0.004239803645759821,-0.016477957367897034
1772536356203419100,1.683419189453125,-0.00977196916937828,-0.003372514620423317,-0.018188893795013428
1772536356213467100,1.693467041015625,-0.009142665192484856,0.00048454198986291885,-0.02236366644501686
1772536356223516200,1.70351611328125,-0.010569257661700249,0.0038005574606359005,-0.025603849440813065
1772536356233564200,1.713564208984375,-0.014684906229376793,-0.010486768558621407,-0.03662960231304169
1772536356243612400,1.7236123046875,-0.012836487032473087,-0.022074639797210693,-0.041721049696207047
1772536356253660200,1.73366015625,-0.01405887771397829,-0.019783521071076393,-0.03703095763921738
1772536356263709200,1.743709228515625,-0.021752195432782173,-0.015863867476582527,-0.03413698822259903
1772536356273757200,1.753757080078125,-0.02475224807858467,-0.015442023053765297,-0.038084324449300766
1772536356283805200,1.76380517578125,-0.029257914051413536,-0.014695025980472565,-0.03454197943210602
1772536356293853200,1.773853271484375,-0.03193012624979019,-0.015782926231622696,-0.03811913728713989
1772536356303902200,1.783902099609375,-0.03220484405755997,-0.01948377676308155,-0.042671311646699905
1772536356313950200,1.7939501953125,-0.033160120248794556,-0.020885398611426353,-0.03981613367795944
1772536356323998200,1.803998291015625,-0.03129466623067856,-0.023673055693507195,-0.044289976358413696
1772536356334046200,1.814046142578125,-0.024103067815303802,-0.01619116961956024,-0.033034391701221466
1772536356344094200,1.82409423828125,-0.021728629246354103,-0.004262706730514765,-0.024007778614759445
1772536356354143200,1.834143310546875,-0.019095560535788536,-0.0012040664441883564,-0.01578340493142605
1772536356364191200,1.844191162109375,-0.01566740684211254,-0.0015882584266364574,-0.007780749816447496
1772536356374239200,1.8542392578125,-0.01234857551753521,-0.004301753360778093,-0.005063793156296015
1772536356384287200,1.864287353515625,-0.004480867646634579,-0.003980664536356926,-0.0021659124176949263
1772536356394336300,1.874336181640625,-0.004885667935013771,-0.015535588376224041,-0.005859983153641224
1772536356404384300,1.88438427734375,0.0012821382842957973,-0.023086335510015488,-0.0038145817816257477
1772536356414432300,1.894432373046875,0.002692548558115959,-0.020284157246351242,0.003687809221446514
1772536356424480300,1.904480224609375,0.0050454651936888695,-0.006926258094608784,0.011697975918650627
1772536356434529300,1.914529296875,0.0029423669911921024,-0.008573156781494617,0.008151711896061897
1772536356444577300,1.924577392578125,0.004502158612012863,-0.013914613053202629,0.008405354805290699
1772536356454625000,1.934625,0.007020443677902222,-0.006401835009455681,0.017406040802598
1772536356464673300,1.94467333984375,0.008346651680767536,0.012196315452456474,0.02846466563642025
1772536356474722000,1.95472216796875,0.005138874053955078,0.026941703632473946,0.032471925020217896
1772536356484770300,1.964770263671875,0.005182596389204264,0.015112511813640594,0.021045517176389694
1772536356494818300,1.974818359375,0.005549846217036247,-0.006133655086159706,0.00844556838274002
1772536356504866000,1.984865966796875,0.00371248135343194,-0.015371602028608322,0.001563566504046321
1772536356514914300,1.994914306640625,0.006659269332885742,-0.007164005655795336,0.009553316049277782
1772536356524963000,2.004963134765625,0.006661183200776577,0.006766963750123978,0.021652450785040855
1772536356535011300,2.01501123046875,0.007014584727585316,0.015532225370407104,0.03137059137225151
1772536356545059300,2.025059326171875,0.00789569690823555,0.01022118330001831,0.03274011239409447
1772536356555107000,2.035107177734375,0.0071129933930933475,-0.0038182015996426344,0.020805953070521355
1772536356565156000,2.045156005859375,0.01204085536301136,-0.019939947873353958,0.011253045871853828
1772536356575204000,2.0552041015625,0.020897462964057922,-0.018897054716944695,0.007773892022669315
1772536356585252400,2.06525244140625,0.0271255224943161,-0.0013058893382549286,0.01750887557864189
1772536356595300000,2.075300048828125,0.02735588699579239,0.014462154358625412,0.022839196026325226
1772536356605348000,2.08534814453125,0.026971470564603806,0.01522899977862835,0.0205992441624403
1772536356615397000,2.095397216796875,0.02397940866649151,0.0015275678597390652,0.01120946928858757
1772536356625445000,2.105445068359375,0.022333156317472458,-0.01219575759023428,0.00021885917522013187
1772536356635493400,2.115493408203125,0.024722013622522354,-0.015801943838596344,-0.00446191243827343
1772536356645541000,2.125541015625,0.026708083227276802,-0.009187127463519573,0.0008082273416221142
1772536356655590400,2.13559033203125,0.023429464548826218,-0.004195831250399351,0.0005887830629944801
1772536356665638100,2.14563818359375,0.027345962822437286,0.004327178932726383,0.011882089078426361
1772536356675686100,2.15568603515625,0.026674315333366394,0.018193991854786873,0.016798552125692368
1772536356685734400,2.165734375,0.02069106325507164,0.016306329518556595,0.010652813129127026
1772536356695783200,2.175783203125,0.012221945449709892,0.0003633168525993824,-0.003394829109311104
1772536356705831200,2.1858310546875,0.014357522130012512,-0.005832666996866465,-0.006210011430084705
1772536356715879200,2.195879150390625,0.01927318423986435,0.022518014535307884,0.004561143461614847
1772536356725927200,2.20592724609375,0.014793755486607552,0.04330019652843475,0.010067206807434559
1772536356735976200,2.21597607421875,0.018317649140954018,0.03151889890432358,0.005768598057329655
1772536356746024200,2.226024169921875,0.019240904599428177,0.015084421262145042,-0.0037120722699910402
1772536356756072200,2.236072265625,0.017780426889657974,0.004669863730669022,-0.007825590670108795
1772536356766120200,2.2461201171875,0.022471057251095772,0.006993675604462624,-0.005877244286239147
1772536356776168200,2.256168212890625,0.019613485783338547,0.01199669111520052,0.0007942402735352516
1772536356786217200,2.26621728515625,0.014792297035455704,0.012881606817245483,0.009912576526403427
1772536356796265200,2.27626513671875,0.008337060920894146,0.01688460446894169,0.014477234333753586
1772536356806313200,2.286313232421875,0.0019339960999786854,0.007395216729491949,0.009632235392928123
1772536356816361200,2.296361328125,0.00002690684050321579,-0.013363324105739594,0.004290998913347721
1772536356826410200,2.30641015625,0.004415817558765411,-0.017323635518550873,0.002806219970807433
1772536356836458200,2.316458251953125,0.005848598200827837,0.00036774296313524246,0.014468202367424965
1772536356846506200,2.32650634765625,0.00047461409121751785,0.013522036373615265,0.020237894728779793
1772536356856554200,2.33655419921875,0.0032781236805021763,0.01576894521713257,0.02101047895848751
1772536356866603300,2.346603271484375,0.006400201469659805,0.010725157335400581,0.016768457368016243
1772536356876651300,2.3566513671875,0.0019809515215456486,0.00045014824718236923,0.00726017402485013
1772536356886699300,2.36669921875,0.000026134774088859558,-0.011280227452516556,-0.004113870672881603
1772536356896747000,2.3767470703125,0.0005390597507357597,-0.02170969918370247,-0.013465560972690582
1772536356906795300,2.386795166015625,-0.005940673872828484,-0.020589657127857208,-0.015584572218358517
1772536356916844000,2.396843994140625,-0.00911036878824234,-0.009301848709583282,-0.018432024866342545
1772536356926892300,2.406892333984375,-0.014186754822731018,-0.010529073886573315,-0.02056930959224701
1772536356936940300,2.416940185546875,-0.017952198162674904,-0.02480015531182289,-0.03038359060883522
1772536356946988000,2.426988037109375,-0.013297800906002522,-0.023614922538399696,-0.025608234107494354
1772536356957037300,2.437037353515625,-0.0066430941224098206,-0.011074097827076912,-0.01468927226960659
1772536356967085000,2.4470849609375,-0.005047396756708622,-0.002380258869379759,-0.011854398995637894
1772536356977133300,2.45713330078125,-0.00647991057485342,-0.0045984061434865,-0.005743242800235748
1772536356987181300,2.467181396484375,-0.007483376190066338,-0.003514216048642993,0.0010650393087416887
1772536356997230300,2.477230224609375,-0.010616851970553398,0.00036893924698233604,0.004473352804780006
1772536357007278000,2.487278076171875,-0.014450078830122948,-0.013249380514025688,-0.00022826925851404667
1772536357017326000,2.497326171875,-0.0110367052257061,-0.014250196516513824,-0.0009036469273269176
1772536357027374300,2.507374267578125,-0.010041357018053532,-0.004008249379694462,0.001108804251998663
1772536357037422300,2.51742236328125,-0.009692748077213764,-0.005151278339326382,0.0016398385632783175
1772536357047471600,2.5274716796875,-0.016624677926301956,-0.013249523006379604,0.0014724591746926308
1772536357057519400,2.537519287109375,-0.017710981890559196,-0.015989650040864944,0.002893522148951888
1772536357067567400,2.5475673828125,-0.017003251239657402,-0.006287344265729189,0.008791058324277401
1772536357077615600,2.55761572265625,-0.01831379346549511,-0.0015176227316260338,0.008895720355212688
1772536357087664400,2.567664306640625,-0.016581691801548004,-0.001058303751051426,0.00886276364326477
1772536357097712600,2.577712646484375,-0.012834622524678707,0.0025798403657972813,0.010698746889829636
1772536357107760400,2.587760498046875,-0.01632867194712162,0.006100082769989967,0.009178015403449535
1772536357117808400,2.597808349609375,-0.014554208144545555,0.0028235958889126778,0.003073784289881587
1772536357127857400,2.607857421875,-0.007134797051548958,-0.004667520988732576,-0.0006752026965841651
1772536357137905400,2.617905517578125,-0.003429275006055832,-0.0022397832944989204,-0.003477114485576749
1772536357147953400,2.627953369140625,-0.005822573788464069,-0.004586371593177319,-0.011096135713160038
1772536357158001400,2.63800146484375,-0.00028959009796380997,-0.014579616487026215,-0.01733459159731865
1772536357168049700,2.648049560546875,0.0015970468521118164,-0.014792758040130138,-0.0112667391076684
1772536357178098400,2.658098388671875,0.0019062398932874203,-0.004246640019118786,-0.007066400721669197
1772536357188146400,2.668146484375,0.004136050585657358,-0.005882798228412867,-0.0004847703967243433
1772536357198194400,2.6781943359375,0.0061571234837174416,-0.0061009107157588005,0.0044980039820075035
1772536357208242400,2.688242431640625,0.0074637457728385925,0.001457864884287119,0.014587407000362873
1772536357218291500,2.69829150390625,0.0048645008355379105,0.000051449984312057495,0.01778905838727951
1772536357228339500,2.70833935546875,0.00547616183757782,-0.0068214209750294685,0.015161522664129734
1772536357238387500,2.718387451171875,0.004550979472696781,-0.013133911415934563,0.015212387777864933
1772536357248435500,2.728435546875,0.00493619916960597,-0.007946912199258804,0.017837366089224815
1772536357258484500,2.738484375,0.006595348473638296,0.0019520572386682034,0.026941116899251938
1772536357268532500,2.748532470703125,0.01041470281779766,0.005791029892861843,0.029261184856295586
1772536357278580500,2.75858056640625,0.00992601364850998,0.0015496797859668732,0.033900145441293716
1772536357288628200,2.768628173828125,0.01350339874625206,-0.002231371123343706,0.03375507518649101
1772536357298676500,2.778676513671875,0.01122106984257698,0.005517361685633659,0.026197822764515877
1772536357308725200,2.788725341796875,0.013439126312732697,0.007797290105372667,0.02418186143040657
1772536357318773500,2.7987734375,0.014659919776022434,0.0017623002640902996,0.015682915225625038
1772536357328821500,2.808821533203125,0.00911519955843687,0.0025461972691118717,0.010290324687957764
1772536357338869500,2.818869384765625,0.004740424919873476,0.000345627311617136,0.0026494490448385477
1772536357348918500,2.82891845703125,0.0010196277871727943,-0.004960670601576567,-0.009965934790670872
1772536357358966300,2.83896630859375,-0.0009870640933513641,-0.013229785487055779,-0.020959196612238884
1772536357369014500,2.8490146484375,0.00447807228192687,-0.008949439972639084,-0.018886642530560493
1772536357379062500,2.8590625,0.003435977268964052,0.005256926640868187,-0.014479642733931541
1772536357389111600,2.869111572265625,0.0067923590540885925,0.0164099782705307,-0.015078853815793991
1772536357399159600,2.87915966796875,0.005950267426669598,0.018713347613811493,-0.019010746851563454
1772536357409207300,2.889207275390625,0.008574417792260647,0.01235429011285305,-0.020194420590996742
1772536357419255600,2.899255615234375,0.00028426386415958405,0.0085651446133852,-0.02162081003189087
1772536357429303300,2.90930322265625,-0.0028166547417640686,0.0036722542718052864,-0.026432346552610397
1772536357439352600,2.9193525390625,-0.0022781630977988243,-0.0012564579956233501,-0.026231013238430023
1772536357449400300,2.929400390625,-0.001784278079867363,-0.002511054277420044,-0.026503533124923706
1772536357459448600,2.939448486328125,-0.00579792819917202,-0.0045366548001766205,-0.02430349588394165
1772536357469496600,2.94949658203125,-0.003611006774008274,0.001607473473995924,-0.01686641201376915
1772536357479545300,2.95954541015625,-0.0015119034796953201,0.009054470807313919,-0.011471647769212723
1772536357489593600,2.969593505859375,0.0032478910870850086,0.016254398971796036,-0.0028709853067994118
1772536357499641300,2.979641357421875,0.005599995143711567,0.022755973041057587,0.0012467943597584963
1772536357509689600,2.989689697265625,0.004735620226711035,0.02634160779416561,0.0005783315282315016
1772536357519738400,2.99973828125,0.007873089984059334,0.022433418780565262,-0.002794295782223344
1772536357529786400,3.009786376953125,0.007102021481841803,0.013580257073044777,-0.011072211898863316
1772536357539834600,3.019834716796875,0.006451677531003952,0.012509666383266449,-0.01064370945096016
1772536357549882400,3.02988232421875,0.004625615198165178,0.0066302563063800335,-0.019788410514593124
1772536357559930600,3.0399306640625,0.00009904056787490845,-0.006736681330949068,-0.025765076279640198
1772536357569979400,3.0499794921875,0.005879567004740238,-0.013414783403277397,-0.02475244365632534
1772536357580027400,3.06002734375,0.0027554132975637913,0.006564782932400703,-0.011197218671441078
1772536357590075400,3.070075439453125,-0.0007294835522770882,0.021678902208805084,-0.00446078646928072
1772536357600123400,3.080123291015625,0.0021712318994104862,0.01503218524158001,-0.003914572298526764
1772536357610172400,3.09017236328125,0.005367108155041933,0.013201062567532063,-0.0019388010259717703
1772536357620220400,3.100220458984375,0.00730216084048152,0.017827238887548447,0.005950015038251877
1772536357630268700,3.1102685546875,0.005300326272845268,0.028293635696172714,0.010797073133289814
1772536357640316400,3.12031640625,0.0027474197559058666,0.03259624168276787,0.010496668517589569
1772536357650365400,3.130365478515625,0.001410047523677349,0.025658491998910904,0.003522976068779826
1772536357660413400,3.140413330078125,0.002193282824009657,0.01148967631161213,-0.004846806637942791
1772536357670461400,3.15046142578125,0.002112048212438822,0.0032017771154642105,-0.014795532450079918
1772536357680509400,3.160509521484375,0.002222302835434675,-0.0023533105850219727,-0.019300535321235657
1772536357690557400,3.170557373046875,-0.0004246290773153305,-0.0029497314244508743,-0.02366354875266552
1772536357700606500,3.1806064453125,-0.003934142179787159,0.0011414168402552605,-0.026473715901374817
1772536357710654500,3.190654541015625,-0.010245018638670444,0.0023506302386522293,-0.023401271551847458
1772536357720702500,3.200702392578125,-0.010308402590453625,0.001495223492383957,-0.020383644849061966
1772536357730750500,3.21075048828125,-0.009489404037594795,0.0011148503981530666,-0.018765226006507874
1772536357740799500,3.220799560546875,-0.008696582168340683,0.004696535412222147,-0.016070904210209846
1772536357750847200,3.23084716796875,-0.010650086216628551,0.0031359968706965446,-0.012688172981142998
1772536357760895500,3.2408955078125,-0.005500331521034241,0.007899327203631401,-0.00609738240018487
1772536357770943500,3.250943603515625,-0.006037757731974125,0.007183468900620937,-0.006232404615730047
1772536357780992500,3.260992431640625,-0.003956230357289314,0.0058428337797522545,-0.003938624169677496
1772536357791040500,3.27104052734375,-0.004179753363132477,0.0029563098214566708,-0.0039732614532113075
1772536357801088500,3.281088623046875,-0.005904150195419788,0.0063379923813045025,-0.007802886888384819
1772536357811136500,3.291136474609375,-0.006063644774258137,-0.005047664046287537,-0.015249751508235931
1772536357821184500,3.3011845703125,-0.006798677146434784,-0.01963273249566555,-0.014235353097319603
1772536357831233500,3.311233642578125,-0.0004947800189256668,-0.018088292330503464,-0.00500911520794034
1772536357841281500,3.321281494140625,0.0051378048956394196,0.001615636982023716,0.004617147147655487
1772536357851329500,3.33132958984375,0.004691264592111111,0.009214894846081734,0.016853323206305504
1772536357861377500,3.34137744140625,0.0012712334282696247,0.0073536112904548645,0.01695905067026615
1772536357871426300,3.35142626953125,0.0010001864284276962,-0.005034676752984524,0.018925607204437256
1772536357881474600,3.361474609375,0.003689979203045368,-0.004433867521584034,0.026642117649316788
1772536357891522300,3.371522216796875,0.004185996018350124,0.006434442941099405,0.025782553479075432
1772536357901570600,3.381570556640625,0.00045916903764009476,0.008599858731031418,0.02438412792980671
1772536357911618600,3.39161865234375,-0.0012090662494301796,-0.0044260225258767605,0.01773090846836567
1772536357921667600,3.40166748046875,-0.00044394005089998245,-0.004938414786010981,0.015656838193535805
1772536357931715600,3.411715576171875,-0.003912350162863731,0.009809466078877449,0.014245574362576008
1772536357941763300,3.421763427734375,-0.006576842628419399,0.009603071957826614,0.008436687290668488
1772536357951811600,3.4318115234375,-0.009484988637268543,-0.003826581407338381,-0.0034082988277077675
1772536357961860400,3.4418603515625,-0.00741970632225275,-0.009242385625839233,-0.005137489177286625
1772536357971908600,3.45190869140625,-0.004890642128884792,-0.0003086463548243046,-0.006002339534461498
1772536357981956600,3.46195654296875,-0.0064318133518099785,0.006453652400523424,-0.010498554445803165
1772536357992004400,3.47200439453125,-0.00771802943199873,-0.003877893788740039,-0.023117393255233765
1772536358002053400,3.482053466796875,-0.003676682710647583,-0.009031376801431179,-0.021921634674072266
1772536358012101400,3.492101318359375,-0.0016755685210227966,0.0014712046831846237,-0.017819879576563835
1772536358022149600,3.502149658203125,-0.002435368485748768,0.002996929921209812,-0.017581526190042496
1772536358032197400,3.512197265625,0.003927393816411495,-0.005823041312396526,-0.01709052175283432
1772536358042249000,3.5222490234375,0.011712346225976944,-0.0033452361822128296,-0.00716572068631649
1772536358052298000,3.532298095703125,0.01420239731669426,0.005147380754351616,-0.003047652542591095
1772536358062346000,3.542345947265625,0.0064994702115654945,0.002566245384514332,-0.004717720672488213
1772536358072394000,3.55239404296875,0.0054909829050302505,-0.0043277014046907425,-0.009724091738462448
1772536358082442000,3.56244189453125,-0.0015613334253430367,-0.006352502852678299,-0.009337400086224079
1772536358092491000,3.572490966796875,-0.011091303080320358,-0.015227778814733028,-0.01200687512755394
1772536358102539000,3.5825390625,-0.0025734491646289825,-0.01628691703081131,-0.00569065660238266
1772536358112587000,3.5925869140625,0.0022173733450472355,-0.001525169238448143,0.011444205418229103
1772536358122635000,3.602635009765625,0.0051809391006827354,0.009467295370995998,0.021506693214178085
1772536358132684000,3.61268408203125,0.0020624976605176926,0.009415325708687305,0.027974344789981842
1772536358142732000,3.62273193359375,0.0005165319889783859,0.0014013415202498436,0.025055786594748497
1772536358152780000,3.632780029296875,0.003234958741813898,-0.0031219366937875748,0.01593511551618576
1772536358162828000,3.642828125,0.0026860814541578293,-0.006790174636989832,0.014050129801034927
1772536358172875800,3.652875732421875,0.006986485794186592,-0.000440716277807951,0.00804757047444582
1772536358182925000,3.662925048828125,0.0058365329168736935,-0.0019611152820289135,0.0038203352596610785
1772536358192972800,3.672972900390625,0.007337833289057016,-0.006658944766968489,0.0028190251905471087
1772536358203021000,3.68302099609375,0.006581761874258518,-0.008208105340600014,0.0027615006547421217
1772536358213069000,3.693069091796875,0.0011688321828842163,-0.004557949490845203,-0.003249914152547717
1772536358223118000,3.7031181640625,-0.0012184251099824905,-0.0091383196413517,-0.00781324040144682
1772536358233166000,3.713166015625,-0.002072175033390522,-0.008167156018316746,-0.007168649695813656
1772536358243213800,3.7232138671875,-0.0024974821135401726,-0.011039640754461288,-0.009130334481596947
1772536358253262000,3.733261962890625,0.0006807814352214336,-0.010910769924521446,-0.010948879644274712
1772536358263310800,3.743310791015625,0.0034707090817391872,-0.003643269184976816,-0.006753867492079735
1772536358273359000,3.753359130859375,0.0035384297370910645,-0.00010793609544634819,0.000022051623091101646
1772536358283406800,3.76340673828125,0.002590877003967762,0.00045026233419775963,0.002423690166324377
1772536358293454800,3.773454833984375,0.0032585388980805874,0.008048729971051216,0.010030188597738743
1772536358303504000,3.78350390625,0.004423671867698431,0.014886928722262383,0.016741354018449783
1772536358313552000,3.7935517578125,0.006084846332669258,0.006579936947673559,0.018759526312351227
1772536358323600100,3.80360009765625,0.005051273852586746,-0.0041802991181612015,0.014379692263901234
1772536358333648000,3.81364794921875,0.005603289231657982,-0.01847253553569317,0.005628194659948349
1772536358343696000,3.82369580078125,0.005353218410164118,-0.02329844795167446,0.0026710208039730787
1772536358353745000,3.833744873046875,0.004758769646286964,-0.01639324054121971,0.007958821021020412
1772536358363793000,3.84379296875,0.005102849565446377,-0.004048691131174564,0.012283794581890106
1772536358373841200,3.853841064453125,0.0018216795288026333,-0.0037596493493765593,0.011333256959915161
1772536358383889000,3.863888916015625,0.004758613649755716,-0.003567635314539075,0.016046520322561264
1772536358393938200,3.873938232421875,0.003404214046895504,0.004139475524425507,0.015319225378334522
1772536358403986000,3.88398583984375,0.0007517053745687008,0.008267110213637352,0.014419077895581722
1772536358414034000,3.894033935546875,-0.0005440665408968925,0.002485614735633135,0.008069735951721668
1772536358424082000,3.90408203125,0.002280482091009617,-0.001988761592656374,0.0015907976776361465
1772536358434130000,3.9141298828125,0.0016189608722925186,0.003348149359226227,-0.006209091283380985
1772536358444179000,3.924178955078125,-0.0015624510124325752,0.0014977846294641495,-0.01204727217555046
1772536358454227000,3.93422705078125,0.000199037604033947,-0.0038991544861346483,-0.021138515323400497
1772536358464275000,3.94427490234375,-0.0009860685095191002,-0.005864034406840801,-0.021470345556735992
1772536358474323000,3.954322998046875,-0.0027964189648628235,-0.0035177075769752264,-0.021648399531841278
1772536358484372000,3.9643720703125,-0.0019130483269691467,-0.0057457080110907555,-0.021336812525987625
1772536358494420000,3.974419921875,-0.0024714507162570953,-0.007549885660409927,-0.018193399533629417
1772536358504468000,3.984468017578125,-0.0007774140685796738,-0.005090989172458649,-0.014196792617440224
1772536358514516000,3.994515869140625,-0.0020728325471282005,-0.003615037305280566,-0.013460556976497173
1772536358524565000,4.00456494140625,0.0007290788926184177,-0.005862744990736246,-0.001939189387485385
1772536358534613000,4.014613037109375,0.0032885060645639896,-0.0018214383162558079,0.0041188690811395645
1772536358544661000,4.024660888671875,0.003563877195119858,0.007580852136015892,0.01239437609910965
1772536358554709000,4.034708984375,0.0021208366379141808,0.012470109388232231,0.019396524876356125
1772536358564757000,4.044757080078125,0.004473472945392132,0.004329891875386238,0.011925826780498028
1772536358574806000,4.054805908203125,0.002817263826727867,-0.004798934794962406,0.008570931851863861
1772536358584853800,4.064853759765625,0.0035171424970030785,0.002329548355191946,0.008424723520874977
1772536358594902000,4.074902099609375,0.004364283289760351,0.0013221176341176033,0.008462118916213512
1772536358604950000,4.084949951171875,0.008968888781964779,0.004202060401439667,0.007818699814379215
1772536358614999000,4.0949990234375,0.00882241502404213,0.0013090679422020912,0.004669245332479477
1772536358625047000,4.105047119140625,0.00711053516715765,-0.0033115162514150143,0.00552838109433651
1772536358635094800,4.1150947265625,0.004678985103964806,-0.001812079455703497,0.0004742175806313753
1772536358645143000,4.12514306640625,-0.00011523719877004623,-0.0018022260628640652,-0.0004352518590167165
1772536358655191000,4.13519091796875,-0.006972473114728928,-0.0007962486706674099,-0.0038666129112243652
1772536358665240000,4.145239990234375,-0.007232663221657276,-0.00708450423553586,-0.006858142092823982
1772536358675288000,4.1552880859375,-0.005694345571100712,-0.008189196698367596,-0.0041446085087955
1772536358685335800,4.165335693359375,-0.00234302319586277,-0.004510306287556887,0.0031689645256847143
1772536358695384000,4.175384033203125,0.003362128511071205,0.0021893070079386234,0.009542319923639297
1772536358705432800,4.185432861328125,0.005489461589604616,0.009943632408976555,0.012184175662696362
1772536358715481000,4.195481201171875,0.008714358322322369,0.011446974240243435,0.008137274533510208
1772536358725528800,4.20552880859375,0.0021629827097058296,0.008745198138058186,0.0016487487591803074
1772536358735576800,4.215576904296875,0.0004737330600619316,0.0002966485917568207,-0.009222252294421196
1772536358745625900,4.2256259765625,0.00026121269911527634,-0.008712559007108212,-0.018173404037952423
1772536358755673900,4.235673828125,-0.0006346609443426132,-0.007918326184153557,-0.024860400706529617
1772536358765722000,4.24572216796875,-0.001782483421266079,-0.0023331446573138237,-0.029126785695552826
1772536358775769900,4.255769775390625,-0.0036602504551410675,-0.003316751681268215,-0.028468256816267967
1772536358785817900,4.26581787109375,-0.0006293067708611488,-0.003513293107971549,-0.028711136430501938
1772536358795867000,4.275866943359375,-0.002178422175347805,0.0023501026444137096,-0.020860563963651657
1772536358805915000,4.285914794921875,-0.0028114551678299904,0.008483629673719406,-0.015238897874951363
1772536358815963100,4.295963134765625,-0.00003877934068441391,0.009994792751967907,-0.012045924551784992
1772536358826011000,4.306010986328125,0.0035413079895079136,0.0075894249603152275,-0.009054395370185375
1772536358836060200,4.31606005859375,0.0057138968259096146,0.003194333054125309,-0.011071673594415188
1772536358846108000,4.32610791015625,0.0028757662512362003,0.0009114714339375496,-0.006676392629742622
1772536358856156000,4.336156005859375,-0.0008421242237091064,-0.00203667301684618,-0.0046757482923567295
1772536358866204000,4.346203857421875,-0.00414604227989912,-0.00667190458625555,-0.0031047496013343334
1772536358876252000,4.356251953125,-0.0011658966541290283,-0.004761568270623684,-0.0007507205009460449
1772536358886301000,4.366301025390625,0.001055978238582611,-0.005213506519794464,-0.002386700361967087
1772536358896349000,4.376348876953125,-0.00034374650567770004,-0.0037393446546047926,-0.004163920879364014
1772536358906397000,4.38639697265625,0.0010269819758832455,0.0012333095073699951,-0.0024395242799073458
1772536358916445000,4.39644482421875,0.002880505286157131,0.0037576803006231785,-0.003014651359990239
1772536358926494000,4.406493896484375,0.0011771474964916706,0.0031864321790635586,-0.0025097159668803215
1772536358936542000,4.4165419921875,-0.00152614526450634,0.0008214986883103848,-0.000823145848698914
1772536358946590000,4.42658984375,-0.004266804084181786,-0.0008807936683297157,0.0012634408194571733
1772536358956638000,4.436637939453125,-0.0055147809907794,-0.00032243458554148674,0.0011623336467891932
1772536358966687000,4.44668701171875,-0.006317191757261753,0.004130903631448746,0.00503403740003705
1772536358976735000,4.45673486328125,-0.001631109043955803,0.0008441568352282047,0.0006158978212624788
1772536358986783000,4.466782958984375,0.002433673944324255,-0.009401822462677956,-0.006334153935313225
1772536358996831000,4.4768310546875,0.0007602889090776443,-0.01951540634036064,-0.01021241582930088
1772536359006879000,4.48687890625,0.0034767133183777332,-0.011110203340649605,-0.008745013736188412
1772536359016928000,4.496927978515625,0.003983053844422102,-0.0015390804037451744,-0.006858924403786659
1772536359026975700,4.506975830078125,0.001077012624591589,-0.007491245400160551,-0.0038668629713356495
1772536359037019400,4.517019287109375,0.0012836065143346786,-0.017647793516516685,-0.0022146988194435835
1772536359047067600,4.527067626953125,0.0009440537542104721,-0.011861277744174004,0.0016769785434007645
1772536359057116400,4.537116455078125,-0.000554308295249939,0.002781796269118786,0.0069776736199855804
1772536359067164700,4.54716455078125,-0.0009969258680939674,0.003805248998105526,0.009605147875845432
1772536359077212700,4.557212646484375,0.0018572555854916573,-0.005111824721097946,0.01296236738562584
1772536359087260400,4.567260498046875,0.0030873697251081467,-0.0011181486770510674,0.0074115414172410965
1772536359097309700,4.577309814453125,0.003909013234078884,-0.004553182981908321,0.009902501478791237
1772536359107357400,4.587357421875,0.007436370011419058,-0.003503897925838828,0.014119882136583328
1772536359117405700,4.59740576171875,0.005558437667787075,-0.0004094056785106659,0.014601527713239193
1772536359127453400,4.607453369140625,0.0034966180101037025,-0.0006400356069207191,0.010617171414196491
1772536359137501400,4.61750146484375,0.002389413770288229,-0.008747661486268044,0.006077136844396591
1772536359147550500,4.627550537109375,-0.0007605729624629021,-0.019668754190206528,0.0008118005935102701
1772536359157598500,4.637598388671875,0.0008824714459478855,-0.020681247115135193,-0.003923999145627022
1772536359167646700,4.647646728515625,0.00032507162541151047,-0.01407820638269186,0.0011434636544436216
1772536359177694500,4.657694580078125,0.0019499370828270912,-0.005948918405920267,0.006749989464879036
1772536359187743700,4.66774365234375,0.004465292673557997,0.0010645161382853985,0.01723618432879448
1772536359197791500,4.67779150390625,0.0024771434254944324,0.002266666851937771,0.015075880102813244
1772536359207839500,4.687839599609375,0.0013271900825202465,0.000576091930270195,0.009886978194117546
1772536359217887700,4.6978876953125,-0.002708129584789276,-0.01090527605265379,0.004164387471973896
1772536359227936500,4.7079365234375,-0.006765722297132015,-0.017775965854525566,0.0011651352979242802
1772536359237984800,4.71798486328125,-0.007283549755811691,-0.01081493217498064,-0.00040365965105593204
1772536359248032500,4.728032470703125,-0.004779646173119545,0.0057256948202848434,0.010161099955439568
1772536359258080500,4.73808056640625,-0.005419166758656502,0.011662228032946587,0.011655916459858418
1772536359268128500,4.74812841796875,-0.0059941429644823074,-0.0009158812463283539,0.005053674336522818
1772536359278177500,4.758177490234375,-0.007925134152173996,-0.00881420262157917,0.002480903174728155
1772536359288225500,4.7682255859375,-0.006812999024987221,-0.008521786890923977,0.0002742079086601734
1772536359298273500,4.7782734375,-0.00801108404994011,-0.004759284667670727,0.0013405766803771257
1772536359308321500,4.788321533203125,-0.008962897583842278,-0.0031848237849771976,0.0052543580532073975
1772536359318370600,4.79837060546875,-0.008397857658565044,0.0010457453317940235,0.005716688930988312
1772536359328418600,4.80841845703125,-0.007091045379638672,-0.006012696772813797,0.0034729759208858013
1772536359338466600,4.818466552734375,-0.00617577787488699,-0.01215405948460102,0.0035788859240710735
1772536359348514600,4.8285146484375,0.000518077053129673,-0.005276712588965893,0.010056491941213608
1772536359358562600,4.8385625,0.0019184444099664688,0.011764809489250183,0.017523987218737602
1772536359368611600,4.848611572265625,0.002430037595331669,0.007937847636640072,0.01221550814807415
1772536359378659600,4.85865966796875,0.0030179922468960285,-0.0042591821402311325,0.005822577513754368
1772536359388707600,4.86870751953125,0.0033689970150589943,-0.003373947460204363,0.0001937197521328926
1772536359398755600,4.878755615234375,-0.0033508939668536186,0.001392691396176815,-0.003881632350385189
1772536359408804600,4.8888046875,-0.005687285214662552,-0.0031354809179902077,-0.003870979882776737
1772536359418852600,4.8988525390625,-0.0054954346269369125,-0.009977583773434162,-0.00893077440559864
1772536359428900600,4.908900634765625,-0.00551141332834959,-0.01102127693593502,-0.0025303992442786694
1772536359438948600,4.918948486328125,-0.013716799207031727,-0.010167747735977173,0.0007812799885869026
1772536359448996600,4.92899658203125,-0.015782348811626434,-0.008293947204947472,0.009030154906213284
1772536359459045600,4.939045654296875,-0.013548747636377811,-0.008816523477435112,0.012491709552705288
1772536359469093600,4.94909375,-0.010907690040767193,0.0008227881044149399,0.01897917129099369
1772536359479141400,4.959141357421875,-0.009054716676473618,0.004813091363757849,0.01709514483809471
1772536359489189600,4.969189697265625,-0.006277040578424931,-0.003046696074306965,0.01780807226896286
1772536359499238400,4.97923828125,-0.008212829940021038,-0.011294391006231308,0.01006820984184742
1772536359509286700,4.98928662109375,-0.0067720599472522736,-0.023560112342238426,0.0036388072185218334
1772536359519334700,4.999334716796875,-0.013143766671419144,-0.04947812110185623,-0.006639922969043255
1772536359529382400,5.00938232421875,-0.007279751822352409,-0.05500870943069458,-0.014083990827202797
1772536359539431700,5.019431640625,-0.012257705442607403,-0.050577666610479355,-0.011293597519397736
1772536359549479400,5.0294794921875,-0.010476584546267986,-0.03699900582432747,-0.0031701577827334404
1772536359559527700,5.039527587890625,-0.011521738953888416,-0.0230918787419796,0.0034567080438137054
1772536359569575400,5.049575439453125,-0.010666596703231335,-0.016758615151047707,0.007343591190874577
1772536359579623700,5.059623779296875,-0.010069523938000202,-0.010082805529236794,0.009291982278227806
1772536359589672400,5.06967236328125,-0.01233880314975977,-0.003744748653843999,0.013604172505438328
1772536359599720400,5.079720458984375,-0.012386235408484936,-0.004193564876914024,0.014004248194396496
1772536359609768700,5.089768798828125,-0.010073280893266201,-0.003635898930951953,0.01803440786898136
1772536359619816400,5.09981640625,-0.010319415479898453,0.0017217332497239113,0.02413962222635746
1772536359629865700,5.10986572265625,-0.01193222589790821,0.0005952166393399239,0.023608854040503502
1772536359639913500,5.11991357421875,-0.009815718047320843,-0.020371992141008377,0.013302148319780827
1772536359649961500,5.12996142578125,-0.003017732873558998,-0.012225648388266563,0.011858448386192322
1772536359660009700,5.140009765625,-0.0043245116248726845,-0.005486479960381985,0.003306123660877347
1772536359670058500,5.15005859375,-0.008794361725449562,-0.0076327212154865265,-0.003991470206528902
1772536359680106800,5.160106689453125,-0.007321751676499844,-0.007981025613844395,-0.011075912043452263
1772536359690154500,5.170154541015625,-0.009847226552665234,-0.010011686012148857,-0.011788574047386646
1772536359700202500,5.180202392578125,-0.007179420441389084,-0.009554725140333176,-0.008180356584489346
1772536359710250500,5.19025048828125,-0.011359252035617828,0.0002856557257473469,-0.00839234422892332
1772536359720299500,5.200299560546875,-0.01344791054725647,0.00546242343261838,-0.00747160566970706
1772536359730347500,5.210347412109375,-0.014226619154214859,0.0061133005656301975,-0.006582109723240137
1772536359740395500,5.2203955078125,-0.014730637893080711,0.006694091949611902,-0.00734899565577507
1772536359750443800,5.23044384765625,-0.018549079075455666,0.0025539412163197994,-0.009436913765966892
1772536359760492500,5.240492431640625,-0.016557348892092705,-0.0009900988079607487,-0.010367466136813164
1772536359770540500,5.25054052734375,-0.012383643537759781,-0.004263656213879585,-0.012195460498332977
1772536359780588500,5.260588623046875,-0.011092964559793472,-0.002683072816580534,-0.010298275388777256
1772536359790636500,5.270636474609375,-0.006027366034686565,-0.00008249608799815178,-0.001458444632589817
1772536359800684800,5.280684814453125,-0.008418434299528599,0.001021193340420723,0.00031733489595353603
1772536359810733600,5.290733642578125,-0.011242982931435108,0.0038494709879159927,0.005060425028204918
1772536359820781600,5.300781494140625,-0.006250313483178616,-0.000039832666516304016,0.006456050090491772
1772536359830829600,5.31082958984375,-0.004979719407856464,-0.0057714879512786865,0.0011435758788138628
1772536359840877600,5.320877685546875,-0.001638122834265232,-0.007967098616063595,-0.0005713552236557007
1772536359850926600,5.330926513671875,0.006538313813507557,-0.008154318667948246,-0.0007657659007236362
1772536359860974600,5.340974609375,0.010281664319336414,0.0007216655649244785,0.0018486364278942347
1772536359871022600,5.351022705078125,0.013226587325334549,0.01352774165570736,0.0071296850219368935
1772536359881070600,5.361070556640625,0.01830138824880123,0.012399663217365742,0.010746623389422894
1772536359891118600,5.37111865234375,0.018516838550567627,0.012404724024236202,0.016013823449611664
1772536359901167600,5.381167724609375,0.0190450306981802,0.012425356544554234,0.016136322170495987
1772536359911215600,5.391215576171875,0.019793912768363953,0.007182924076914787,0.00968801137059927
1772536359921263600,5.401263671875,0.01463183481246233,-0.003292074892669916,0.004577099811285734
1772536359931311600,5.4113115234375,0.010513256303966045,-0.010543063282966614,-0.0037673828192055225
1772536359941360400,5.4213603515625,0.005557853728532791,-0.009066250175237656,-0.004427419509738684
1772536359951408600,5.43140869140625,0.00019371509552001953,-0.006305884104222059,-0.008022153750061989
1772536359961456600,5.44145654296875,-0.006293086335062981,-0.006563983391970396,-0.009492052718997002
1772536359971504600,5.451504638671875,-0.011530458927154541,-0.005961576476693153,-0.006120490841567516
1772536359981553700,5.4615537109375,-0.013473626226186752,-0.0044039166532456875,-0.004102270118892193
1772536359991601400,5.471601318359375,-0.013960719108581543,0.003177570179104805,-0.0018319252412766218
1772536360001649700,5.481649658203125,-0.007786576636135578,0.0024320781230926514,-0.0010011668782681227
1772536360011697400,5.491697509765625,-0.004331924952566624,-0.0002539856359362602,0.0012675800826400518
1772536360021745700,5.50174560546875,-0.0009950622916221619,0.0033210869878530502,-0.0048321145586669445
1772536360031794400,5.51179443359375,-0.0028773844242095947,-0.0008851098828017712,-0.008454812690615654
1772536360041843000,5.521843017578125,-0.006918351165950298,-0.007287056650966406,-0.017570091411471367
1772536360051891000,5.531890869140625,-0.004898343235254288,-0.01688535511493683,-0.02162315510213375
1772536360061938700,5.541938720703125,-0.003004949539899826,-0.018602587282657623,-0.021169543266296387
1772536360071988000,5.551988037109375,-0.002227572724223137,-0.012712208554148674,-0.018863245844841003
1772536360082035700,5.56203564453125,-0.0035768933594226837,-0.006680057849735022,-0.013207810930907726
1772536360092084000,5.572083984375,-0.000902014784514904,-0.006350358482450247,-0.005236170720309019
1772536360102132000,5.582132080078125,-0.0004549883306026459,-0.0031934105791151524,-0.00021867593750357628
1772536360112181000,5.592180908203125,-0.0013399571180343628,0.0019275816157460213,0.010138091631233692
1772536360122228700,5.602228759765625,0.00435913959518075,0.0012438972480595112,0.006768598221242428
1772536360132276700,5.61227685546875,0.005904305726289749,-0.004662727005779743,0.004384004510939121
1772536360142325000,5.622324951171875,0.006736809853464365,-0.009318199008703232,0.005555795505642891
1772536360152372700,5.632372802734375,0.008617800660431385,-0.010140050202608109,-0.0006951764225959778
1772536360162422000,5.642422119140625,0.007078749127686024,-0.01659868285059929,0.0030061076395213604
1772536360172469800,5.6524697265625,0.001740975771099329,-0.01529027335345745,0.001781319733709097
1772536360182517800,5.662517822265625,0.00034644827246665955,-0.0206394474953413,0.0034572570584714413
1772536360192566000,5.67256591796875,-0.0005017686635255814,-0.021254904568195343,0.004964606370776892
1772536360202614800,5.68261474609375,-0.0008922293782234192,-0.01439049281179905,0.011553400196135044
1772536360212663000,5.6926630859375,0.0010787760838866234,-0.005443602800369263,0.013172335922718048
1772536360222710800,5.702710693359375,-0.00004598032683134079,-0.006576601881533861,0.011953994631767273
1772536360232758800,5.7127587890625,-0.0027565453201532364,-0.0054388996213674545,0.015657387673854828
1772536360242806800,5.722806884765625,-0.0011573424562811852,0.0016338489949703217,0.017798103392124176
1772536360252855800,5.732855712890625,-0.002196773886680603,0.005519401282072067,0.016719790175557137
1772536360262903800,5.74290380859375,-0.001801157370209694,0.005357847549021244,0.015010161325335503
1772536360272951800,5.752951904296875,-0.0015638694167137146,0.0065946197137236595,0.013397617265582085
1772536360282999800,5.762999755859375,-0.0016320114955306053,-0.003808064619079232,0.0064157405868172646
1772536360293048800,5.773048828125,-0.0023635821416974068,-0.012838045135140419,-0.0038909590803086758
1772536360303096800,5.783096923828125,-0.0026514697819948196,-0.018477197736501694,-0.012395501136779785
1772536360313144800,5.793144775390625,-0.007962345145642757,-0.0168854258954525,-0.0154038080945611
1772536360323192800,5.80319287109375,-0.006377441808581352,-0.017344409599900246,-0.012980999425053596
1772536360333240800,5.81324072265625,-0.004528142511844635,-0.010084099136292934,-0.008142035454511642
1772536360343289900,5.823289794921875,-0.006213000975549221,-0.008912612684071064,-0.00038700993172824383
1772536360353337900,5.833337890625,-0.002072318457067013,-0.0032041268423199654,0.0034218430519104004
1772536360363385900,5.8433857421875,0.0012045777402818203,0.0020255609415471554,0.009260124526917934
1772536360373433900,5.853433837890625,-0.0006734831258654594,0.006703136954456568,0.008828425779938698
1772536360383483000,5.86348291015625,-0.004404070787131786,-0.0006322851404547691,0.0052830493077635765
1772536360393531000,5.87353076171875,-0.0052789198234677315,-0.008479556068778038,0.0009389007464051247
1772536360403579000,5.883578857421875,-0.003397892229259014,-0.013179287314414978,-0.0012202358338981867
1772536360413627000,5.893626953125,-0.0009507136419415474,-0.009111043065786362,0.0032725168857723475
1772536360423675600,5.903675537109375,0.0031417296268045902,-0.0005121766589581966,0.008854348212480545
1772536360433724000,5.913723876953125,0.003699928056448698,0.004728391300886869,0.012579311616718769
1772536360443772000,5.92377197265625,0.005566623993217945,-0.00012183515354990959,0.012497568503022194
1772536360453819600,5.933819580078125,0.006192999891936779,-0.008766988292336464,0.012567343190312386
1772536360463868000,5.943867919921875,0.0028102449141442776,-0.013128649443387985,0.012061897665262222
1772536360473916700,5.953916748046875,-0.0005498649552464485,-0.012254866771399975,0.012890140525996685
1772536360483965000,5.96396484375,-0.0006467839702963829,-0.009793497622013092,0.016360972076654434
1772536360494013000,5.974012939453125,-0.0026060715317726135,-0.004703930579125881,0.01646137237548828
1772536360504060700,5.984060791015625,0.0016093049198389053,0.0065028793178498745,0.020076246932148933
1772536360514110000,5.99410986328125,0.004507090430706739,0.0035965717397630215,0.01945706270635128
1772536360524157700,6.00415771484375,0.00838751345872879,0.0023389761336147785,0.020973406732082367
1772536360534206000,6.0142060546875,0.002557853702455759,0.00559975067153573,0.015978381037712097
1772536360544254000,6.02425390625,0.0020584245212376118,-0.008014250546693802,0.006052230950444937
1772536360554301700,6.0343017578125,-0.005404018796980381,-0.014126738533377647,0.006696183700114489
1772536360564350700,6.044350830078125,-0.0046923281624913216,-0.011952408589422703,0.002975740935653448
1772536360574398700,6.054398681640625,-0.006950688548386097,-0.008974994532763958,0.004647140856832266
1772536360584447000,6.064447021484375,-0.007102849893271923,0.0005097286775708199,0.008325506001710892
1772536360594494700,6.07449462890625,-0.015092067420482635,-0.0004125237464904785,0.010274672880768776
1772536360604544000,6.0845439453125,-0.019038662314414978,-0.009717723354697227,0.003648378187790513
1772536360614591700,6.094591796875,-0.01912548393011093,-0.0052601248025894165,0.0019711193162947893
1772536360624639700,6.1046396484375,-0.01993619091808796,-0.005126206204295158,-0.0010818124283105135
1772536360634688000,6.11468798828125,-0.018946560099720955,-0.006699601653963327,-0.007361279800534248
1772536360644735700,6.12473583984375,-0.012943624518811703,-0.0019059744663536549,-0.004334302619099617
1772536360654785000,6.134784912109375,-0.00805193092674017,-0.002856722567230463,-0.00570290070027113
1772536360664832800,6.144832763671875,-0.001582365483045578,0.004543224349617958,-0.004481681622564793
1772536360674880800,6.154880859375,-0.0006116433069109917,0.016674188897013664,-0.006687844172120094
1772536360684928800,6.1649287109375,-0.0038744714111089706,0.0072338031604886055,-0.017058953642845154
1772536360694977800,6.174977783203125,-0.00561537966132164,-0.008277778513729572,-0.02335253730416298
1772536360705025800,6.18502587890625,-0.007412350736558437,-0.019665557891130447,-0.026828881353139877
1772536360715073800,6.19507373046875,-0.004833345301449299,-0.012150116264820099,-0.02281283400952816
1772536360725121800,6.205121826171875,-0.0063285818323493,-0.0018328651785850525,-0.015648253262043
1772536360735170800,6.2151708984375,-0.0034313295036554337,0.004261779133230448,-0.008358649909496307
1772536360745218800,6.22521875,-0.007071659900248051,0.00892932340502739,0.0025884343776851892
1772536360755266800,6.235266845703125,-0.006909739226102829,0.020626459270715714,0.011626670137047768
1772536360765314800,6.245314697265625,-0.005886763334274292,0.0203829575330019,0.014407915063202381
1772536360775362800,6.25536279296875,-0.0038505103439092636,0.007300445344299078,0.007164383307099342
1772536360785411800,6.265411865234375,-0.0020058155059814453,-0.0067258779890835285,0.005515315569937229
1772536360795459800,6.2754599609375,-0.00038208626210689545,-0.0011047441512346268,0.005484422668814659
1772536360805507800,6.2855078125,-0.002477366477251053,0.005544639192521572,0.008447671309113503
1772536360815555800,6.295555908203125,-0.0017484594136476517,0.005206150934100151,0.017790839076042175
1772536360825604900,6.30560498046875,-0.002414001151919365,0.0026343208737671375,0.017474543303251266
1772536360835652900,6.31565283203125,-0.0057637253776192665,0.0009048641659319401,0.013993793167173862
1772536360845700900,6.325700927734375,-0.004666161723434925,-0.005754382349550724,0.002847437746822834
1772536360855748900,6.335748779296875,-0.00334043987095356,0.0025360379368066788,0.007741262670606375
1772536360865796900,6.345796875,-0.005875697359442711,0.0139498021453619,0.008158884942531586
1772536360875846000,6.355845947265625,-0.003536377102136612,0.007895637303590775,0.004805965349078178
1772536360885894000,6.365893798828125,0.002204019110649824,0.0005017542280256748,0.001980752218514681
1772536360895941600,6.375941650390625,0.005389958620071411,-0.0013219788670539856,0.007788040675222874
1772536360905990000,6.385989990234375,0.00891675241291523,0.006787570659071207,0.011161316186189651
1772536360916038700,6.39603857421875,0.01318606548011303,0.01780320331454277,0.019909799098968506
1772536360926087000,6.4060869140625,0.00976194255053997,0.017531171441078186,0.02007332444190979
1772536360936135000,6.416135009765625,0.008221836760640144,0.009405868127942085,0.01529374998062849
1772536360946182700,6.4261826171875,0.007580451667308807,-0.0057641854509711266,0.005929841659963131
1772536360956232000,6.43623193359375,0.0067633939906954765,-0.0088859423995018,0.004225950688123703
1772536360966279700,6.44627978515625,0.0034133819863200188,0.0001588757149875164,0.007345911115407944
1772536360976328000,6.456327880859375,-0.002272733487188816,-0.0002749534323811531,0.008167496882379055
1772536360986376000,6.4663759765625,-0.003986252471804619,-0.0013378593139350414,0.007086901925504208
1772536360996423700,6.476423583984375,-0.003758552484214306,-0.0003796541132032871,0.008689059875905514
1772536361006472700,6.48647265625,-0.003360223025083542,0.007420021574944258,0.009705038741230965
1772536361016520700,6.496520751953125,-0.005338951013982296,0.006528394762426615,0.003813061397522688
1772536361026569000,6.50656884765625,-0.006847374141216278,0.007604110054671764,0.005351591855287552
1772536361036617500,6.516617431640625,-0.005971194244921207,0.01034157257527113,0.012003369629383087
1772536361046666500,6.52666650390625,-0.007518267259001732,0.011659800074994564,0.013254106044769287
1772536361056714500,6.536714599609375,-0.0007871277630329132,0.008307945914566517,0.013402443379163742
1772536361066762500,6.546762451171875,0.0013425080105662346,0.005895590875297785,0.013107926584780216
1772536361076810200,6.556810302734375,0.001490047201514244,0.0065070525743067265,0.013857606798410416
1772536361086858500,6.5668583984375,0.00040841661393642426,0.002013272140175104,0.013771153055131435
1772536361096907300,6.5769072265625,0.0014015091583132744,-0.005348770879209042,0.008514073677361012
1772536361106955500,6.58695556640625,-0.0009797513484954834,-0.006463468540459871,0.009258815087378025
1772536361117003500,6.59700341796875,0.000052755698561668396,-0.004109234549105167,0.010667627677321434
1772536361127051300,6.60705126953125,-0.0027536414563655853,0.000031425151973962784,0.012429436668753624
1772536361137100500,6.6171005859375,-0.0004944819957017899,0.0017076190561056137,0.01734083890914917
1772536361147148300,6.627148193359375,-0.002630012109875679,0.0006395396776497364,0.018062638118863106
1772536361157196500,6.637196533203125,-0.0022656917572021484,-0.0033844965510070324,0.014103316701948643
1772536361167244500,6.64724462890625,-0.004125677049160004,0.002759109251201153,0.015636082738637924
1772536361177292300,6.657292236328125,-0.0026968903839588165,0.003590814769268036,0.015338340774178505
1772536361187341600,6.667341552734375,-0.004618292674422264,-0.011958533897995949,0.010081587359309196
1772536361197389300,6.677389404296875,-0.0037373192608356476,-0.01254043448716402,0.006340112537145615
1772536361207437600,6.6874375,-0.0019891168922185898,0.0036801709793508053,0.016391094774007797
1772536361217485300,6.6974853515625,-0.00301443412899971,0.016991715878248215,0.022974427789449692
1772536361227534600,6.70753466796875,-0.0012901192530989647,0.00935778021812439,0.02244948036968708
1772536361237582300,6.717582275390625,-0.0006371121853590012,0.003778457175940275,0.020539727061986923
1772536361247630300,6.72763037109375,-0.0005444791167974472,0.004754591733217239,0.010659560561180115
1772536361257678600,6.7376787109375,-0.00022143777459859848,-0.0006303200498223305,0.007414765655994415
1772536361267726300,6.747726318359375,0.0017560869455337524,-0.010208746418356895,0.003665977856144309
1772536361277775600,6.757775634765625,0.0021864534355700016,-0.009971991181373596,0.003420700551941991
1772536361287823400,6.7678232421875,0.0065175979398190975,0.0025490415282547474,0.005093005485832691
1772536361297871400,6.777871337890625,0.0013795611448585987,0.005968274082988501,0.007199566345661879
1772536361307919600,6.787919677734375,-0.000067172572016716,0.009240470826625824,0.005331435240805149
1772536361317968400,6.797968505859375,-0.000019235536456108093,0.0032478254288434982,0.00532317953184247
1772536361328016600,6.8080166015625,-0.00267577450722456,-0.006852550432085991,0.0002613768447190523
1772536361338064400,6.818064453125,-0.001822497695684433,-0.01123771071434021,-0.004743767902255058
1772536361348112400,6.8281123046875,-0.0057994043454527855,-0.006859645713120699,0.0006673131138086319
1772536361358161400,6.838161376953125,-0.0010145027190446854,0.0018294500187039375,0.005798425525426865
1772536361368209400,6.84820947265625,-0.0016836943104863167,0.0038152174092829227,0.009899776428937912
1772536361378257400,6.85825732421875,0.0009565642103552818,0.005361448507755995,0.009558625519275665
1772536361388305400,6.868305419921875,0.001877297181636095,-0.00120251951739192,0.010033483617007732
1772536361398353400,6.878353515625,0.00504992064088583,0.0028750458732247353,0.006762322969734669
1772536361408402400,6.88840234375,0.003632856532931328,0.00538208382204175,0.0015403747092932463
1772536361418450400,6.898450439453125,0.00680468138307333,0.0004347297362983227,-0.00105514214374125
1772536361428498400,6.90849853515625,0.010859471745789051,0.0030283420346677303,-0.0037671388126909733
1772536361438546400,6.91854638671875,0.007120925933122635,0.000548939686268568,-0.006475840229541063
1772536361448595500,6.928595458984375,0.002491205930709839,-0.003213765099644661,-0.002312802942469716
1772536361458643500,6.9386435546875,-0.0011426778510212898,-0.006401835009455681,-0.003734398167580366
1772536361468691500,6.94869140625,-0.0022938810288906097,-0.008982780389487743,0.002305401023477316
1772536361478739500,6.958739501953125,-0.0025388915091753006,-0.008143618702888489,0.007710020057857037
1772536361488787500,6.968787353515625,-0.0016021272167563438,-0.00009831041097640991,0.01371346227824688
1772536361498836500,6.97883642578125,-0.0002689491957426071,0.0016303476877510548,0.017228834331035614
1772536361508884500,6.988884521484375,0.0017216210253536701,0.004689482506364584,0.01671447977423668
1772536361518932200,6.99893212890625,0.007764866575598717,0.004328890237957239,0.016732588410377502
1772536361528980500,7.00898046875,0.010475355200469494,0.005035173613578081,0.019598644226789474
1772536361539029200,7.019029296875,0.014175817370414734,0.01223662681877613,0.01544810738414526
1772536361549077500,7.029077392578125,0.01726064831018448,0.011378917843103409,0.009311331436038017
1772536361559125500,7.03912548828125,0.01949876919388771,0.005743935704231262,0.0034449193626642227
1772536361569173500,7.049173583984375,0.02104845456779003,-0.0007804478518664837,-0.0016925139352679253
1772536361579221500,7.059221435546875,0.01887025684118271,-0.004075310658663511,-0.005215875804424286
1772536361589270300,7.069270263671875,0.0168677419424057,-0.0009438889101147652,-0.0058747585862874985
1772536361599318500,7.079318603515625,0.016776127740740776,-0.0018357816152274609,-0.0031703184358775616
1772536361609366500,7.089366455078125,0.013752838596701622,0.00135410251095891,-0.0026236323174089193
1772536361619414500,7.09941455078125,0.01157490536570549,0.0014939182437956333,0.004214033484458923
1772536361629463600,7.109463623046875,0.008997179567813873,0.005563848186284304,0.004996098577976227
1772536361639511300,7.11951123046875,0.008563617244362831,0.0022852313704788685,0.006911976262927055
1772536361649559600,7.1295595703125,0.00914890319108963,0.003689795732498169,0.010311196558177471
1772536361659607300,7.139607177734375,0.008382977917790413,0.012308050878345966,0.010482970625162125
1772536361669655600,7.149655517578125,0.005742719396948814,0.011375145055353642,0.007081847637891769
1772536361679704300,7.159704345703125,0.010945204645395279,0.006087172776460648,0.004172343760728836
1772536361689752300,7.16975244140625,0.007177651394158602,0.009988512843847275,0.00010030367411673069
1772536361699800600,7.179800537109375,0.009591007605195045,0.005673660431057215,-0.007673996035009623
1772536361709848300,7.189848388671875,0.007603994570672512,-0.009615292772650719,-0.013773078098893166
1772536361719897600,7.199897705078125,0.009949440136551857,-0.021327076479792595,-0.012215394526720047
1772536361729945300,7.2099453125,0.010703044943511486,-0.009459814056754112,-0.007866513915359974
1772536361739993600,7.21999365234375,0.008639894425868988,0.001895371824502945,0.0034447303041815758
1772536361750041600,7.23004150390625,0.012794246897101402,0.003623326774686575,0.01217744778841734
1772536361760090400,7.24009033203125,0.016063010320067406,0.0020914762280881405,0.022484946995973587
1772536361770138600,7.250138671875,0.016450945287942886,0.007152717560529709,0.02611915022134781
1772536361780186400,7.260186279296875,0.016490893438458443,-0.0020855218172073364,0.026760440319776535
1772536361790234600,7.270234619140625,0.017637155950069427,0.003454006277024746,0.03408186882734299
1772536361800282400,7.280282470703125,0.015713820233941078,0.0043232617899775505,0.03548455238342285
1772536361810331400,7.290331298828125,0.012736491858959198,0.0006796522065997124,0.037291962653398514
1772536361820379400,7.30037939453125,0.010721278376877308,0.0013803299516439438,0.038921549916267395
1772536361830427400,7.310427490234375,0.009861555881798267,0.002976931631565094,0.03242770582437515
1772536361840475600,7.3204755859375,0.007713983301073313,-0.001334726344794035,0.025750096887350082
1772536361850524400,7.3305244140625,0.004470902029424906,-0.00787415448576212,0.02308390662074089
1772536361860572400,7.340572509765625,-0.001137981191277504,0.0005427668802440166,0.016720550134778023
1772536361870620400,7.350620361328125,-0.007156739942729473,0.0009263269603252411,0.014260610565543175
1772536361880668400,7.36066845703125,-0.008747712709009647,-0.004731558263301849,0.009522846899926662
1772536361890716700,7.370716552734375,-0.0074973441660404205,0.00003383634611964226,0.010745481587946415
1772536361900765400,7.380765380859375,-0.006308509036898613,0.002824829425662756,0.008065542206168175
1772536361910813700,7.390813720703125,0.000185440294444561,0.005253664217889309,0.009260693565011024
1772536361920861400,7.400861328125,-0.0014380235224962234,0.009156526997685432,0.009077467024326324
1772536361930909400,7.410909423828125,-0.007003482431173325,0.01128009706735611,0.005017503164708614
1772536361940958500,7.42095849609375,-0.006494552828371525,0.0047478945925831795,-0.003006068291142583
1772536361951006500,7.43100634765625,-0.008880197070538998,-0.0022304835729300976,-0.009100250899791718
1772536361961054500,7.441054443359375,-0.009572886861860752,-0.003941831178963184,-0.014615124091506004
1772536361971102500,7.4511025390625,-0.00845050998032093,-0.007556607015430927,-0.015632525086402893
1772536361981150500,7.461150390625,-0.007583916187286377,-0.0016795429401099682,-0.009900870732963085
1772536361991199500,7.471199462890625,-0.007835251279175282,0.006776310503482819,-0.002066322136670351
1772536362001247500,7.48124755859375,-0.006355333141982555,0.011906091123819351,0.00037659541703760624
1772536362011295500,7.49129541015625,-0.0035752765834331512,0.016473868861794472,0.0028483422938734293
1772536362021343500,7.501343505859375,-0.0006948020309209824,0.016031518578529358,0.002916252939030528
1772536362031392500,7.511392578125,0.000704681035131216,0.0071038673631846905,-0.002551460638642311
1772536362041440300,7.521440185546875,0.0021976493299007416,-0.002431847620755434,-0.0102176358923316
1772536362051488300,7.53148828125,0.0006280858069658279,-0.005375676788389683,-0.01137299183756113
1772536362061536300,7.541536376953125,0.00034499261528253555,-0.005189255811274052,-0.0074469600804150105
1772536362071584300,7.551584228515625,-0.0016230139881372452,-0.005885089281946421,-0.002228701254352927
1772536362081633000,7.561633056640625,-0.004828128032386303,0.0012228875420987606,0.006328833755105734
1772536362091681300,7.571681396484375,-0.008583301678299904,-0.006496934220194817,0.008891601115465164
1772536362101729300,7.581729248046875,-0.003287605009973049,-0.019546691328287125,0.0022147903218865395
1772536362111777300,7.59177734375,0.0022949441336095333,-0.003017616458237171,0.0032893780153244734
1772536362121826000,7.601825927734375,-0.004278270527720451,0.0034490711987018585,0.0006435276009142399
1772536362131874300,7.611874267578125,-0.0044378479942679405,-0.0004731141962110996,0.001981634646654129
1772536362141922300,7.62192236328125,0.000590999610722065,0.0009482153691351414,0.004170486703515053
1772536362151970000,7.631969970703125,0.0025145821273326874,0.003048277460038662,0.007192468270659447
1772536362162018300,7.642018310546875,0.0043327221646904945,0.010722176171839237,0.010222612880170345
1772536362172067000,7.652067138671875,0.0084834024310112,0.011994641274213791,0.015573486685752869
1772536362182115300,7.662115234375,0.00993269495666027,0.011818606406450272,0.014191573485732079
1772536362192163300,7.672163330078125,0.008096934296190739,0.012462910264730453,0.00809868797659874
1772536362202211000,7.682211181640625,0.00754858972504735,0.003147971350699663,0.003423508023843169
1772536362212260400,7.69226025390625,0.005900200456380844,-0.001245181541889906,-0.0011001882376149297
1772536362222308000,7.70230810546875,0.0025890921242535114,-0.006103852763772011,-0.0032951654866337776
1772536362232356400,7.7123564453125,0.005113800056278706,-0.004231813829392195,-0.005305679515004158
1772536362242404000,7.722404052734375,0.0003608567640185356,0.0034359595738351345,-0.0010648616589605808
1772536362252452000,7.7324521484375,-0.0026444057002663612,0.0056692506186664104,0.0034443032927811146
1772536362262501000,7.742501220703125,-0.006736353039741516,0.011455236002802849,0.00767260417342186
1772536362272549000,7.752549072265625,-0.013089283369481564,0.013563400134444237,0.007747082971036434
1772536362282597400,7.762597412109375,-0.02068408578634262,0.01015082560479641,0.008448027074337006
1772536362292645000,7.77264501953125,-0.02000359632074833,0.0033269207924604416,0.006747970823198557
1772536362302694400,7.7826943359375,-0.018482664600014687,-0.0025978130288422108,0.005402009002864361
1772536362312742100,7.7927421875,-0.015665236860513687,0.0001343744806945324,0.009350206702947617
1772536362322790100,7.8027900390625,-0.013740836642682552,0.007400276605039835,0.016123956069350243
1772536362332838400,7.81283837890625,-0.012326560914516449,0.008457918651401997,0.015321933664381504
1772536362342886100,7.82288623046875,-0.01269141398370266,0.003939599730074406,0.014494757167994976
1772536362352935400,7.832935302734375,-0.010274572297930717,-0.008054967038333416,0.010722273960709572
1772536362362983200,7.842983154296875,-0.00782712735235691,-0.0032378416508436203,0.00675256596878171
1772536362373031200,7.85303125,-0.00653751939535141,-0.0078412601724267,0.003459294093772769
1772536362383079200,7.8630791015625,-0.0015949588268995285,-0.003568484680727124,0.007314486429095268
1772536362393128200,7.873128173828125,-0.0008994787931442261,0.002189168706536293,0.01229154597967863
1772536362403176200,7.88317626953125,0.0021668849512934685,-0.0030311597511172295,0.01641331985592842
1772536362413224200,7.89322412109375,0.0017084740102291107,-0.0036732335574924946,0.013497120700776577
1772536362423272200,7.903272216796875,-0.002407974563539028,-0.006551045458763838,0.010702664963901043
1772536362433320200,7.9133203125,0.0024911081418395042,-0.0029531652107834816,0.014683764427900314
1772536362443369200,7.923369140625,-0.0010125469416379929,0.0033279000781476498,0.01730271615087986
1772536362453417200,7.933417236328125,-0.0008687246590852737,0.005502839107066393,0.015698406845331192
1772536362463465200,7.94346533203125,-0.0012050820514559746,-0.00009352806955575943,0.018828419968485832
1772536362473513200,7.95351318359375,0.00023305509239435196,0.002244441770017147,0.017106814309954643
1772536362483562200,7.963562255859375,-0.0030849771574139595,0.004326767288148403,0.013749632984399796
1772536362493610200,7.9736103515625,-0.0030516237020492554,0.0045098718255758286,0.012331897392868996
1772536362503658200,7.983658203125,-0.0018926160410046577,-0.0032431231811642647,0.005115796346217394
1772536362513706200,7.993706298828125,-0.004821889102458954,-0.01032271794974804,-0.0019917311146855354
1772536362523755300,8.00375537109375,0.001296723261475563,-0.00676127290353179,-0.0002862426917999983
1772536362533803300,8.01380322265625,0.002540909219533205,0.0046980963088572025,0.0018095108680427074
1772536362543851300,8.023851318359375,0.00485839182510972,0.008305881172418594,-0.0009623072110116482
1772536362553899300,8.033899169921876,0.008716962300240993,0.001000579446554184,-0.003257191739976406
1772536362563947300,8.043947265625,0.0016755643300712109,0.003597427159547806,-0.010214433073997498
1772536362573996300,8.053996337890625,-0.0027470216155052185,-0.004878981038928032,-0.011800467036664486
1772536362584044300,8.064044189453124,-0.004420019686222076,-0.013995780609548092,-0.018677281215786934
1772536362594092000,8.074092041015625,-0.0059656547382473946,-0.016750942915678024,-0.019186614081263542
1772536362604140300,8.084140380859376,-0.0067528849467635155,-0.011074148118495941,-0.016902953386306763
1772536362614189000,8.09418896484375,-0.007232208736240864,-0.004496963694691658,-0.010603383183479309
1772536362624237300,8.1042373046875,-0.008088150061666965,0.004236873239278793,-0.004575851373374462
1772536362634285300,8.114285400390624,-0.005012120120227337,0.010597553104162216,0.0006178838666528463
1772536362644333000,8.1243330078125,-0.0012080604210495949,0.008293919265270233,0.006529835052788258
1772536362654381300,8.13438134765625,-0.00029571540653705597,-0.004391694441437721,0.002960560843348503
1772536362664430000,8.14443017578125,0.00967169739305973,0.00274690892547369,0.004751536995172501
1772536362674478300,8.154478271484376,0.012085827998816967,0.0022746557369828224,-0.0007337086135521531
1772536362684526000,8.164526123046874,0.01363365724682808,-0.0020250175148248672,0.001186430687084794
1772536362694574000,8.174573974609375,0.010759030468761921,-0.00135383615270257,0.0013782004825770855
1772536362704623000,8.184623046875,0.00862104445695877,-0.006178152747452259,-0.00019066780805587769
1772536362714671000,8.194671142578125,0.008588762022554874,-0.011476360261440277,-0.00010180147364735603
1772536362724719400,8.20471923828125,0.007242533843964338,-0.016392555087804794,0.0018383115530014038
1772536362734767000,8.21476708984375,0.006316135637462139,-0.011611152440309525,-0.0005498445825651288
1772536362744815000,8.224815185546875,0.008605655282735825,-0.019502097740769386,0.0035351780243217945
1772536362754864000,8.234864013671874,0.009785954840481281,-0.013117103837430477,0.0081842802464962
1772536362764912000,8.244912109375,0.007200558204203844,0.00047087669372558594,0.010297765955328941
1772536362774960400,8.25496044921875,0.008368338458240032,0.00023987283930182457,0.017115019261837006
1772536362785008000,8.265008056640625,0.00835955049842596,-0.010616237297654152,0.014440405182540417
1772536362795057400,8.275057373046875,0.013759555295109749,-0.022285066545009613,0.0003024665638804436
1772536362805105200,8.285105224609374,0.019323164597153664,-0.011261709034442902,-0.0017391128931194544
1772536362815153200,8.295153076171875,0.013911737129092216,-0.006331968121230602,-0.006327572278678417
1772536362825201200,8.305201171875,0.01368749886751175,-0.005151121877133846,-0.009032012894749641
1772536362835249200,8.315249267578125,0.013551966287195683,-0.01040486991405487,-0.010670967400074005
1772536362845298200,8.325298095703126,0.012040888890624046,-0.004519816488027573,-0.004053011536598206
1772536362855346200,8.33534619140625,0.00728736212477088,-0.0020942138507962227,-0.0019154681358486414
1772536362865394200,8.345394287109375,0.00868818536400795,-0.0026140627451241016,0.001191641902551055
1772536362875442200,8.355442138671876,0.002946114633232355,0.0002658981829881668,0.0030658456962555647
1772536362885491200,8.3654912109375,-0.0031141750514507294,-0.003940564580261707,0.0056352633982896805
1772536362895539200,8.375539306640626,-0.006070146337151527,-0.000908873975276947,0.005668050143867731
1772536362905587200,8.385587158203125,-0.005018997006118298,0.0024200771003961563,0.0038160881958901882
1772536362915635200,8.39563525390625,-0.007759444415569305,0.009366283193230629,0.0052863359451293945
1772536362925683200,8.40568310546875,-0.0055753858759999275,-0.0008509336039423943,0.002320373198017478
1772536362935732200,8.415732177734375,-0.006640720181167126,0.005049516912549734,0.0017597172409296036
1772536362945780200,8.4257802734375,-0.0037964647635817528,0.00490330858156085,-0.000991594628430903
1772536362955828200,8.435828125,-0.006262494251132011,-0.007855361327528954,-0.008235217072069645
1772536362965876200,8.445876220703125,-0.0064065707847476006,-0.017960991710424423,-0.008995549753308296
1772536362975925200,8.45592529296875,-0.008957852609455585,-0.02611418627202511,-0.009885911829769611
1772536362985973000,8.465972900390625,-0.005033950321376324,-0.02510511502623558,0.0013504971284419298
1772536362996021200,8.476021240234376,-0.005856528878211975,-0.006732541136443615,0.014282532036304474
1772536363006069200,8.4860693359375,-0.0012431349605321884,0.0056237271055579185,0.02244565263390541
1772536363016117000,8.496116943359375,0.0014677117578685284,0.002015077043324709,0.028731755912303925
1772536363026166300,8.506166259765624,0.002428047824651003,-0.010027470998466015,0.02905692718923092
1772536363036214000,8.516214111328125,-0.0010827640071511269,-0.016781974583864212,0.027433397248387337
1772536363046262800,8.5262626953125,-0.00173230841755867,-0.013604290783405304,0.027010487392544746
1772536363056310500,8.536310546875,-0.0013941777870059013,-0.007884806953370571,0.031109608709812164
1772536363066359800,8.54635986328125,-0.0059452541172504425,0.0014019026421010494,0.03205556422472
1772536363076407600,8.556407470703125,-0.004723581485450268,0.004002198576927185,0.037884194403886795
1772536363086455800,8.566455810546875,-0.004900415427982807,0.010096576064825058,0.03405909612774849
1772536363096503800,8.57650390625,0.0013611586764454842,0.019608676433563232,0.026001332327723503
1772536363106551600,8.586551513671875,0.0016224146820604801,0.028599508106708527,0.018914394080638885
1772536363116600800,8.596600830078126,-0.0023216307163238525,0.03334801644086838,0.009346134960651398
1772536363126648600,8.606648681640625,-0.017734143882989883,0.018957892432808876,-0.010157259181141853
1772536363136696800,8.61669677734375,-0.01781344786286354,0.004339117556810379,-0.029330337420105934
1772536363146744800,8.626744873046874,-0.013797136023640633,0.002559327520430088,-0.04717458039522171
1772536363156793600,8.636793701171875,-0.008984963409602642,-0.008180546574294567,-0.06073487177491188
1772536363166841900,8.646841796875,0.004931117407977581,-0.010683385655283928,-0.04670693725347519
1772536363176889600,8.6568896484375,-0.0017573200166225433,-0.00570637546479702,-0.036224789917469025
1772536363186937900,8.666937744140625,-0.0036247288808226585,0.015104895457625389,-0.017027126625180244
1772536363196985600,8.676985595703124,-0.010359134525060654,0.030923787504434586,-0.006876234896481037
1772536363207035000,8.687034912109375,-0.016814103350043297,0.010287219658493996,-0.007612332701683044
1772536363217082600,8.69708251953125,-0.01982888951897621,-0.023521626368165016,-0.01959025301039219
1772536363227130600,8.707130615234375,-0.021215330809354782,-0.03363604471087456,-0.02207125350832939
1772536363237179000,8.717178955078126,-0.013319293968379498,-0.031240398064255714,-0.020330656319856644
1772536363247227600,8.7272275390625,-0.01327109057456255,-0.018482524901628494,-0.007580506149679422
1772536363257276000,8.73727587890625,-0.01009484101086855,-0.00851514097303152,0.0069937193766236305
1772536363267323600,8.74732373046875,-0.002198834903538227,-0.0011568269692361355,0.01791987195611
1772536363277371600,8.75737158203125,0.006677247118204832,0.007824396714568138,0.026162216439843178
1772536363287420000,8.767419921875,0.011922875419259071,0.012630604207515717,0.028953740373253822
1772536363297468700,8.77746875,0.01656043529510498,0.006261604372411966,0.020209722220897675
