time,seconds_elapsed,z,y,x
1772536702328284200,0.0502841796875,-0.9558563232421875,-0.274871826171875,-0.053314208984375
1772536702338333400,0.06033349609375,-0.962890625,-0.2779541015625,-0.0530853271484375
1772536702348381200,0.070381103515625,-0.9726104736328125,-0.2833709716796875,-0.0551910400390625
1772536702358430500,0.080430419921875,-0.9684906005859375,-0.2825164794921875,-0.0603179931640625
1772536702368479500,0.0904794921875,-0.9552459716796875,-0.275848388671875,-0.0638885498046875
1772536702378527500,0.100527587890625,-0.950408935546875,-0.26751708984375,-0.0615081787109375
1772536702388576300,0.110576171875,-0.94537353515625,-0.2603912353515625,-0.0622406005859375
1772536702398625300,0.120625244140625,-0.9380950927734375,-0.256988525390625,-0.0586395263671875
1772536702408673000,0.130673095703125,-0.93853759765625,-0.2571563720703125,-0.0558013916015625
1772536702418721800,0.1407216796875,-0.932037353515625,-0.2580718994140625,-0.06292724609375
1772536702428770000,0.15077001953125,-0.9196014404296875,-0.26171875,-0.0706787109375
1772536702438818800,0.16081884765625,-0.9111480712890625,-0.2659454345703125,-0.0753631591796875
1772536702448868000,0.1708681640625,-0.915191650390625,-0.274871826171875,-0.0710906982421875
1772536702458915800,0.180915771484375,-0.9250030517578125,-0.2936553955078125,-0.064849853515625
1772536702468965000,0.190965087890625,-0.9305419921875,-0.3133392333984375,-0.0592803955078125
1772536702479014000,0.201013916015625,-0.9378662109375,-0.3213043212890625,-0.054351806640625
1772536702489062100,0.211062255859375,-0.949676513671875,-0.32781982421875,-0.048858642578125
1772536702499111000,0.22111083984375,-0.9523162841796875,-0.3341217041015625,-0.0491790771484375
1772536702509159200,0.2311591796875,-0.946136474609375,-0.3349761962890625,-0.0541229248046875
1772536702519208000,0.2412080078125,-0.940155029296875,-0.333465576171875,-0.0605621337890625
1772536702529257000,0.251257080078125,-0.9353179931640625,-0.33197021484375,-0.0709991455078125
1772536702539305000,0.261304931640625,-0.92950439453125,-0.3316650390625,-0.080718994140625
1772536702549354000,0.27135400390625,-0.9251556396484375,-0.334747314453125,-0.0878143310546875
1772536702559403000,0.281403076171875,-0.9211273193359375,-0.337921142578125,-0.091644287109375
1772536702569451000,0.291450927734375,-0.92120361328125,-0.340576171875,-0.0928802490234375
1772536702579500000,0.3015,-0.9276275634765625,-0.3441162109375,-0.0927276611328125
1772536702589548000,0.311548095703125,-0.9300537109375,-0.3486480712890625,-0.09271240234375
1772536702599597000,0.32159716796875,-0.9286651611328125,-0.3546142578125,-0.0920257568359375
1772536702609646000,0.33164599609375,-0.9302978515625,-0.3571624755859375,-0.0880584716796875
1772536702619694000,0.341694091796875,-0.935028076171875,-0.360443115234375,-0.08544921875
1772536702629743000,0.3517431640625,-0.9430389404296875,-0.348663330078125,-0.0814971923828125
1772536702639791900,0.3617919921875,-0.9493408203125,-0.3438262939453125,-0.090240478515625
1772536702649840000,0.371840087890625,-0.9485015869140625,-0.3746185302734375,-0.1022796630859375
1772536702659889000,0.381888916015625,-0.957061767578125,-0.3601531982421875,-0.0996246337890625
1772536702669937000,0.39193701171875,-0.960235595703125,-0.3394012451171875,-0.0944671630859375
1772536702679986000,0.40198583984375,-0.9525909423828125,-0.3446197509765625,-0.09210205078125
1772536702690035200,0.41203515625,-0.9501495361328125,-0.35260009765625,-0.09063720703125
1772536702700083000,0.4220830078125,-0.95538330078125,-0.353759765625,-0.0869903564453125
1772536702710132000,0.432132080078125,-0.95947265625,-0.3577423095703125,-0.0798187255859375
1772536702720181000,0.442180908203125,-0.9600677490234375,-0.36572265625,-0.078338623046875
1772536702730229000,0.45222900390625,-0.961669921875,-0.3678436279296875,-0.0797882080078125
1772536702740278000,0.462278076171875,-0.9599151611328125,-0.3717193603515625,-0.0795135498046875
1772536702750327000,0.4723271484375,-0.96038818359375,-0.37750244140625,-0.0747833251953125
1772536702760375000,0.482375,-0.9725341796875,-0.382537841796875,-0.0709075927734375
1772536702770423800,0.492423828125,-0.9828948974609375,-0.3823699951171875,-0.0731964111328125
1772536702780472000,0.50247216796875,-0.9785919189453125,-0.3750762939453125,-0.0755767822265625
1772536702790520800,0.512520751953125,-0.9692230224609375,-0.3759765625,-0.0813751220703125
1772536702800570000,0.522570068359375,-0.9842376708984375,-0.38946533203125,-0.0913848876953125
1772536702810617900,0.532617919921875,-1.013946533203125,-0.40692138671875,-0.091461181640625
1772536702820667100,0.542667236328125,-1.014404296875,-0.4015655517578125,-0.07757568359375
1772536702830716000,0.5527158203125,-1.013031005859375,-0.379852294921875,-0.0762786865234375
1772536702840764200,0.56276416015625,-1.0226593017578125,-0.3592681884765625,-0.083221435546875
1772536702850813000,0.57281298828125,-1.0294647216796875,-0.34222412109375,-0.0888519287109375
1772536702860861200,0.582861083984375,-1.0242767333984375,-0.324615478515625,-0.0929412841796875
1772536702870910000,0.592909912109375,-1.0194091796875,-0.3066558837890625,-0.087738037109375
1772536702880959000,0.602958984375,-1.02069091796875,-0.2898406982421875,-0.0880584716796875
1772536702891007000,0.613007080078125,-1.020965576171875,-0.26617431640625,-0.0930633544921875
1772536702901056000,0.623055908203125,-1.0084228515625,-0.2499542236328125,-0.0912322998046875
1772536702911105000,0.63310498046875,-0.99176025390625,-0.24560546875,-0.0857086181640625
1772536702921153000,0.643153076171875,-0.9864044189453125,-0.245330810546875,-0.0741729736328125
1772536702931202000,0.6532021484375,-0.9896697998046875,-0.24609375,-0.0544281005859375
1772536702941251000,0.6632509765625,-0.9910888671875,-0.254791259765625,-0.0391082763671875
1772536702951299000,0.673299072265625,-0.9924774169921875,-0.26470947265625,-0.0315704345703125
1772536702961348000,0.68334814453125,-0.989471435546875,-0.2632904052734375,-0.0303192138671875
1772536702971396000,0.69339599609375,-0.9873504638671875,-0.2544097900390625,-0.0276947021484375
1772536702981445000,0.703445068359375,-0.9898834228515625,-0.253662109375,-0.021575927734375
1772536702991494000,0.713493896484375,-0.9832000732421875,-0.25787353515625,-0.0181732177734375
1772536703001542100,0.723542236328125,-0.9741668701171875,-0.2584991455078125,-0.017120361328125
1772536703011591000,0.7335908203125,-0.9713897705078125,-0.2589874267578125,-0.0147705078125
1772536703021640000,0.743639892578125,-0.9665679931640625,-0.2583770751953125,-0.007232666015625
1772536703031688000,0.75368798828125,-0.9623870849609375,-0.2599945068359375,-0.001983642578125
1772536703041737000,0.763737060546875,-0.960113525390625,-0.260955810546875,0.0055084228515625
1772536703051785000,0.773784912109375,-0.959869384765625,-0.2636871337890625,0.012115478515625
1772536703061834000,0.783833984375,-0.9595947265625,-0.2662811279296875,0.01739501953125
1772536703071883000,0.793883056640625,-0.9669952392578125,-0.2653350830078125,0.0282135009765625
1772536703081931000,0.803930908203125,-0.9745025634765625,-0.266754150390625,0.037567138671875
1772536703091980000,0.81397998046875,-0.977294921875,-0.269744873046875,0.0422515869140625
1772536703102029000,0.824029052734375,-0.9727020263671875,-0.269866943359375,0.038330078125
1772536703112077000,0.8340771484375,-0.966461181640625,-0.2650146484375,0.03033447265625
1772536703122126000,0.8441259765625,-0.963348388671875,-0.2571258544921875,0.021820068359375
1772536703132174800,0.8541748046875,-0.9563140869140625,-0.2517242431640625,0.0150604248046875
1772536703142223000,0.86422314453125,-0.9413909912109375,-0.2455902099609375,0.0097198486328125
1772536703152272000,0.87427197265625,-0.927215576171875,-0.2457733154296875,0.0024566650390625
1772536703162321200,0.884321044921875,-0.9190521240234375,-0.246002197265625,-0.0062103271484375
1772536703172369000,0.894368896484375,-0.90155029296875,-0.249969482421875,-0.0107269287109375
1772536703182418200,0.904418212890625,-0.882537841796875,-0.259735107421875,-0.01055908203125
1772536703192466000,0.9144658203125,-0.876220703125,-0.2688446044921875,-0.0029144287109375
1772536703202515000,0.924514892578125,-0.87847900390625,-0.2803955078125,0.008758544921875
1772536703212564000,0.93456396484375,-0.88092041015625,-0.29522705078125,0.0242919921875
1772536703222612000,0.944612060546875,-0.8809661865234375,-0.3032989501953125,0.0353546142578125
1772536703232661000,0.954660888671875,-0.8835296630859375,-0.3038177490234375,0.041015625
1772536703242710000,0.9647099609375,-0.8876190185546875,-0.302001953125,0.049041748046875
1772536703252758000,0.974758056640625,-0.8893585205078125,-0.303619384765625,0.0528717041015625
1772536703262806800,0.984806884765625,-0.8912811279296875,-0.30291748046875,0.054779052734375
1772536703272856000,0.99485595703125,-0.89215087890625,-0.3045806884765625,0.048919677734375
1772536703282903800,1.00490380859375,-0.892913818359375,-0.305145263671875,0.0419769287109375
1772536703292953000,1.014953125,-0.897857666015625,-0.30426025390625,0.0357818603515625
1772536703303002000,1.025002197265625,-0.9029388427734375,-0.30718994140625,0.0302581787109375
1772536703313050000,1.035050048828125,-0.904205322265625,-0.312713623046875,0.029296875
1772536703323099000,1.045098876953125,-0.9104766845703125,-0.315216064453125,0.0269012451171875
1772536703333147100,1.055147216796875,-0.9243316650390625,-0.3205413818359375,0.0229644775390625
1772536703343196000,1.06519580078125,-0.942352294921875,-0.3084564208984375,0.028045654296875
1772536703353245000,1.075244873046875,-0.94140625,-0.31866455078125,0.0157623291015625
1772536703363293000,1.08529296875,-0.917266845703125,-0.3712158203125,0.020294189453125
1772536703373342000,1.095342041015625,-0.9425506591796875,-0.3566741943359375,0.0315399169921875
1772536703383391000,1.105390869140625,-0.9634857177734375,-0.3390350341796875,0.0422821044921875
1772536703393439000,1.11543896484375,-0.9658050537109375,-0.3488006591796875,0.0446929931640625
1772536703403487700,1.12548779296875,-0.965240478515625,-0.3555145263671875,0.0421905517578125
1772536703413536800,1.135536865234375,-0.9642486572265625,-0.35333251953125,0.04022216796875
1772536703423584800,1.145584716796875,-0.956817626953125,-0.3576812744140625,0.036956787109375
1772536703433633800,1.1556337890625,-0.942291259765625,-0.3680572509765625,0.036468505859375
1772536703443682600,1.1656826171875,-0.9381561279296875,-0.376434326171875,0.0401458740234375
1772536703453730800,1.175730712890625,-0.94183349609375,-0.3812713623046875,0.045440673828125
1772536703463779600,1.185779541015625,-0.9480438232421875,-0.3878326416015625,0.0526580810546875
1772536703473828900,1.195828857421875,-0.9491119384765625,-0.3900146484375,0.05487060546875
1772536703483876600,1.205876708984375,-0.94671630859375,-0.3845672607421875,0.059906005859375
1772536703493926000,1.21592578125,-0.943878173828125,-0.3773193359375,0.065093994140625
1772536703503973600,1.2259736328125,-0.9400634765625,-0.37139892578125,0.063690185546875
1772536703514023000,1.23602294921875,-0.932464599609375,-0.3633575439453125,0.0608062744140625
1772536703524071700,1.24607177734375,-0.9293975830078125,-0.353546142578125,0.054840087890625
1772536703534120000,1.256119873046875,-0.936370849609375,-0.3489837646484375,0.049713134765625
1772536703544168700,1.266168701171875,-0.943206787109375,-0.3465576171875,0.0493927001953125
1772536703554217700,1.2762177734375,-0.9535675048828125,-0.3440093994140625,0.049072265625
1772536703564265700,1.286265625,-0.9620819091796875,-0.3399658203125,0.0454254150390625
1772536703574314800,1.296314697265625,-0.9731292724609375,-0.340423583984375,0.0454559326171875
1772536703584363800,1.30636376953125,-0.9819793701171875,-0.3499298095703125,0.04779052734375
1772536703594411800,1.316411865234375,-0.9967041015625,-0.356231689453125,0.0415191650390625
1772536703604460800,1.326460693359375,-1.0093231201171875,-0.3511810302734375,0.033660888671875
1772536703614509800,1.336509765625,-1.0236663818359375,-0.347686767578125,0.0328369140625
1772536703624557800,1.346557861328125,-1.0395660400390625,-0.347686767578125,0.031158447265625
1772536703634606800,1.35660693359375,-1.051300048828125,-0.3490142822265625,0.0197906494140625
1772536703644655600,1.366655517578125,-1.060211181640625,-0.3396148681640625,-0.000762939453125
1772536703654703900,1.376703857421875,-1.0669097900390625,-0.315185546875,-0.01519775390625
1772536703664752600,1.386752685546875,-1.0691070556640625,-0.2962493896484375,-0.03076171875
1772536703674802000,1.396802001953125,-1.0576019287109375,-0.28607177734375,-0.04949951171875
1772536703684849700,1.406849609375,-1.0380401611328125,-0.280242919921875,-0.0593109130859375
1772536703694899000,1.41689892578125,-1.0187835693359375,-0.27001953125,-0.06121826171875
1772536703704947700,1.42694775390625,-1.001739501953125,-0.2622222900390625,-0.0605621337890625
1772536703714996000,1.436995849609375,-0.988677978515625,-0.265228271484375,-0.0566253662109375
1772536703725044700,1.447044677734375,-0.976287841796875,-0.2683258056640625,-0.0479583740234375
1772536703735092700,1.4570927734375,-0.9681243896484375,-0.2734222412109375,-0.036102294921875
1772536703745141800,1.467141845703125,-0.96923828125,-0.2747955322265625,-0.0240325927734375
1772536703755190800,1.477190673828125,-0.978546142578125,-0.270416259765625,-0.0268096923828125
1772536703765238800,1.48723876953125,-0.9719696044921875,-0.26416015625,-0.042999267578125
1772536703775287800,1.497287841796875,-0.9533538818359375,-0.2576446533203125,-0.051666259765625
1772536703785336800,1.5073369140625,-0.9432220458984375,-0.2581787109375,-0.0555419921875
1772536703795384600,1.517384521484375,-0.941650390625,-0.266937255859375,-0.0574493408203125
1772536703805433900,1.527433837890625,-0.937164306640625,-0.27734375,-0.0568695068359375
1772536703815483000,1.53748291015625,-0.928619384765625,-0.287139892578125,-0.0539093017578125
1772536703825531000,1.54753076171875,-0.91259765625,-0.29498291015625,-0.04833984375
1772536703835579600,1.55757958984375,-0.8998565673828125,-0.3060150146484375,-0.0372772216796875
1772536703845628700,1.567628662109375,-0.890045166015625,-0.31707763671875,-0.019287109375
1772536703855676700,1.5776767578125,-0.8836517333984375,-0.3279266357421875,-0.0030364990234375
1772536703865725700,1.5877255859375,-0.8823699951171875,-0.3363189697265625,0.0024871826171875
1772536703875775000,1.59777490234375,-0.8793182373046875,-0.33642578125,0.0118560791015625
1772536703885822700,1.60782275390625,-0.87054443359375,-0.3358612060546875,0.0128021240234375
1772536703895871700,1.617871826171875,-0.861175537109375,-0.3354339599609375,0.012969970703125
1772536703905920800,1.627920654296875,-0.8679046630859375,-0.3339385986328125,0.015350341796875
1772536703915968800,1.63796875,-0.87628173828125,-0.3377685546875,0.01171875
1772536703926017800,1.648017822265625,-0.8681640625,-0.3421783447265625,0.006256103515625
1772536703936066800,1.65806689453125,-0.8603363037109375,-0.341400146484375,0.0124359130859375
1772536703946114800,1.66811474609375,-0.862945556640625,-0.3433074951171875,0.021209716796875
1772536703956163600,1.67816357421875,-0.87005615234375,-0.3458099365234375,0.025421142578125
1772536703966212900,1.688212890625,-0.8802337646484375,-0.3481903076171875,0.030914306640625
1772536703976260600,1.698260498046875,-0.8898773193359375,-0.3486175537109375,0.0329437255859375
1772536703986310000,1.708309814453125,-0.89654541015625,-0.3486175537109375,0.0296173095703125
1772536703996358700,1.718358642578125,-0.9054107666015625,-0.3451385498046875,0.0279388427734375
1772536704006407000,1.728406982421875,-0.913909912109375,-0.3418121337890625,0.0255126953125
1772536704016455700,1.73845556640625,-0.9203643798828125,-0.341278076171875,0.0251312255859375
1772536704026504700,1.748504638671875,-0.9287872314453125,-0.3402557373046875,0.026641845703125
1772536704036552700,1.758552734375,-0.9273529052734375,-0.3385009765625,0.0222930908203125
1772536704046601700,1.768601806640625,-0.9196319580078125,-0.334747314453125,0.0132904052734375
1772536704056650800,1.778650634765625,-0.9156494140625,-0.3329620361328125,0.0082855224609375
1772536704066698800,1.78869873046875,-0.9158477783203125,-0.3332977294921875,0.0020904541015625
1772536704076747800,1.798747802734375,-0.9128265380859375,-0.3352508544921875,0.004150390625
1772536704086796800,1.808796875,-0.9163818359375,-0.338897705078125,0.0184326171875
1772536704096844800,1.8188447265625,-0.92633056640625,-0.345611572265625,0.0275115966796875
1772536704106893800,1.828893798828125,-0.921112060546875,-0.3555450439453125,0.03125
1772536704116942600,1.838942626953125,-0.9153900146484375,-0.3586578369140625,0.04052734375
1772536704126990800,1.848990966796875,-0.9231719970703125,-0.3629913330078125,0.046844482421875
1772536704137039600,1.85903955078125,-0.9344940185546875,-0.369537353515625,0.0504913330078125
1772536704147088600,1.869088623046875,-0.9407958984375,-0.3724517822265625,0.0496673583984375
1772536704157136600,1.87913671875,-0.9429779052734375,-0.377044677734375,0.0467681884765625
1772536704167185700,1.889185546875,-0.9521636962890625,-0.3802490234375,0.0469970703125
1772536704177234700,1.899234619140625,-0.9694976806640625,-0.3783721923828125,0.04168701171875
1772536704187282700,1.90928271484375,-0.98431396484375,-0.375396728515625,0.0369720458984375
1772536704197331700,1.919331787109375,-0.996124267578125,-0.3711700439453125,0.0296783447265625
1772536704207380700,1.929380615234375,-1.0009765625,-0.361907958984375,0.01666259765625
1772536704217428700,1.9394287109375,-1.0019378662109375,-0.35028076171875,0.0052947998046875
1772536704227477800,1.949477783203125,-0.9979400634765625,-0.345977783203125,0.0002288818359375
1772536704237526500,1.959526611328125,-0.99609375,-0.3517913818359375,0.0075225830078125
1772536704247574800,1.96957470703125,-1.0078277587890625,-0.3578033447265625,0.0187530517578125
1772536704257623600,1.97962353515625,-1.0212860107421875,-0.3641815185546875,0.0223846435546875
1772536704267672800,1.9896728515625,-1.0431365966796875,-0.3603057861328125,0.016448974609375
1772536704277720600,1.999720458984375,-1.0514984130859375,-0.347900390625,0.0071868896484375
1772536704287769900,2.009769775390625,-1.0518646240234375,-0.3387298583984375,0.0026397705078125
1772536704297818600,2.019818603515625,-1.0541534423828125,-0.3305206298828125,0.0022125244140625
1772536704307867000,2.029866943359375,-1.0624847412109375,-0.3181915283203125,-0.000732421875
1772536704317915600,2.03991552734375,-1.0705718994140625,-0.29913330078125,-0.003814697265625
1772536704327964700,2.049964599609375,-1.06964111328125,-0.279632568359375,-0.0082855224609375
1772536704338012700,2.0600126953125,-1.0556182861328125,-0.270050048828125,-0.013397216796875
1772536704348061700,2.070061767578125,-1.0400848388671875,-0.2594757080078125,-0.016693115234375
1772536704358110700,2.08011083984375,-1.027191162109375,-0.2476654052734375,-0.0201873779296875
1772536704368158700,2.09015869140625,-1.00146484375,-0.2425384521484375,-0.0188751220703125
1772536704378207700,2.100207763671875,-0.97259521484375,-0.2469024658203125,-0.0130615234375
1772536704388256800,2.1102568359375,-0.958282470703125,-0.258392333984375,-0.003082275390625
1772536704398304800,2.1203046875,-0.95013427734375,-0.2675628662109375,0.004730224609375
1772536704408353800,2.130353759765625,-0.947509765625,-0.26873779296875,0.0157623291015625
1772536704418402800,2.14040283203125,-0.9522552490234375,-0.2699127197265625,0.0308074951171875
1772536704428450800,2.150450927734375,-0.9508209228515625,-0.274688720703125,0.0352935791015625
1772536704438499800,2.160499755859375,-0.936309814453125,-0.275634765625,0.0391845703125
1772536704448548900,2.170548828125,-0.9250335693359375,-0.2733612060546875,0.0486297607421875
1772536704458596900,2.180596923828125,-0.924407958984375,-0.272735595703125,0.0586700439453125
1772536704468646000,2.19064599609375,-0.92529296875,-0.2729339599609375,0.057403564453125
1772536704478695000,2.20069482421875,-0.9128265380859375,-0.2700347900390625,0.054779052734375
1772536704488743000,2.210742919921875,-0.9027862548828125,-0.265899658203125,0.0574798583984375
1772536704498792000,2.2207919921875,-0.9102935791015625,-0.2645721435546875,0.0604705810546875
1772536704508840700,2.2308408203125,-0.91375732421875,-0.269683837890625,0.0630035400390625
1772536704518889000,2.240888916015625,-0.9104156494140625,-0.27301025390625,0.061126708984375
1772536704528937700,2.250937744140625,-0.904571533203125,-0.27081298828125,0.06005859375
1772536704538987000,2.260987060546875,-0.9066162109375,-0.2682952880859375,0.060455322265625
1772536704549034800,2.27103466796875,-0.915008544921875,-0.2714996337890625,0.0619354248046875
1772536704559084000,2.281083984375,-0.913299560546875,-0.280731201171875,0.066802978515625
1772536704569132800,2.2911328125,-0.905426025390625,-0.286163330078125,0.0724639892578125
1772536704579181000,2.30118115234375,-0.9009552001953125,-0.2883453369140625,0.078857421875
1772536704589229800,2.311229736328125,-0.903472900390625,-0.2920074462890625,0.084716796875
1772536704599278800,2.32127880859375,-0.90185546875,-0.2974700927734375,0.0870819091796875
1772536704609327900,2.331327880859375,-0.895233154296875,-0.2965850830078125,0.0887451171875
1772536704619375900,2.3413759765625,-0.8877410888671875,-0.2952728271484375,0.08929443359375
1772536704629425000,2.3514248046875,-0.8886260986328125,-0.2950897216796875,0.0906829833984375
1772536704639473000,2.361472900390625,-0.8925323486328125,-0.2984619140625,0.091644287109375
1772536704649522000,2.37152197265625,-0.8930816650390625,-0.301025390625,0.094818115234375
1772536704659571000,2.381571044921875,-0.8943939208984375,-0.3007049560546875,0.10211181640625
1772536704669619700,2.39161962890625,-0.8966064453125,-0.3006591796875,0.1043701171875
1772536704679668000,2.40166796875,-0.9046478271484375,-0.295074462890625,0.1070098876953125
1772536704689716700,2.411716796875,-0.9156646728515625,-0.2890777587890625,0.104583740234375
1772536704699766000,2.42176611328125,-0.9208526611328125,-0.281341552734375,0.0968017578125
1772536704709813800,2.431813720703125,-0.92431640625,-0.2739410400390625,0.09271240234375
1772536704719863000,2.441863037109375,-0.93145751953125,-0.27099609375,0.0944976806640625
1772536704729911800,2.451911865234375,-0.9414825439453125,-0.2701568603515625,0.099151611328125
1772536704739960000,2.4619599609375,-0.9445343017578125,-0.2769775390625,0.1019134521484375
1772536704750008800,2.4720087890625,-0.9472808837890625,-0.284271240234375,0.1055908203125
1772536704760057900,2.482057861328125,-0.951812744140625,-0.283843994140625,0.100799560546875
1772536704770105900,2.49210595703125,-0.961578369140625,-0.279083251953125,0.0942840576171875
1772536704780155000,2.50215478515625,-0.972198486328125,-0.28204345703125,0.0883026123046875
1772536704790204000,2.512203857421875,-0.974334716796875,-0.294464111328125,0.083038330078125
1772536704800252000,2.522251953125,-0.9741363525390625,-0.305084228515625,0.0804290771484375
1772536704810301000,2.532301025390625,-0.9848175048828125,-0.3093719482421875,0.0742340087890625
1772536704820350000,2.542349853515625,-0.989959716796875,-0.31158447265625,0.063995361328125
1772536704830398000,2.55239794921875,-0.9807281494140625,-0.316131591796875,0.056671142578125
1772536704840447000,2.562447021484375,-0.974853515625,-0.32073974609375,0.0523223876953125
1772536704850495700,2.572495849609375,-0.97479248046875,-0.33258056640625,0.0514373779296875
1772536704860545000,2.582544921875,-0.970489501953125,-0.34613037109375,0.05279541015625
1772536704870592800,2.5925927734375,-0.96484375,-0.3571319580078125,0.05413818359375
1772536704880642000,2.60264208984375,-0.9673919677734375,-0.362823486328125,0.05706787109375
1772536704890690800,2.61269091796875,-0.973724365234375,-0.368316650390625,0.0548095703125
1772536704900739000,2.622739013671875,-0.973388671875,-0.369232177734375,0.0509033203125
1772536704910787800,2.632787841796875,-0.974365234375,-0.3626251220703125,0.0500335693359375
1772536704920836900,2.6428369140625,-0.9807891845703125,-0.3542938232421875,0.04541015625
1772536704930884900,2.652884765625,-0.979827880859375,-0.351104736328125,0.0356903076171875
1772536704940934000,2.662933837890625,-0.97833251953125,-0.347869873046875,0.0333099365234375
1772536704950983000,2.67298291015625,-0.98065185546875,-0.33697509765625,0.022918701171875
1772536704961031000,2.683031005859375,-0.9824676513671875,-0.3274688720703125,0.0116729736328125
1772536704971080000,2.693079833984375,-0.9793853759765625,-0.325042724609375,-0.0004119873046875
1772536704981129000,2.70312890625,-0.9802093505859375,-0.3358917236328125,-0.001739501953125
1772536704991177000,2.713177001953125,-0.98602294921875,-0.3481903076171875,0.0039215087890625
1772536705001226000,2.72322607421875,-1.000396728515625,-0.35198974609375,0.012725830078125
1772536705011274800,2.733274658203125,-1.0149688720703125,-0.365936279296875,0.0203399658203125
1772536705021324000,2.743323974609375,-1.0209197998046875,-0.3873291015625,0.022613525390625
1772536705031371800,2.753371826171875,-1.024322509765625,-0.402252197265625,0.0196685791015625
1772536705041421000,2.763421142578125,-1.0230712890625,-0.396514892578125,0.022308349609375
1772536705051469800,2.7734697265625,-1.0340118408203125,-0.381134033203125,0.0207061767578125
1772536705061518000,2.78351806640625,-1.0324859619140625,-0.363616943359375,0.0114593505859375
1772536705071566800,2.79356689453125,-1.021514892578125,-0.35015869140625,0.00689697265625
1772536705081616000,2.803615966796875,-1.0121002197265625,-0.346710205078125,0.00067138671875
1772536705091664000,2.813663818359375,-1.009033203125,-0.3379058837890625,-0.0122528076171875
1772536705101713000,2.823712890625,-0.999359130859375,-0.3236236572265625,-0.0257568359375
1772536705111762000,2.833761962890625,-0.99017333984375,-0.3057861328125,-0.0314483642578125
1772536705121811000,2.84381103515625,-0.9950103759765625,-0.2875823974609375,-0.0296173095703125
1772536705131859000,2.85385888671875,-0.99810791015625,-0.27630615234375,-0.035858154296875
1772536705141908000,2.863907958984375,-0.9828338623046875,-0.2651214599609375,-0.0435791015625
1772536705151956700,2.873956787109375,-0.973052978515625,-0.2379913330078125,-0.0508880615234375
1772536705162005000,2.8840048828125,-0.9581298828125,-0.2263641357421875,-0.061309814453125
1772536705172053800,2.8940537109375,-0.9521942138671875,-0.2279052734375,-0.063873291015625
1772536705182103000,2.90410302734375,-0.9560546875,-0.2305908203125,-0.0654296875
1772536705192150800,2.91415087890625,-0.9489593505859375,-0.2332611083984375,-0.075927734375
1772536705202199800,2.92419970703125,-0.9234466552734375,-0.2343597412109375,-0.082550048828125
1772536705212248800,2.934248779296875,-0.91192626953125,-0.244171142578125,-0.0777435302734375
1772536705222296800,2.944296875,-0.91748046875,-0.259765625,-0.0782928466796875
1772536705232345900,2.954345947265625,-0.908203125,-0.2696075439453125,-0.0759124755859375
1772536705242395000,2.964394775390625,-0.8850555419921875,-0.2793121337890625,-0.061553955078125
1772536705252444000,2.97444384765625,-0.8756256103515625,-0.289031982421875,-0.0400848388671875
1772536705262492000,2.984491943359375,-0.885589599609375,-0.302642822265625,-0.0191192626953125
1772536705272541000,2.994541015625,-0.8927764892578125,-0.31591796875,-0.0119476318359375
1772536705282590000,3.00458984375,-0.886474609375,-0.321563720703125,-0.0070037841796875
1772536705292638000,3.014637939453125,-0.8831787109375,-0.32147216796875,-0.000823974609375
1772536705302687000,3.02468701171875,-0.890380859375,-0.322662353515625,0.0083160400390625
1772536705312735700,3.03473583984375,-0.8997344970703125,-0.3264312744140625,0.0083770751953125
1772536705322784000,3.044783935546875,-0.9028778076171875,-0.3256072998046875,0.0086212158203125
1772536705332832800,3.054832763671875,-0.9063720703125,-0.3194427490234375,0.0082855224609375
1772536705342881800,3.0648818359375,-0.916656494140625,-0.31817626953125,0.00146484375
1772536705352929800,3.0749296875,-0.9212646484375,-0.319091796875,-0.0114288330078125
1772536705362978800,3.084978759765625,-0.9247589111328125,-0.3202056884765625,-0.020660400390625
1772536705373027800,3.09502783203125,-0.9279327392578125,-0.3166656494140625,-0.03021240234375
1772536705383076900,3.105076904296875,-0.92938232421875,-0.314666748046875,-0.034820556640625
1772536705393124900,3.115124755859375,-0.9305267333984375,-0.3194732666015625,-0.037261962890625
1772536705403173600,3.125173583984375,-0.9404754638671875,-0.3284454345703125,-0.0370941162109375
1772536705413222700,3.13522265625,-0.9430999755859375,-0.332855224609375,-0.0398406982421875
1772536705423270700,3.145270751953125,-0.93157958984375,-0.3354034423828125,-0.041168212890625
1772536705433319700,3.155319580078125,-0.9245147705078125,-0.3379058837890625,-0.033599853515625
1772536705443368700,3.16536865234375,-0.923004150390625,-0.34332275390625,-0.0290985107421875
1772536705453417500,3.17541748046875,-0.9138336181640625,-0.34478759765625,-0.0251007080078125
1772536705463465700,3.1854658203125,-0.90570068359375,-0.342926025390625,-0.0152740478515625
1772536705473514500,3.195514404296875,-0.9018402099609375,-0.347412109375,-0.0052032470703125
1772536705483563800,3.205563720703125,-0.9003753662109375,-0.35736083984375,0.0002899169921875
1772536705493611500,3.215611572265625,-0.90216064453125,-0.3649444580078125,0.0057220458984375
1772536705503660800,3.225660888671875,-0.90533447265625,-0.37371826171875,0.01336669921875
1772536705513709600,3.23570947265625,-0.920745849609375,-0.38226318359375,0.0211029052734375
1772536705523757800,3.2457578125,-0.9395904541015625,-0.3892364501953125,0.023773193359375
1772536705533806600,3.255806640625,-0.9549713134765625,-0.3912811279296875,0.0160675048828125
1772536705543855600,3.265855712890625,-0.9677734375,-0.388641357421875,0.0099639892578125
1772536705553904600,3.275904541015625,-0.9819793701171875,-0.379364013671875,0.000823974609375
1772536705563952600,3.28595263671875,-0.9946441650390625,-0.366912841796875,-0.014190673828125
1772536705574001700,3.296001708984375,-1.00518798828125,-0.35638427734375,-0.027801513671875
1772536705584050700,3.30605078125,-1.014312744140625,-0.3504180908203125,-0.0355987548828125
1772536705594098700,3.3160986328125,-1.0128631591796875,-0.35284423828125,-0.0309906005859375
1772536705604147700,3.326147705078125,-1.001922607421875,-0.3662567138671875,-0.02276611328125
1772536705614196500,3.336196533203125,-0.999542236328125,-0.3783111572265625,-0.0177764892578125
1772536705624245800,3.346245849609375,-1.01165771484375,-0.3770904541015625,-0.016693115234375
1772536705634293500,3.35629345703125,-1.02691650390625,-0.3777008056640625,-0.008087158203125
1772536705644342800,3.3663427734375,-1.035186767578125,-0.381866455078125,-0.0077667236328125
1772536705654391600,3.3763916015625,-1.0308685302734375,-0.3784637451171875,-0.00885009765625
1772536705664439600,3.386439453125,-1.0287017822265625,-0.3708953857421875,-0.0052642822265625
1772536705674488600,3.396488525390625,-1.03143310546875,-0.35968017578125,-0.008697509765625
1772536705684537600,3.40653759765625,-1.0291748046875,-0.34039306640625,-0.0184478759765625
1772536705694585600,3.416585693359375,-1.023345947265625,-0.3204193115234375,-0.026702880859375
1772536705704634600,3.426634521484375,-1.0198822021484375,-0.3094329833984375,-0.025604248046875
1772536705714683600,3.43668359375,-1.0149688720703125,-0.3003387451171875,-0.0261688232421875
1772536705724732700,3.446732666015625,-1.0008697509765625,-0.2901763916015625,-0.02484130859375
1772536705734780700,3.45678076171875,-0.9866180419921875,-0.275970458984375,-0.024383544921875
1772536705744829700,3.46682958984375,-0.9784088134765625,-0.2671051025390625,-0.0290985107421875
1772536705754878500,3.47687841796875,-0.9657745361328125,-0.27081298828125,-0.0289764404296875
1772536705764926700,3.4869267578125,-0.9500274658203125,-0.2718505859375,-0.0193023681640625
1772536705774975500,3.4969755859375,-0.9345245361328125,-0.2797088623046875,-0.006744384765625
1772536705785024800,3.507024658203125,-0.923370361328125,-0.2982025146484375,0.004119873046875
1772536705795073500,3.517073486328125,-0.92108154296875,-0.3152313232421875,0.0132598876953125
1772536705805121500,3.52712158203125,-0.92578125,-0.3228607177734375,0.0269317626953125
1772536705815170600,3.537170654296875,-0.93255615234375,-0.32745361328125,0.0423583984375
1772536705825219600,3.547219482421875,-0.9301910400390625,-0.3334197998046875,0.0451507568359375
1772536705835267600,3.557267578125,-0.9180450439453125,-0.336578369140625,0.047943115234375
1772536705845316600,3.567316650390625,-0.9117431640625,-0.333740234375,0.05322265625
1772536705855365600,3.57736572265625,-0.9070281982421875,-0.332122802734375,0.059967041015625
1772536705865414700,3.58741455078125,-0.902862548828125,-0.3358917236328125,0.06695556640625
1772536705875462700,3.597462646484375,-0.9044952392578125,-0.33770751953125,0.075225830078125
1772536705885511700,3.60751171875,-0.9147186279296875,-0.338592529296875,0.0826568603515625
1772536705895560700,3.617560791015625,-0.9202117919921875,-0.3339996337890625,0.0831298828125
1772536705905608700,3.627608642578125,-0.919525146484375,-0.327789306640625,0.081024169921875
1772536705915657500,3.637657470703125,-0.91986083984375,-0.320892333984375,0.076171875
1772536705925706800,3.647706787109375,-0.9203948974609375,-0.31787109375,0.070159912109375
1772536705935755800,3.657755859375,-0.9173126220703125,-0.3129119873046875,0.0621185302734375
1772536705945803500,3.667803466796875,-0.9095916748046875,-0.310150146484375,0.05633544921875
1772536705955852500,3.6778525390625,-0.90753173828125,-0.3106842041015625,0.052276611328125
1772536705965901600,3.687901611328125,-0.903656005859375,-0.311370849609375,0.0495452880859375
1772536705975949600,3.697949462890625,-0.8956298828125,-0.311370849609375,0.053253173828125
1772536705985998600,3.70799853515625,-0.8834991455078125,-0.3120269775390625,0.0551300048828125
1772536705996047600,3.718047607421875,-0.8639984130859375,-0.3151092529296875,0.0596923828125
1772536706006096600,3.7280966796875,-0.8510894775390625,-0.3199310302734375,0.0623626708984375
1772536706016144600,3.73814453125,-0.8470916748046875,-0.3231964111328125,0.0652313232421875
1772536706026193700,3.748193603515625,-0.8442840576171875,-0.330657958984375,0.0707244873046875
1772536706036242700,3.75824267578125,-0.844635009765625,-0.34307861328125,0.083526611328125
1772536706046290700,3.768290771484375,-0.848358154296875,-0.3533935546875,0.0931243896484375
1772536706056339700,3.778339599609375,-0.849639892578125,-0.36297607421875,0.0968170166015625
1772536706066388500,3.788388427734375,-0.8526153564453125,-0.3686065673828125,0.0975189208984375
1772536706076437800,3.798437744140625,-0.8639068603515625,-0.373748779296875,0.097137451171875
1772536706086485500,3.808485595703125,-0.8772125244140625,-0.37646484375,0.095703125
1772536706096534800,3.81853466796875,-0.8855438232421875,-0.38067626953125,0.0882568359375
1772536706106583600,3.82858349609375,-0.893768310546875,-0.3789825439453125,0.078948974609375
1772536706116632600,3.838632568359375,-0.8983306884765625,-0.3734588623046875,0.066802978515625
1772536706126680600,3.8486806640625,-0.900482177734375,-0.3704071044921875,0.05908203125
1772536706136729600,3.8587294921875,-0.90240478515625,-0.373687744140625,0.0561981201171875
1772536706146778600,3.868778564453125,-0.900848388671875,-0.376251220703125,0.054901123046875
1772536706156826600,3.87882666015625,-0.905548095703125,-0.3768463134765625,0.0544281005859375
1772536706166875600,3.888875732421875,-0.9160614013671875,-0.382110595703125,0.051971435546875
1772536706176924700,3.898924560546875,-0.9246063232421875,-0.3869781494140625,0.0501708984375
1772536706186973700,3.9089736328125,-0.93035888671875,-0.392333984375,0.053741455078125
1772536706197021700,3.919021728515625,-0.93096923828125,-0.39990234375,0.056671142578125
1772536706207070500,3.929070556640625,-0.921966552734375,-0.403778076171875,0.05078125
1772536706217119700,3.93911962890625,-0.913543701171875,-0.405364990234375,0.05023193359375
1772536706227167500,3.94916748046875,-0.9163818359375,-0.413818359375,0.0498046875
1772536706237216800,3.959216796875,-0.932464599609375,-0.4261627197265625,0.0459747314453125
1772536706247265500,3.969265625,-0.9491729736328125,-0.435272216796875,0.0477294921875
1772536706257314600,3.979314453125,-0.961456298828125,-0.439178466796875,0.048828125
1772536706267362600,3.989362548828125,-0.9675445556640625,-0.4356689453125,0.0447845458984375
1772536706277411600,3.99941162109375,-0.970184326171875,-0.4212493896484375,0.0374603271484375
1772536706287460600,4.009460693359375,-0.9690399169921875,-0.4066162109375,0.026885986328125
1772536706297508600,4.019508544921875,-0.9653472900390625,-0.39532470703125,0.025054931640625
1772536706307557600,4.0295576171875,-0.9675750732421875,-0.3893280029296875,0.0252227783203125
1772536706317606700,4.039606689453125,-0.968048095703125,-0.398895263671875,0.0398406982421875
1772536706327655700,4.04965576171875,-0.9813385009765625,-0.4231414794921875,0.06036376953125
1772536706337703700,4.05970361328125,-1.0277557373046875,-0.4383697509765625,0.0753021240234375
1772536706347752400,4.06975244140625,-1.080352783203125,-0.4333953857421875,0.0762176513671875
1772536706357801700,4.0798017578125,-1.1154937744140625,-0.4110870361328125,0.0597991943359375
1772536706367850500,4.0898505859375,-1.13824462890625,-0.3835906982421875,0.03277587890625
1772536706377898800,4.099898681640625,-1.1615447998046875,-0.3526611328125,-0.0001678466796875
1772536706387947500,4.109947509765625,-1.172119140625,-0.3130035400390625,-0.0348968505859375
1772536706397996500,4.11999658203125,-1.154632568359375,-0.273406982421875,-0.0679168701171875
1772536706408044500,4.13004443359375,-1.11279296875,-0.23687744140625,-0.0839691162109375
1772536706418093600,4.140093505859375,-1.048858642578125,-0.2164154052734375,-0.0990142822265625
1772536706428142600,4.150142578125,-0.992584228515625,-0.210052490234375,-0.1059722900390625
1772536706438191600,4.160191650390625,-0.9553375244140625,-0.2083892822265625,-0.0926971435546875
1772536706448239600,4.170239501953125,-0.9470367431640625,-0.2112274169921875,-0.0619354248046875
1772536706458288400,4.180288330078125,-0.9669647216796875,-0.215057373046875,-0.0405426025390625
1772536706468337400,4.19033740234375,-0.98101806640625,-0.225677490234375,-0.025421142578125
1772536706478386700,4.20038671875,-0.9770050048828125,-0.239471435546875,-0.0113372802734375
1772536706488434400,4.210434326171875,-0.9735260009765625,-0.2483367919921875,-0.0042266845703125
1772536706498483700,4.220483642578125,-0.970733642578125,-0.2394561767578125,-0.001739501953125
1772536706508532500,4.230532470703125,-0.9633941650390625,-0.2322235107421875,-0.006439208984375
1772536706518581500,4.24058154296875,-0.96441650390625,-0.2354736328125,-0.0183563232421875
1772536706528629500,4.25062939453125,-0.972259521484375,-0.2381439208984375,-0.037994384765625
1772536706538678500,4.260678466796875,-0.97637939453125,-0.2387542724609375,-0.0521697998046875
1772536706548727600,4.2707275390625,-0.9827880859375,-0.2387237548828125,-0.0599822998046875
1772536706558775600,4.280775634765625,-0.9856719970703125,-0.2389373779296875,-0.062774658203125
1772536706568824600,4.290824462890625,-0.9857177734375,-0.245880126953125,-0.0609130859375
1772536706578873600,4.30087353515625,-0.9848785400390625,-0.2504425048828125,-0.0612335205078125
1772536706588922600,4.310922607421875,-0.9820709228515625,-0.253662109375,-0.0615234375
1772536706598970600,4.320970703125,-0.9754638671875,-0.254547119140625,-0.059326171875
1772536706609019400,4.331019287109375,-0.9683380126953125,-0.258575439453125,-0.0492706298828125
1772536706619068700,4.341068603515625,-0.9620208740234375,-0.264068603515625,-0.0317840576171875
1772536706629117400,4.351117431640625,-0.9537811279296875,-0.2658233642578125,-0.0257720947265625
1772536706639165700,4.361165771484375,-0.9339752197265625,-0.2623291015625,-0.02227783203125
1772536706649214500,4.37121435546875,-0.9133453369140625,-0.2595672607421875,-0.0192413330078125
1772536706659263500,4.381263427734375,-0.9030609130859375,-0.265960693359375,-0.0131072998046875
1772536706669312500,4.3913125,-0.9013519287109375,-0.277008056640625,-0.0121307373046875
1772536706679360500,4.401360595703125,-0.894927978515625,-0.28387451171875,-0.0151824951171875
1772536706689409500,4.411409423828125,-0.885955810546875,-0.293609619140625,-0.01727294921875
1772536706699458600,4.42145849609375,-0.8848114013671875,-0.305694580078125,-0.0122222900390625
1772536706709506600,4.431506591796875,-0.8783721923828125,-0.3190765380859375,-0.015350341796875
1772536706719555600,4.4415556640625,-0.870361328125,-0.3332672119140625,-0.0089111328125
1772536706729604600,4.4516044921875,-0.8700103759765625,-0.3443603515625,-0.00006103515625
1772536706739653600,4.461653564453125,-0.8704681396484375,-0.35443115234375,0.012054443359375
1772536706749701400,4.471701416015625,-0.8621368408203125,-0.3678131103515625,0.0185546875
1772536706759750700,4.481750732421875,-0.8543548583984375,-0.3741912841796875,0.021453857421875
1772536706769799400,4.49179931640625,-0.8506622314453125,-0.375701904296875,0.0212554931640625
1772536706779848400,4.501848388671875,-0.845489501953125,-0.3831329345703125,0.0205841064453125
1772536706789896400,4.511896484375,-0.843658447265625,-0.3860931396484375,0.0209808349609375
1772536706799945500,4.521945556640625,-0.84521484375,-0.38897705078125,0.014984130859375
1772536706809994500,4.531994384765625,-0.84375,-0.3931427001953125,0.007537841796875
1772536706820043500,4.54204345703125,-0.8470611572265625,-0.3997344970703125,0.0085296630859375
1772536706830091500,4.552091552734375,-0.8531951904296875,-0.408477783203125,0.011932373046875
1772536706840140500,4.562140625,-0.863494873046875,-0.41015625,0.013427734375
1772536706850189600,4.572189453125,-0.880096435546875,-0.409820556640625,0.01605224609375
1772536706860238600,4.582238525390625,-0.8874359130859375,-0.413848876953125,0.009063720703125
1772536706870286600,4.59228662109375,-0.8878173828125,-0.414642333984375,0.0023651123046875
1772536706880335600,4.602335693359375,-0.888580322265625,-0.4157867431640625,0.0023040771484375
1772536706890384400,4.61238427734375,-0.896759033203125,-0.4231414794921875,0.0084228515625
1772536706900432600,4.6224326171875,-0.9161834716796875,-0.4331512451171875,0.014251708984375
1772536706910481400,4.6324814453125,-0.9369354248046875,-0.440948486328125,0.016204833984375
1772536706920530400,4.642530517578125,-0.9464111328125,-0.4443511962890625,0.0144195556640625
1772536706930579500,4.652579345703125,-0.9508209228515625,-0.4428863525390625,0.01409912109375
1772536706940627500,4.66262744140625,-0.9649658203125,-0.441558837890625,0.0116119384765625
1772536706950676500,4.672676513671875,-0.9778594970703125,-0.43450927734375,0.004730224609375
1772536706960725500,4.6827255859375,-0.980682373046875,-0.4289398193359375,-0.0064239501953125
1772536706970774500,4.6927744140625,-0.9875640869140625,-0.4188232421875,-0.013153076171875
1772536706980822500,4.702822509765625,-0.99267578125,-0.4167633056640625,-0.0146484375
1772536706990871600,4.71287158203125,-0.9951934814453125,-0.414642333984375,-0.0162353515625
1772536707000920600,4.722920654296875,-0.992584228515625,-0.4049072265625,-0.017486572265625
1772536707010969600,4.732969482421875,-0.9821624755859375,-0.4043121337890625,-0.0135345458984375
1772536707021017600,4.743017578125,-0.9797821044921875,-0.4158477783203125,-0.0034942626953125
1772536707031066600,4.753066650390625,-1.0029449462890625,-0.420684814453125,0.006561279296875
1772536707041115600,4.76311572265625,-1.0273590087890625,-0.41229248046875,0.0151519775390625
1772536707051164700,4.77316455078125,-1.0304107666015625,-0.4035186767578125,0.0179443359375
1772536707061212400,4.78321240234375,-1.0263824462890625,-0.39727783203125,0.0155792236328125
1772536707071261700,4.79326171875,-1.037445068359375,-0.3873443603515625,0.010498046875
1772536707081310500,4.803310546875,-1.0474700927734375,-0.3667449951171875,0.0021820068359375
1772536707091359500,4.813359375,-1.042022705078125,-0.343780517578125,-0.0076751708984375
1772536707101407500,4.823407470703125,-1.031158447265625,-0.3234405517578125,-0.01397705078125
1772536707111456500,4.83345654296875,-1.01727294921875,-0.313385009765625,-0.0147247314453125
1772536707121505500,4.843505615234375,-0.9997711181640625,-0.31085205078125,-0.0059356689453125
1772536707131554600,4.853554443359375,-0.99237060546875,-0.3037261962890625,0.0030364990234375
1772536707141602600,4.8636025390625,-0.99017333984375,-0.29278564453125,0.0059661865234375
1772536707151651600,4.873651611328125,-0.9842681884765625,-0.2840576171875,0.00555419921875
1772536707161700600,4.88370068359375,-0.9696807861328125,-0.2803497314453125,0.00750732421875
1772536707171749600,4.89374951171875,-0.9595489501953125,-0.2777557373046875,0.014739990234375
1772536707181797600,4.903797607421875,-0.952606201171875,-0.2794647216796875,0.017486572265625
1772536707191846700,4.9138466796875,-0.9422454833984375,-0.2837066650390625,0.0160980224609375
1772536707201895400,4.9238955078125,-0.9341278076171875,-0.290557861328125,0.0159149169921875
1772536707211944700,4.93394482421875,-0.9293670654296875,-0.29705810546875,0.01971435546875
1772536707221992400,4.943992431640625,-0.9260406494140625,-0.3022003173828125,0.0224151611328125
1772536707232041500,4.95404150390625,-0.9182586669921875,-0.306182861328125,0.02423095703125
1772536707242090500,4.964090576171875,-0.91668701171875,-0.3039398193359375,0.035186767578125
1772536707252139500,4.974139404296875,-0.922943115234375,-0.3035430908203125,0.038848876953125
1772536707262187500,4.9841875,-0.92071533203125,-0.3042144775390625,0.0387115478515625
1772536707272236500,4.994236572265625,-0.9192657470703125,-0.299346923828125,0.0462646484375
1772536707282285600,5.00428564453125,-0.9203338623046875,-0.292694091796875,0.04705810546875
1772536707292334600,5.01433447265625,-0.9153900146484375,-0.2873382568359375,0.04083251953125
1772536707302382600,5.024382568359375,-0.909454345703125,-0.280731201171875,0.034149169921875
1772536707312431600,5.034431640625,-0.909759521484375,-0.2768402099609375,0.02960205078125
1772536707322480400,5.04448046875,-0.9123992919921875,-0.2757110595703125,0.020172119140625
1772536707332529700,5.05452978515625,-0.905120849609375,-0.278656005859375,0.0129547119140625
1772536707342577400,5.064577392578125,-0.897430419921875,-0.282073974609375,0.0134124755859375
1772536707352626700,5.074626708984375,-0.900482177734375,-0.2865447998046875,0.0167083740234375
1772536707362675500,5.084675537109375,-0.91082763671875,-0.29229736328125,0.0195465087890625
1772536707372724500,5.094724365234375,-0.9108428955078125,-0.299346923828125,0.0237579345703125
1772536707382772500,5.1047724609375,-0.9013214111328125,-0.3033905029296875,0.0250701904296875
1772536707392821500,5.114821533203125,-0.88519287109375,-0.3068084716796875,0.03021240234375
1772536707402871000,5.12487109375,-0.8704986572265625,-0.3079833984375,0.034942626953125
1772536707412920000,5.134920166015625,-0.8732452392578125,-0.3082122802734375,0.042083740234375
1772536707422968000,5.144968017578125,-0.87396240234375,-0.31396484375,0.0433807373046875
1772536707433017000,5.15501708984375,-0.8703765869140625,-0.320465087890625,0.045166015625
1772536707443066000,5.165066162109375,-0.873870849609375,-0.324554443359375,0.049163818359375
1772536707453115000,5.175114990234375,-0.882537841796875,-0.332611083984375,0.0520172119140625
1772536707463163100,5.1851630859375,-0.88409423828125,-0.3409271240234375,0.0474700927734375
1772536707473212000,5.1952119140625,-0.8876953125,-0.342254638671875,0.0455322265625
1772536707483261200,5.20526123046875,-0.9011077880859375,-0.34295654296875,0.0395660400390625
1772536707493310000,5.21531005859375,-0.9086456298828125,-0.3457183837890625,0.0288238525390625
1772536707503358200,5.225358154296875,-0.9096527099609375,-0.3473358154296875,0.0209197998046875
1772536707513407000,5.235406982421875,-0.9130401611328125,-0.3495635986328125,0.013641357421875
1772536707523456000,5.2454560546875,-0.9170989990234375,-0.3525543212890625,0.00762939453125
1772536707533505000,5.255505126953125,-0.921966552734375,-0.356201171875,0.006500244140625
1772536707543553000,5.265552978515625,-0.93353271484375,-0.3578948974609375,0.0074005126953125
1772536707553602000,5.27560205078125,-0.947296142578125,-0.359405517578125,0.005706787109375
1772536707563651000,5.285651123046875,-0.951995849609375,-0.3623504638671875,0.0023651123046875
1772536707573699800,5.295699951171875,-0.9498748779296875,-0.366729736328125,0.001953125
1772536707583748000,5.305748046875,-0.9520721435546875,-0.371429443359375,0.0056304931640625
1772536707593796900,5.315796875,-0.957000732421875,-0.3819732666015625,0.0088043212890625
1772536707603846100,5.32584619140625,-0.95880126953125,-0.393707275390625,0.00677490234375
1772536707613894000,5.335893798828125,-0.9664154052734375,-0.4006195068359375,0.0030059814453125
1772536707623943200,5.345943115234375,-0.980010986328125,-0.403350830078125,-0.0014190673828125
1772536707633992000,5.355991943359375,-0.9844512939453125,-0.4073944091796875,-0.00421142578125
1772536707644041000,5.366041015625,-0.984527587890625,-0.4078521728515625,-0.0076751708984375
1772536707654089000,5.3760888671875,-0.9850311279296875,-0.4011688232421875,-0.0095977783203125
1772536707664138000,5.386137939453125,-0.978759765625,-0.39666748046875,-0.0099639892578125
1772536707674187000,5.39618701171875,-0.97174072265625,-0.38995361328125,-0.0098419189453125
1772536707684236000,5.406236083984375,-0.968841552734375,-0.38323974609375,-0.0071258544921875
1772536707694284000,5.416283935546875,-0.96234130859375,-0.381744384765625,-0.0020294189453125
1772536707704333000,5.4263330078125,-0.9552154541015625,-0.3832550048828125,0.0032806396484375
1772536707714381800,5.4363818359375,-0.9470977783203125,-0.389678955078125,0.0137786865234375
1772536707724431000,5.44643115234375,-0.9476318359375,-0.4060821533203125,0.0270233154296875
1772536707734480100,5.456480224609375,-0.9566802978515625,-0.4211273193359375,0.031707763671875
1772536707744528100,5.466528076171875,-0.9729156494140625,-0.4198760986328125,0.0296630859375
1772536707754577200,5.4765771484375,-0.9877777099609375,-0.41961669921875,0.0269927978515625
1772536707764626000,5.4866259765625,-0.996917724609375,-0.429229736328125,0.0206756591796875
1772536707774675200,5.49667529296875,-1.0069580078125,-0.434234619140625,0.0074615478515625
1772536707784723000,5.506722900390625,-1.020111083984375,-0.41851806640625,-0.0138397216796875
1772536707794772200,5.516772216796875,-1.0260772705078125,-0.3953094482421875,-0.04180908203125
1772536707804821000,5.526821044921875,-1.0152740478515625,-0.3760833740234375,-0.073516845703125
1772536707814870000,5.5368701171875,-1.0015869140625,-0.3549652099609375,-0.1007843017578125
1772536707824918000,5.54691796875,-0.9823760986328125,-0.3412017822265625,-0.1039581298828125
1772536707834967000,5.556967041015625,-0.9594879150390625,-0.32501220703125,-0.0995330810546875
1772536707845016000,5.56701611328125,-0.93536376953125,-0.3118743896484375,-0.0906524658203125
1772536707855065000,5.577065185546875,-0.9241790771484375,-0.30816650390625,-0.0841064453125
1772536707865113000,5.587113037109375,-0.937042236328125,-0.3065338134765625,-0.071563720703125
1772536707875162000,5.597162109375,-0.94512939453125,-0.3030548095703125,-0.0574798583984375
1772536707885211000,5.6072109375,-0.931610107421875,-0.30291748046875,-0.050994873046875
1772536707895260200,5.61726025390625,-0.927734375,-0.300567626953125,-0.0527496337890625
1772536707905308000,5.627307861328125,-0.9292755126953125,-0.296966552734375,-0.05755615234375
1772536707915357200,5.637357177734375,-0.9329376220703125,-0.3018035888671875,-0.058502197265625
1772536707925406000,5.647406005859375,-0.9402008056640625,-0.3144989013671875,-0.0626220703125
1772536707935455000,5.657455078125,-0.9471435546875,-0.318817138671875,-0.0689544677734375
1772536707945504000,5.66750390625,-0.9495849609375,-0.3203277587890625,-0.071685791015625
1772536707955552000,5.677552001953125,-0.947479248046875,-0.32171630859375,-0.0823211669921875
1772536707965601000,5.68760107421875,-0.947265625,-0.3207855224609375,-0.0894012451171875
1772536707975650000,5.697650146484375,-0.950714111328125,-0.3267822265625,-0.0886993408203125
1772536707985698800,5.70769873046875,-0.94793701171875,-0.3338623046875,-0.0828857421875
1772536707995747000,5.7177470703125,-0.943695068359375,-0.3410797119140625,-0.0724334716796875
1772536708005795800,5.7277958984375,-0.929534912109375,-0.3446502685546875,-0.064361572265625
1772536708015845000,5.73784521484375,-0.9051361083984375,-0.3434906005859375,-0.0537109375
1772536708025894000,5.747893798828125,-0.89398193359375,-0.342041015625,-0.0440216064453125
1772536708035942100,5.757942138671875,-0.8797454833984375,-0.3466796875,-0.037933349609375
1772536708045991000,5.767990966796875,-0.8714447021484375,-0.357147216796875,-0.03289794921875
1772536708056040000,5.7780400390625,-0.8675689697265625,-0.3618011474609375,-0.02252197265625
1772536708066089200,5.788089111328125,-0.8712921142578125,-0.3659210205078125,-0.00982666015625
1772536708076138000,5.798137939453125,-0.873870849609375,-0.3738861083984375,-0.0114593505859375
1772536708086186000,5.80818603515625,-0.874969482421875,-0.3749847412109375,-0.013702392578125
1772536708096235000,5.818235107421875,-0.8841705322265625,-0.37744140625,-0.008453369140625
1772536708106284000,5.828283935546875,-0.89630126953125,-0.3784637451171875,0.00341796875
1772536708116333000,5.8383330078125,-0.904937744140625,-0.3790283203125,0.0068206787109375
1772536708126381000,5.848381103515625,-0.899749755859375,-0.3811187744140625,0.0006256103515625
1772536708136430000,5.85843017578125,-0.885894775390625,-0.3795013427734375,-0.0009307861328125
1772536708146479000,5.86847900390625,-0.8862457275390625,-0.3782196044921875,-0.006256103515625
1772536708156527900,5.87852783203125,-0.889739990234375,-0.381561279296875,-0.0110931396484375
1772536708166576000,5.888576171875,-0.8877410888671875,-0.384124755859375,-0.01580810546875
1772536708176625000,5.898625,-0.8908538818359375,-0.384918212890625,-0.01593017578125
1772536708186674200,5.908674072265625,-0.8884124755859375,-0.3875274658203125,-0.0239715576171875
1772536708196723000,5.918722900390625,-0.8790283203125,-0.390106201171875,-0.03076171875
1772536708206772000,5.92877197265625,-0.88641357421875,-0.3927764892578125,-0.025848388671875
1772536708216820000,5.938820068359375,-0.896759033203125,-0.3984832763671875,-0.01617431640625
1772536708226869000,5.948868896484375,-0.894195556640625,-0.4051513671875,-0.006134033203125
1772536708236918000,5.95891796875,-0.8876800537109375,-0.4091339111328125,-0.00299072265625
1772536708246967000,5.968967041015625,-0.8856964111328125,-0.409942626953125,-0.0023345947265625
1772536708257016000,5.97901611328125,-0.8823394775390625,-0.4133758544921875,-0.000030517578125
1772536708267064000,5.98906396484375,-0.8824920654296875,-0.418060302734375,0.00628662109375
1772536708277113000,5.999113037109375,-0.8927459716796875,-0.4251708984375,0.01593017578125
1772536708287162000,6.009162109375,-0.9057159423828125,-0.4293365478515625,0.023895263671875
1772536708297211000,6.0192109375,-0.9131011962890625,-0.4311676025390625,0.0261993408203125
1772536708307259100,6.029259033203125,-0.920562744140625,-0.42950439453125,0.0221710205078125
1772536708317308000,6.039307861328125,-0.92327880859375,-0.420440673828125,0.01513671875
1772536708327357000,6.04935693359375,-0.92926025390625,-0.4152984619140625,0.0121917724609375
1772536708337406200,6.05940625,-0.9412384033203125,-0.4094085693359375,0.0050048828125
1772536708347454000,6.069453857421875,-0.95477294921875,-0.3997650146484375,-0.0033111572265625
1772536708357503000,6.0795029296875,-0.96466064453125,-0.3956298828125,-0.012054443359375
1772536708367552000,6.089552001953125,-0.966400146484375,-0.390655517578125,-0.0221099853515625
1772536708377601000,6.09960107421875,-0.9689483642578125,-0.3874969482421875,-0.0234222412109375
1772536708387650000,6.109650146484375,-0.968658447265625,-0.387451171875,-0.0243377685546875
1772536708397698000,6.119697998046875,-0.962860107421875,-0.39483642578125,-0.0225830078125
1772536708407748000,6.129748046875,-0.9561614990234375,-0.41888427734375,-0.01336669921875
1772536708417797000,6.139797119140625,-0.9790496826171875,-0.4337005615234375,0.0025634765625
1772536708427846100,6.14984619140625,-1.0099029541015625,-0.42742919921875,0.0123291015625
1772536708437894100,6.15989404296875,-1.0231781005859375,-0.422210693359375,0.01861572265625
1772536708447943200,6.169943115234375,-1.02410888671875,-0.4176025390625,0.0168914794921875
1772536708457992200,6.1799921875,-1.0229644775390625,-0.4036865234375,0.0076446533203125
1772536708468041200,6.190041259765625,-1.0283966064453125,-0.3762969970703125,-0.00177001953125
1772536708478090000,6.200090087890625,-1.03857421875,-0.346710205078125,-0.0119171142578125
1772536708488138200,6.21013818359375,-1.0355987548828125,-0.323211669921875,-0.0188140869140625
1772536708498187000,6.22018701171875,-1.0214996337890625,-0.308624267578125,-0.020050048828125
1772536708508236300,6.230236328125,-0.9998016357421875,-0.29815673828125,-0.026519775390625
1772536708518285000,6.24028515625,-0.9807891845703125,-0.280731201171875,-0.03009033203125
1772536708528333300,6.250333251953125,-0.9683837890625,-0.26690673828125,-0.0289764404296875
1772536708538382000,6.260382080078125,-0.96099853515625,-0.2659912109375,-0.0167694091796875
1772536708548431000,6.27043115234375,-0.95086669921875,-0.27410888671875,-0.0035552978515625
1772536708558480100,6.280480224609375,-0.9392242431640625,-0.28558349609375,0.006866455078125
1772536708568529200,6.290529052734375,-0.9407958984375,-0.2919769287109375,0.0180511474609375
1772536708578577200,6.3005771484375,-0.9493255615234375,-0.2971038818359375,0.019866943359375
1772536708588626200,6.310626220703125,-0.956268310546875,-0.30511474609375,0.023193359375
1772536708598675000,6.320675048828125,-0.95343017578125,-0.3099822998046875,0.0277099609375
1772536708608724200,6.33072412109375,-0.9424591064453125,-0.3118743896484375,0.026214599609375
1772536708618772000,6.34077197265625,-0.92645263671875,-0.3103790283203125,0.02459716796875
1772536708628821200,6.3508212890625,-0.9193572998046875,-0.3102569580078125,0.027923583984375
1772536708638870300,6.360870361328125,-0.926239013671875,-0.31109619140625,0.0301055908203125
1772536708648919000,6.3709189453125,-0.933746337890625,-0.3093414306640625,0.0269927978515625
1772536708658968300,6.38096826171875,-0.933074951171875,-0.3036651611328125,0.0234222412109375
1772536708669016000,6.39101611328125,-0.9310302734375,-0.2998046875,0.022308349609375
1772536708679065300,6.4010654296875,-0.9265899658203125,-0.2934722900390625,0.0155792236328125
1772536708689114000,6.411114013671875,-0.92413330078125,-0.283935546875,0.0072479248046875
1772536708699163100,6.4211630859375,-0.9156341552734375,-0.277587890625,-0.0003662109375
1772536708709211100,6.431211181640625,-0.90423583984375,-0.27398681640625,-0.00457763671875
1772536708719260200,6.44126025390625,-0.9005584716796875,-0.276153564453125,-0.0016632080078125
1772536708729309200,6.45130908203125,-0.9012451171875,-0.28375244140625,-0.0008544921875
1772536708739358200,6.461358154296875,-0.894989013671875,-0.28948974609375,0.0002593994140625
1772536708749407000,6.471406982421875,-0.893768310546875,-0.294708251953125,0.006103515625
1772536708759455200,6.481455322265625,-0.89715576171875,-0.3057098388671875,0.013641357421875
1772536708769504000,6.49150390625,-0.9035797119140625,-0.3135528564453125,0.0137939453125
1772536708779553300,6.50155322265625,-0.89801025390625,-0.3088531494140625,0.011077880859375
1772536708789602000,6.51160205078125,-0.894561767578125,-0.303924560546875,0.008026123046875
1772536708799650300,6.521650390625,-0.894775390625,-0.3049163818359375,0.0118865966796875
1772536708809699000,6.531698974609375,-0.8963775634765625,-0.311309814453125,0.0170440673828125
1772536708819748000,6.541748046875,-0.8910675048828125,-0.3136444091796875,0.022674560546875
1772536708829797000,6.551797119140625,-0.8899383544921875,-0.3145904541015625,0.0319671630859375
1772536708839846100,6.56184619140625,-0.8977203369140625,-0.3179779052734375,0.0376434326171875
1772536708849894100,6.57189404296875,-0.90509033203125,-0.324005126953125,0.04241943359375
1772536708859943200,6.581943115234375,-0.90625,-0.32550048828125,0.045867919921875
1772536708869992000,6.591991943359375,-0.9110107421875,-0.325531005859375,0.044097900390625
1772536708880041200,6.602041259765625,-0.9207763671875,-0.3293914794921875,0.042877197265625
1772536708890089000,6.6120888671875,-0.9224700927734375,-0.33453369140625,0.038330078125
1772536708900138200,6.62213818359375,-0.9203948974609375,-0.3369140625,0.0340118408203125
1772536708910187300,6.632187255859375,-0.9276580810546875,-0.339080810546875,0.0294952392578125
1772536708920236000,6.642236083984375,-0.9361572265625,-0.339935302734375,0.02264404296875
1772536708930285300,6.652285400390625,-0.9423980712890625,-0.339569091796875,0.01727294921875
1772536708940333000,6.6623330078125,-0.9461212158203125,-0.343505859375,0.018951416015625
1772536708950382300,6.67238232421875,-0.950347900390625,-0.349365234375,0.0206146240234375
1772536708960431000,6.68243115234375,-0.9507904052734375,-0.3514556884765625,0.0190277099609375
1772536708970480000,6.692480224609375,-0.9475860595703125,-0.3521575927734375,0.0166778564453125
1772536708980529200,6.702529052734375,-0.9533538818359375,-0.357086181640625,0.01849365234375
1772536708990577200,6.7125771484375,-0.9655609130859375,-0.3675079345703125,0.0234222412109375
1772536709000626200,6.722626220703125,-0.972625732421875,-0.3777923583984375,0.0298004150390625
1772536709010675200,6.73267529296875,-0.977996826171875,-0.381866455078125,0.0328826904296875
1772536709020724000,6.742723876953125,-0.98052978515625,-0.3859710693359375,0.03289794921875
1772536709030773200,6.752773193359375,-0.9796905517578125,-0.3887939453125,0.03033447265625
1772536709040821000,6.762821044921875,-0.9833526611328125,-0.3822479248046875,0.0285491943359375
1772536709050870300,6.772870361328125,-0.98828125,-0.3755340576171875,0.0245819091796875
1772536709060919000,6.7829189453125,-0.988861083984375,-0.367340087890625,0.020416259765625
1772536709070968000,6.792968017578125,-0.9867095947265625,-0.3572540283203125,0.0186920166015625
1772536709081016000,6.80301611328125,-0.988525390625,-0.348663330078125,0.016845703125
1772536709091065000,6.813065185546875,-0.9918365478515625,-0.3434906005859375,0.0118255615234375
1772536709101114000,6.823114013671875,-0.987213134765625,-0.336944580078125,0.0108489990234375
1772536709111163100,6.8331630859375,-0.98974609375,-0.329559326171875,0.0111236572265625
1772536709121212200,6.843212158203125,-0.99078369140625,-0.340728759765625,0.0191192626953125
1772536709131260200,6.85326025390625,-0.99176025390625,-0.3679351806640625,0.0328521728515625
1772536709141309000,6.863308837890625,-1.01824951171875,-0.3797149658203125,0.0353851318359375
1772536709151358200,6.873358154296875,-1.0527801513671875,-0.376861572265625,0.0311279296875
1772536709161407200,6.8834072265625,-1.0749053955078125,-0.38250732421875,0.0110626220703125
1772536709171456000,6.8934560546875,-1.089080810546875,-0.3760986328125,-0.0151824951171875
1772536709181504000,6.90350390625,-1.1020050048828125,-0.3493194580078125,-0.038909912109375
1772536709191553000,6.913552978515625,-1.1071929931640625,-0.315765380859375,-0.0597381591796875
1772536709201602300,6.923602294921875,-1.085693359375,-0.29156494140625,-0.084320068359375
1772536709211651000,6.933651123046875,-1.04766845703125,-0.271728515625,-0.095001220703125
1772536709221700000,6.9437001953125,-1.0047454833984375,-0.2595977783203125,-0.0961456298828125
1772536709231748000,6.953748046875,-0.96624755859375,-0.2535552978515625,-0.0908203125
1772536709241797000,6.963797119140625,-0.9459991455078125,-0.2511444091796875,-0.079498291015625
1772536709251846100,6.97384619140625,-0.941131591796875,-0.2565155029296875,-0.0655517578125
1772536709261895200,6.983895263671875,-0.9363250732421875,-0.2665863037109375,-0.0502777099609375
1772536709271943200,6.993943115234375,-0.9335784912109375,-0.2762603759765625,-0.0351409912109375
1772536709281992200,7.0039921875,-0.9341888427734375,-0.2800445556640625,-0.0244598388671875
1772536709292041000,7.014041015625,-0.940032958984375,-0.2806243896484375,-0.021820068359375
1772536709302090200,7.02409033203125,-0.9437103271484375,-0.283966064453125,-0.0283203125
1772536709312139000,7.034138916015625,-0.9403839111328125,-0.288482666015625,-0.03900146484375
1772536709322187300,7.044187255859375,-0.9365997314453125,-0.295684814453125,-0.0453643798828125
1772536709332236000,7.054236083984375,-0.93524169921875,-0.3023681640625,-0.0482177734375
1772536709342285000,7.06428515625,-0.9411773681640625,-0.3091278076171875,-0.0481109619140625
1772536709352334000,7.074333984375,-0.9412841796875,-0.313751220703125,-0.0417022705078125
1772536709362383000,7.084383056640625,-0.93255615234375,-0.3179168701171875,-0.030364990234375
1772536709372431000,7.09443115234375,-0.9311065673828125,-0.3214111328125,-0.0224151611328125
1772536709382480100,7.104480224609375,-0.927215576171875,-0.3248138427734375,-0.0122528076171875
1772536709392529000,7.11452880859375,-0.920684814453125,-0.3236846923828125,-0.006927490234375
1772536709402578200,7.124578125,-0.9088287353515625,-0.3191070556640625,-0.004608154296875
1772536709412626200,7.134626220703125,-0.903533935546875,-0.314239501953125,-0.00457763671875
1772536709422674200,7.144674072265625,-0.893890380859375,-0.31201171875,-0.005035400390625
1772536709432723200,7.15472314453125,-0.8888092041015625,-0.3080291748046875,-0.0069732666015625
1772536709442772200,7.164772216796875,-0.884185791015625,-0.3091583251953125,-0.00885009765625
1772536709452821200,7.1748212890625,-0.87890625,-0.317901611328125,-0.012451171875
1772536709462870000,7.1848701171875,-0.879913330078125,-0.3303680419921875,-0.0149993896484375
1772536709472918300,7.194918212890625,-0.88421630859375,-0.3446044921875,-0.0107421875
1772536709482967000,7.204967041015625,-0.88629150390625,-0.359527587890625,-0.005706787109375
1772536709493016300,7.215016357421875,-0.8860321044921875,-0.3696136474609375,-0.005828857421875
1772536709503065000,7.225065185546875,-0.888519287109375,-0.3758544921875,-0.000274658203125
1772536709513114000,7.235114013671875,-0.8955078125,-0.3845672607421875,0.000640869140625
1772536709523162000,7.245162109375,-0.9035186767578125,-0.388916015625,-0.0015106201171875
1772536709533211100,7.255211181640625,-0.904571533203125,-0.3875274658203125,-0.0115814208984375
1772536709543260200,7.26526025390625,-0.9000091552734375,-0.389129638671875,-0.018829345703125
1772536709553309200,7.27530908203125,-0.898223876953125,-0.3885650634765625,-0.0229949951171875
1772536709563357200,7.285357177734375,-0.90277099609375,-0.3911285400390625,-0.02496337890625
1772536709573406200,7.29540625,-0.9069366455078125,-0.3951568603515625,-0.02239990234375
1772536709583455000,7.305455078125,-0.911163330078125,-0.3952178955078125,-0.0205078125
1772536709593504300,7.315504150390625,-0.9103546142578125,-0.397247314453125,-0.020751953125
1772536709603553000,7.325552978515625,-0.905426025390625,-0.3969573974609375,-0.0139312744140625
1772536709613601300,7.335601318359375,-0.907440185546875,-0.398223876953125,-0.00836181640625
1772536709623650000,7.345650146484375,-0.907135009765625,-0.4037322998046875,-0.0054168701171875
1772536709633699000,7.355698974609375,-0.9110107421875,-0.407867431640625,-0.0011444091796875
1772536709643748400,7.365748291015625,-0.9154815673828125,-0.408050537109375,-0.0005035400390625
1772536709653797000,7.375797119140625,-0.9156494140625,-0.409698486328125,-0.0004119873046875
1772536709663845000,7.38584521484375,-0.9223175048828125,-0.4106903076171875,-0.00054931640625
1772536709673894100,7.39589404296875,-0.9339447021484375,-0.41033935546875,-0.0040740966796875
1772536709683943200,7.405943115234375,-0.9430694580078125,-0.408416748046875,-0.007598876953125
1772536709693992200,7.4159921875,-0.952972412109375,-0.404449462890625,-0.0129547119140625
1772536709704041200,7.426041259765625,-0.9614410400390625,-0.401824951171875,-0.022979736328125
1772536709714089200,7.436089111328125,-0.9623565673828125,-0.396514892578125,-0.0321197509765625
1772536709724138200,7.44613818359375,-0.964385986328125,-0.3897247314453125,-0.041168212890625
1772536709734187000,7.45618701171875,-0.96923828125,-0.3834228515625,-0.0487518310546875
1772536709744236300,7.466236328125,-0.97235107421875,-0.3820953369140625,-0.0546112060546875
1772536709754285000,7.47628515625,-0.9779815673828125,-0.382720947265625,-0.0565948486328125
1772536709764333300,7.486333251953125,-0.97760009765625,-0.3837127685546875,-0.055084228515625
1772536709774382000,7.496382080078125,-0.9741668701171875,-0.3785400390625,-0.0548553466796875
1772536709784431000,7.50643115234375,-0.9726409912109375,-0.3767547607421875,-0.057220458984375
1772536709794480000,7.516480224609375,-0.9759521484375,-0.3738555908203125,-0.051300048828125
1772536709804529200,7.526529052734375,-0.987579345703125,-0.368255615234375,-0.0471343994140625
1772536709814577200,7.5365771484375,-0.9921112060546875,-0.3711700439453125,-0.0396728515625
1772536709824626200,7.546626220703125,-0.980224609375,-0.3773345947265625,-0.02874755859375
1772536709834675200,7.55667529296875,-0.9749755859375,-0.3784637451171875,-0.020538330078125
1772536709844724200,7.56672412109375,-0.9820556640625,-0.372314453125,-0.011138916015625
1772536709854773200,7.576773193359375,-0.996307373046875,-0.36981201171875,0.0023651123046875
1772536709864821200,7.5868212890625,-1.0096435546875,-0.37744140625,0.0087738037109375
1772536709874870000,7.5968701171875,-1.0156097412109375,-0.3853912353515625,0.0092010498046875
1772536709884919000,7.6069189453125,-1.019378662109375,-0.3763275146484375,0.004364013671875
1772536709894968300,7.61696826171875,-1.0179901123046875,-0.355499267578125,-0.013153076171875
1772536709905017000,7.62701708984375,-1.0157470703125,-0.329864501953125,-0.03460693359375
1772536709915065000,7.637065185546875,-1.0217742919921875,-0.305023193359375,-0.05194091796875
1772536709925114000,7.647114013671875,-1.0180206298828125,-0.286224365234375,-0.062835693359375
1772536709935163100,7.6571630859375,-1.00128173828125,-0.268951416015625,-0.0675811767578125
1772536709945212200,7.667212158203125,-0.9855804443359375,-0.2552490234375,-0.05718994140625
1772536709955261200,7.67726123046875,-0.967376708984375,-0.248504638671875,-0.058868408203125
1772536709965309200,7.68730908203125,-0.941162109375,-0.2364959716796875,-0.051483154296875
1772536709975358200,7.697358154296875,-0.93072509765625,-0.23529052734375,-0.04150390625
1772536709985407200,7.7074072265625,-0.9219207763671875,-0.23712158203125,-0.0386962890625
1772536709995456300,7.717456298828125,-0.910858154296875,-0.24658203125,-0.02581787109375
1772536710005505000,7.727505126953125,-0.9007110595703125,-0.25738525390625,-0.0162811279296875
1772536710015553300,7.73755322265625,-0.9001312255859375,-0.2717132568359375,0.0005035400390625
1772536710025602000,7.74760205078125,-0.91363525390625,-0.2847747802734375,0.012847900390625
1772536710035651300,7.7576513671875,-0.9192047119140625,-0.2952423095703125,0.0162200927734375
1772536710045700000,7.7677001953125,-0.9194488525390625,-0.30072021484375,0.014739990234375
1772536710055749000,7.7777490234375,-0.922149658203125,-0.29730224609375,0.01690673828125
1772536710065797000,7.787797119140625,-0.9297943115234375,-0.296905517578125,0.02239990234375
1772536710075846100,7.79784619140625,-0.929595947265625,-0.29266357421875,0.021026611328125
1772536710085895200,7.807895263671875,-0.9298095703125,-0.2867889404296875,0.018798828125
1772536710095944200,7.817944091796875,-0.9365692138671875,-0.285858154296875,0.0185394287109375
1772536710105993200,7.8279931640625,-0.94219970703125,-0.28546142578125,0.0147552490234375
1772536710116042200,7.838042236328125,-0.9520263671875,-0.2825469970703125,0.00982666015625
1772536710126090000,7.848090087890625,-0.964263916015625,-0.2805938720703125,0.0040130615234375
1772536710136139300,7.85813916015625,-0.96478271484375,-0.2797088623046875,0.001800537109375
1772536710146188300,7.868188232421875,-0.9600982666015625,-0.283111572265625,-0.000579833984375
1772536710156237000,7.878237060546875,-0.9537811279296875,-0.2867889404296875,-0.000885009765625
1772536710166286300,7.888286376953125,-0.948455810546875,-0.2891693115234375,0.00274658203125
1772536710176334000,7.898333984375,-0.948455810546875,-0.290374755859375,0.007965087890625
1772536710186383400,7.90838330078125,-0.943939208984375,-0.28607177734375,0.0097198486328125
1772536710196432100,7.91843212890625,-0.92529296875,-0.2805328369140625,0.005157470703125
1772536710206481200,7.928481201171875,-0.9085540771484375,-0.27801513671875,0.0055389404296875
1772536710216530200,7.9385302734375,-0.907623291015625,-0.28106689453125,0.016082763671875
1772536710226578200,7.948578125,-0.9075927734375,-0.2919158935546875,0.0250396728515625
1772536710236627200,7.958627197265625,-0.89910888671875,-0.297454833984375,0.0298004150390625
1772536710246676200,7.96867626953125,-0.8946990966796875,-0.301971435546875,0.030303955078125
1772536710256725000,7.97872509765625,-0.8928375244140625,-0.3126068115234375,0.029754638671875
1772536710266774300,7.988774169921875,-0.8854827880859375,-0.321502685546875,0.0331268310546875
1772536710276822000,7.998822021484375,-0.882904052734375,-0.3274688720703125,0.0350494384765625
1772536710286871300,8.008871337890625,-0.88433837890625,-0.335205078125,0.02984619140625
1772536710296920000,8.018920166015626,-0.88714599609375,-0.336639404296875,0.03192138671875
1772536710306969000,8.028968994140625,-0.8920135498046875,-0.341522216796875,0.037200927734375
1772536710317018400,8.039018310546876,-0.8971099853515625,-0.34906005859375,0.036346435546875
1772536710327066000,8.049066162109375,-0.8978118896484375,-0.355743408203125,0.035614013671875
1772536710337115100,8.059115234375,-0.8926544189453125,-0.3537139892578125,0.03826904296875
1772536710347164200,8.0691640625,-0.9013824462890625,-0.349212646484375,0.0371856689453125
1772536710357213200,8.079213134765626,-0.911834716796875,-0.350067138671875,0.03570556640625
1772536710367262200,8.08926220703125,-0.913330078125,-0.3483734130859375,0.031158447265625
1772536710377310200,8.099310302734375,-0.91680908203125,-0.3478240966796875,0.03253173828125
1772536710387359200,8.109359130859374,-0.9110565185546875,-0.3542327880859375,0.0362701416015625
1772536710397408300,8.119408203125,-0.9161834716796875,-0.3651123046875,0.0384368896484375
1772536710407457000,8.12945703125,-0.9240875244140625,-0.375030517578125,0.043304443359375
1772536710417509600,8.139509521484374,-0.9367828369140625,-0.38494873046875,0.0402984619140625
1772536710427558400,8.149558349609375,-0.9598541259765625,-0.39031982421875,0.0468292236328125
1772536710437606700,8.159606689453126,-0.97784423828125,-0.392425537109375,0.051788330078125
1772536710447655400,8.169655517578125,-0.99591064453125,-0.3973541259765625,0.0484466552734375
1772536710457704400,8.179704345703126,-1.0053253173828125,-0.3932952880859375,0.0439453125
1772536710467753500,8.18975341796875,-1.0099639892578125,-0.390655517578125,0.0303192138671875
1772536710477802500,8.199802490234376,-0.999908447265625,-0.3824005126953125,0.0164337158203125
1772536710487850500,8.2098505859375,-0.99346923828125,-0.371002197265625,-0.0040130615234375
1772536710497899500,8.2198994140625,-0.9817352294921875,-0.3630218505859375,-0.013946533203125
1772536710507948300,8.2299482421875,-0.9671478271484375,-0.360443115234375,-0.019866943359375
1772536710517997600,8.23999755859375,-0.9615020751953125,-0.3617095947265625,-0.0191497802734375
1772536710528046600,8.250046630859375,-0.962158203125,-0.3600006103515625,-0.0070953369140625
1772536710538094600,8.260094482421875,-0.9640350341796875,-0.3631744384765625,0.000457763671875
1772536710548143400,8.270143310546874,-0.9609222412109375,-0.369049072265625,0.008636474609375
1772536710558192400,8.2801923828125,-0.96044921875,-0.376708984375,0.0199127197265625
1772536710568241700,8.29024169921875,-0.958282470703125,-0.385498046875,0.032745361328125
1772536710578290400,8.30029052734375,-0.9770965576171875,-0.39599609375,0.0460968017578125
1772536710588338700,8.310338623046874,-1.006622314453125,-0.394195556640625,0.0408172607421875
1772536710598387500,8.320387451171875,-1.012451171875,-0.3867950439453125,0.0297698974609375
1772536710608436500,8.3304365234375,-1.016143798828125,-0.37579345703125,0.006988525390625
1772536710618485500,8.340485595703125,-1.0106201171875,-0.3659820556640625,-0.0129241943359375
1772536710628534500,8.350534423828124,-1.0111236572265625,-0.363739013671875,-0.0181121826171875
1772536710638583300,8.360583251953125,-1.02386474609375,-0.361602783203125,-0.0304107666015625
1772536710648631600,8.370631591796876,-1.03839111328125,-0.348846435546875,-0.039398193359375
1772536710658680300,8.380680419921875,-1.0507354736328125,-0.335601806640625,-0.0429840087890625
1772536710668729600,8.3907294921875,-1.0528411865234375,-0.3178558349609375,-0.0536956787109375
1772536710678778400,8.4007783203125,-1.0418701171875,-0.2943115234375,-0.066192626953125
1772536710688827400,8.410827392578126,-1.0152587890625,-0.2703857421875,-0.0697479248046875
1772536710698875400,8.42087548828125,-1.0035552978515625,-0.24981689453125,-0.07000732421875
1772536710708924400,8.43092431640625,-0.9884185791015625,-0.2311553955078125,-0.0756683349609375
1772536710718973400,8.440973388671875,-0.9855194091796875,-0.226715087890625,-0.0742645263671875
1772536710729022500,8.4510224609375,-0.9713287353515625,-0.22723388671875,-0.07489013671875
1772536710739071500,8.461071533203125,-0.9609222412109375,-0.2316436767578125,-0.0770111083984375
1772536710749120500,8.47112060546875,-0.9556427001953125,-0.2378997802734375,-0.077423095703125
1772536710759168500,8.48116845703125,-0.957855224609375,-0.2472991943359375,-0.06988525390625
1772536710769217500,8.491217529296875,-0.9705657958984375,-0.2574615478515625,-0.0639495849609375
1772536710779266600,8.5012666015625,-0.9751739501953125,-0.2669677734375,-0.06744384765625
1772536710789315600,8.511315673828125,-0.959381103515625,-0.267791748046875,-0.0755615234375
1772536710799364600,8.521364501953125,-0.944732666015625,-0.269500732421875,-0.0770111083984375
1772536710809412400,8.531412353515625,-0.9399261474609375,-0.27679443359375,-0.074798583984375
1772536710819461600,8.541461669921874,-0.93817138671875,-0.2850341796875,-0.0678558349609375
1772536710829510400,8.551510498046875,-0.9152679443359375,-0.2930145263671875,-0.0594482421875
1772536710839559700,8.5615595703125,-0.894927978515625,-0.301025390625,-0.04345703125
1772536710849608400,8.5716083984375,-0.892425537109375,-0.3041839599609375,-0.0295562744140625
1772536710859657500,8.581657470703124,-0.8925933837890625,-0.30743408203125,-0.0163421630859375
1772536710869705500,8.59170556640625,-0.8921661376953125,-0.3066253662109375,-0.007843017578125
1772536710879754500,8.60175439453125,-0.884979248046875,-0.306732177734375,-0.006439208984375
1772536710889803500,8.611803466796875,-0.869354248046875,-0.3072052001953125,-0.0122833251953125
1772536710899852500,8.6218525390625,-0.862579345703125,-0.308197021484375,-0.0146026611328125
1772536710909901600,8.631901611328125,-0.865142822265625,-0.3136444091796875,-0.0112457275390625
1772536710919949600,8.641949462890626,-0.8681182861328125,-0.3206329345703125,-0.00775146484375
1772536710929998300,8.651998291015625,-0.870635986328125,-0.3265380859375,0.0006866455078125
1772536710940047600,8.662047607421876,-0.870635986328125,-0.3325042724609375,0.0077056884765625
1772536710950096600,8.6720966796875,-0.881317138671875,-0.33837890625,0.0091705322265625
1772536710960145400,8.6821455078125,-0.8898773193359375,-0.3451690673828125,0.0068817138671875
1772536710970193400,8.692193359375,-0.8843231201171875,-0.3494720458984375,0.004852294921875
1772536710980242400,8.702242431640625,-0.8776092529296875,-0.351593017578125,0.0015869140625
1772536710990291700,8.712291748046875,-0.8804779052734375,-0.3545379638671875,0.0045166015625
1772536711000340500,8.722340576171876,-0.8914947509765625,-0.356689453125,0.0053558349609375
1772536711010389500,8.732389404296875,-0.8980865478515625,-0.36151123046875,0.0079345703125
1772536711020438500,8.7424384765625,-0.902984619140625,-0.3646392822265625,0.00738525390625
1772536711030486500,8.752486572265624,-0.909515380859375,-0.3669586181640625,0.0054931640625
1772536711040535600,8.76253564453125,-0.914093017578125,-0.37176513671875,0.000457763671875
1772536711050584600,8.77258447265625,-0.91729736328125,-0.376007080078125,0.00054931640625
1772536711060633300,8.78263330078125,-0.9195556640625,-0.3744049072265625,0.0002899169921875
1772536711070682600,8.7926826171875,-0.914031982421875,-0.372528076171875,-0.002838134765625
1772536711080730400,8.80273046875,-0.9148101806640625,-0.3679351806640625,-0.0030364990234375
1772536711090779600,8.812779541015624,-0.92132568359375,-0.370880126953125,-0.0032196044921875
1772536711100828400,8.822828369140625,-0.9218902587890625,-0.3776397705078125,-0.0006103515625
1772536711110877400,8.83287744140625,-0.923095703125,-0.3828125,-0.00018310546875
1772536711120926700,8.8429267578125,-0.928192138671875,-0.3874664306640625,0.00335693359375
1772536711130975500,8.8529755859375,-0.9369659423828125,-0.3965911865234375,0.0079498291015625
1772536711141023500,8.8630234375,-0.9453582763671875,-0.405670166015625,0.0142059326171875
1772536711151072500,8.873072509765626,-0.9546966552734375,-0.41436767578125,0.02117919921875
1772536711161121500,8.88312158203125,-0.96142578125,-0.418548583984375,0.0177764892578125
1772536711171170600,8.893170654296876,-0.96484375,-0.417327880859375,0.0063629150390625
1772536711181219600,8.903219482421875,-0.9733428955078125,-0.4145355224609375,-0.0028228759765625
1772536711191267600,8.913267578125,-0.990966796875,-0.4083099365234375,-0.0119476318359375
1772536711201316600,8.923316650390625,-1.00848388671875,-0.400177001953125,-0.01971435546875
1772536711211365400,8.933365478515626,-1.0165252685546875,-0.3918304443359375,-0.02508544921875
1772536711221414700,8.94341455078125,-1.009063720703125,-0.39520263671875,-0.0156097412109375
1772536711231463400,8.95346337890625,-0.99237060546875,-0.4160614013671875,-0.006744384765625
1772536711241512400,8.963512451171875,-1.004547119140625,-0.41595458984375,0.007232666015625
1772536711251560400,8.973560546875,-1.050384521484375,-0.4004058837890625,0.0209808349609375
1772536711261609500,8.983609375,-1.07928466796875,-0.3868408203125,0.0238494873046875
1772536711271658500,8.993658447265625,-1.071044921875,-0.369659423828125,0.0167388916015625
1772536711281707500,9.00370751953125,-1.0567779541015625,-0.3443603515625,0.0074615478515625
1772536711291756300,9.01375634765625,-1.05499267578125,-0.31298828125,-0.0005950927734375
1772536711301804500,9.023804443359374,-1.0577545166015625,-0.2855987548828125,-0.0018310546875
1772536711311853300,9.033853271484375,-1.036895751953125,-0.268829345703125,-0.015899658203125
1772536711321902600,9.043902587890624,-1.0105743408203125,-0.2558746337890625,-0.0059356689453125
1772536711331951600,9.05395166015625,-0.9940643310546875,-0.252227783203125,0.005462646484375
1772536711342000400,9.06400048828125,-0.9875640869140625,-0.25787353515625,0.021240234375
1772536711352049700,9.074049560546875,-0.9902496337890625,-0.2683258056640625,0.03460693359375
1772536711362097400,9.084097412109376,-0.9912872314453125,-0.2631378173828125,0.0450286865234375
1772536711372146700,9.094146728515625,-0.9830780029296875,-0.2595672607421875,0.051116943359375
1772536711382195500,9.104195556640626,-0.97479248046875,-0.269622802734375,0.0568389892578125
1772536711392244500,9.114244384765625,-0.9680023193359375,-0.267913818359375,0.048736572265625
1772536711402293500,9.12429345703125,-0.9452972412109375,-0.2706298828125,0.0488433837890625
1772536711412339500,9.13433935546875,-0.919677734375,-0.2714385986328125,0.0450592041015625
1772536711422387500,9.144387451171875,-0.914154052734375,-0.26373291015625,0.0537109375
1772536711432436500,9.1544365234375,-0.917266845703125,-0.2600250244140625,0.0544891357421875
1772536711442485200,9.1644853515625,-0.915618896484375,-0.2547607421875,0.0628662109375
1772536711452534500,9.174534423828124,-0.912872314453125,-0.2505645751953125,0.0711212158203125
1772536711462583300,9.184583251953125,-0.9092254638671875,-0.252471923828125,0.07244873046875
1772536711472631600,9.194631591796876,-0.887420654296875,-0.2557373046875,0.07037353515625
1772536711482680300,9.204680419921875,-0.87255859375,-0.256256103515625,0.0732574462890625
1772536711492729300,9.214729248046876,-0.9171142578125,-0.2618560791015625,0.0795440673828125
1772536711502778400,9.2247783203125,-0.931915283203125,-0.2763671875,0.0770263671875
1772536711512827400,9.234827392578126,-0.940704345703125,-0.280975341796875,0.0850067138671875
1772536711522876200,9.244876220703125,-0.96380615234375,-0.27984619140625,0.081207275390625
1772536711532924400,9.25492431640625,-0.9703826904296875,-0.2756805419921875,0.0648956298828125
1772536711542973200,9.26497314453125,-0.9724884033203125,-0.25921630859375,0.0477447509765625
1772536711553022500,9.2750224609375,-0.987701416015625,-0.24676513671875,0.0458221435546875
1772536711563071500,9.285071533203125,-0.9868927001953125,-0.2438201904296875,0.024658203125
1772536711573120300,9.295120361328125,-0.9649200439453125,-0.2395172119140625,0.01220703125
