time,seconds_elapsed,z,y,x
1772536702343357400,0.065357421875,-0.16111819819509982,0.11757833167612552,-0.2895552478148602
1772536702353406500,0.075406494140625,-0.1428629950582981,0.10577712698429823,-0.3278914264772087
1772536702363454500,0.085454345703125,-0.006835983499884605,0.14974603257030247,-0.3660764514321461
1772536702373503500,0.09550341796875,0.0595043283700943,0.2008876062646508,-0.34031127452403304
1772536702383552300,0.10555224609375,0.1110305174678564,0.24445728339999911,-0.3408071317495778
1772536702393600500,0.1156005859375,0.20054946035146712,0.2514215694546699,-0.3062065228863619
1772536702403649000,0.12564892578125,0.20611177065372466,0.22001462379992007,-0.25681950124176217
1772536702413697000,0.135697021484375,0.2697141819924116,0.18314590560793875,-0.31122188509665427
1772536702423746000,0.14574609375,0.39146892257034777,0.12482143467217684,-0.3742501132765785
1772536702433795000,0.155795166015625,0.4940682963013649,0.06132219144701957,-0.41851559065636246
1772536702443842800,0.1658427734375,0.4728711944937706,-0.028727497312426565,-0.37960524710156024
1772536702453892000,0.17589208984375,0.377184376630187,-0.21625293317884206,-0.31327216868996616
1772536702463941000,0.185941162109375,0.3244213392138481,-0.43537265396565195,-0.25407182823512703
1772536702473989000,0.195989013671875,0.2635457224905491,-0.5443596829071641,-0.1989526561466977
1772536702484038100,0.2060380859375,0.15342647464871406,-0.6261705356314778,-0.12926858680676667
1772536702494086100,0.216086181640625,0.11983049451708792,-0.716296504497528,-0.10330419753212482
1772536702504135000,0.226135009765625,0.17773089482188223,-0.7583069694921374,-0.1184936198901385
1772536702514184000,0.236183837890625,0.24497955370843408,-0.7668132242918014,-0.14600852654241026
1772536702524232000,0.24623193359375,0.2963514290273189,-0.7745590161129832,-0.2092558773657307
1772536702534281000,0.256281005859375,0.3572065874844789,-0.7890916915953159,-0.2749151116363704
1772536702544330200,0.266330322265625,0.4041384345293045,-0.8348892739132047,-0.3192395526617765
1772536702554378000,0.2763779296875,0.4481482566475868,-0.8875628794804215,-0.34205621849521994
1772536702564427000,0.286427001953125,0.46104807023108,-0.9308290436245501,-0.3418704135995358
1772536702574475000,0.29647509765625,0.4052098631531,-0.9836717221483587,-0.3351097238255665
1772536702584524000,0.30652392578125,0.3795861770749092,-1.0474240633517504,-0.32821433828864244
1772536702594573000,0.316572998046875,0.3956996920078993,-1.1275887563042342,-0.32484840551950034
1772536702604621000,0.32662109375,0.3936778307914734,-1.1825284071072935,-0.29091687329057603
1772536702614670000,0.336670166015625,0.3550198910951614,-1.2398835946194826,-0.2666257144577801
1772536702624718800,0.34671875,0.2859358334749937,-1.176663898988068,-0.23339794658403842
1772536702634767000,0.35676708984375,0.21936989615559577,-1.0974984462060033,-0.2867068178474903
1772536702644816000,0.36681591796875,0.23382746057510376,-1.4255806460149585,-0.4227179011844098
1772536702654864100,0.376864013671875,0.16424889743626117,-1.3576945660077036,-0.3960374360622838
1772536702664913000,0.386912841796875,0.11728431716561316,-1.1391096827499567,-0.3417078069163486
1772536702674962000,0.3969619140625,0.18755963039696216,-1.1730221814848483,-0.30857005541361865
1772536702685010000,0.407010009765625,0.2247708784162998,-1.2587353023447097,-0.2974512434953824
1772536702695059000,0.417058837890625,0.17429390611052512,-1.2685273591712116,-0.27429898903202266
1772536702705108000,0.42710791015625,0.12958499581217764,-1.2851169671833513,-0.2142199660465121
1772536702715156000,0.437156005859375,0.11866378882527351,-1.347750241228938,-0.203084933645837
1772536702725205000,0.447205078125,0.09958324078023433,-1.3549844302661715,-0.22913561296444385
1772536702735254000,0.45725390625,0.10613982281684875,-1.3628686076447367,-0.24370624583698808
1772536702745302000,0.467302001953125,0.10494389103054999,-1.391338184673339,-0.20834131980407983
1772536702755351000,0.47735107421875,-0.006974515187740326,-1.412806212376803,-0.1668077150736004
1772536702765399000,0.48739892578125,-0.13489596170186996,-1.3910149440683424,-0.18528328296281396
1772536702775448000,0.497447998046875,-0.1156663605749607,-1.2816868466041982,-0.19140596709419042
1772536702785496800,0.507496826171875,-0.027573651102185247,-1.2385256041392683,-0.23217421347536146
1772536702795545000,0.517545166015625,-0.14265081361234186,-1.3148565641477703,-0.3057693187791854
1772536702805593900,0.52759375,-0.4642822298467159,-1.4566174431830643,-0.3168339893573895
1772536702815643100,0.53764306640625,-0.5097884280025958,-1.3964981977850197,-0.16427578544318674
1772536702825691000,0.54769091796875,-0.494336591848731,-1.1595178261369465,-0.11472754535488784
1772536702835740200,0.557740234375,-0.5863683943361043,-0.9228273773461579,-0.15993651412986218
1772536702845789000,0.567788818359375,-0.6754787564188242,-0.7348992058977484,-0.19571400301903485
1772536702855837200,0.577837158203125,-0.6406763231068849,-0.5490864191681146,-0.2154781494140625
1772536702865886000,0.587885986328125,-0.5872124439448118,-0.36188626973330973,-0.1430776607222855
1772536702875934000,0.597933837890625,-0.6018266602307558,-0.19364976396560668,-0.104592812570557
1772536702885983000,0.60798291015625,-0.6165238786250352,0.046320437148213385,-0.12570377046465872
1772536702896032000,0.618031982421875,-0.5176718747287988,0.23249445840567348,-0.08900960512198507
1772536702906080000,0.628080078125,-0.3558341300874948,0.30627865654081105,-0.013941796917095779
1772536702916129000,0.63812890625,-0.29631694223582744,0.3318839301794767,0.10558291958644986
1772536702926178000,0.648177978515625,-0.33036592683196064,0.35705198144465683,0.3069097940512001
1772536702936225800,0.658225830078125,-0.36071254977881906,0.31165128948986526,0.4823492169350385
1772536702946275000,0.668275146484375,-0.384148370423913,0.24012568393647668,0.5696187734566629
1772536702956322800,0.67832275390625,-0.37429859206080435,0.27002543989866973,0.60163683674708
1772536702966372000,0.6883720703125,-0.3519961593598127,0.3837432967543602,0.6253581963352859
1772536702976421000,0.698421142578125,-0.38726562566161155,0.4278609631612897,0.6968239614602177
1772536702986469000,0.70846923828125,-0.34081191752254963,0.4019575833588838,0.742089044336602
1772536702996518000,0.718517822265625,-0.2505623222768307,0.4076201391652226,0.76318137059547
1772536703006567000,0.72856689453125,-0.22662205924093723,0.4133426084652543,0.7870764793153852
1772536703016615000,0.738614990234375,-0.18283669352829454,0.4265016575068235,0.855808800888434
1772536703026664000,0.748663818359375,-0.14134090005755423,0.4185609276354313,0.9104202426504343
1772536703036713000,0.758712890625,-0.11463935561478138,0.41126697123497724,0.9689943044330924
1772536703046761000,0.768760986328125,-0.11341712034344673,0.388896733994782,1.0261823917500674
1772536703056810000,0.77881005859375,-0.1052092639684677,0.3640855333432555,1.053443542836979
1772536703066858000,0.78885791015625,-0.1685743594199419,0.37254561091363425,1.140247162347287
1772536703076907000,0.798906982421875,-0.24722002611160276,0.36766251504719255,1.2196378752525896
1772536703086956000,0.8089560546875,-0.2796206589788198,0.3361997475519776,1.2652005528360604
1772536703097004000,0.819004150390625,-0.24127134684026239,0.3298129691243171,1.2287637963205575
1772536703107053000,0.829052978515625,-0.17579671188890933,0.3687058866202831,1.1484777420107275
1772536703117101800,0.839101806640625,-0.14526654906868933,0.44246991875022645,1.0622172894664108
1772536703127150000,0.849150146484375,-0.08294657875597476,0.49099049629122016,0.9900998554997146
1772536703137198800,0.85919873046875,0.05914426288604736,0.5499094259887933,0.9345006448093801
1772536703147248000,0.869248046875,0.2037397808253765,0.5549401136323809,0.8582352243177592
1772536703157295900,0.8792958984375,0.2889227403312921,0.5498895522445439,0.7565141677912324
1772536703167345200,0.88934521484375,0.4492582637161016,0.5147483884975314,0.6859749429266899
1772536703177394000,0.899393798828125,0.6483364824712277,0.4205862959831953,0.6453845007978379
1772536703187442200,0.909442138671875,0.7355886494666337,0.3188660431742668,0.6686600163146853
1772536703197491000,0.919490966796875,0.7214578327834605,0.20612024622112513,0.7280597883317619
1772536703207539200,0.929539306640625,0.7044809790194034,0.04214724311679601,0.8297150130804628
1772536703217588000,0.939587890625,0.7111363452553748,-0.06411240668743848,0.8993450141455978
1772536703227637000,0.949636962890625,0.6996154188096523,-0.09565700724720955,0.912023366998136
1772536703237685000,0.95968505859375,0.664686144247651,-0.09895546427071093,0.9540716797851025
1772536703247734000,0.969734130859375,0.6541197420477867,-0.1330073714762926,0.9710223761945962
1772536703257783000,0.979782958984375,0.6429863536149263,-0.15270225202739238,0.9754016872573643
1772536703267831000,0.9898310546875,0.6405798769950867,-0.185726569750905,0.9135147745996713
1772536703277880000,0.999880126953125,0.6440671345889568,-0.22029811691641807,0.8359836450211703
1772536703287929000,1.00992919921875,0.6040332303643227,-0.23401070818752048,0.7729610063318163
1772536703297977000,1.01997705078125,0.5628343740135431,-0.27943916493207216,0.7154946135301142
1772536703308026000,1.030026123046875,0.5508908382415771,-0.35437954736500976,0.7036972812958061
1772536703318075000,1.040074951171875,0.5076502469301224,-0.4019046841278672,0.6866331876397133
1772536703328123100,1.050123046875,0.3801221836477518,-0.465889665043354,0.6476528841212391
1772536703338172000,1.060171875,0.21794074013531206,-0.4054927717477083,0.693776629653573
1772536703348220200,1.07022021484375,0.16475684695839882,-0.4162421292990446,0.6058861647546291
1772536703358269000,1.08026904296875,0.4408627758145332,-0.9761460028186439,0.6114937024381011
1772536703368318200,1.090318115234375,0.23358429946899412,-0.9018626229897141,0.7217725978210568
1772536703378366000,1.100365966796875,-0.0016273089408874511,-0.6908008287131786,0.8209848863970488
1772536703388415000,1.1104150390625,-0.03598433657288551,-0.7583984471678733,0.8531594554234295
1772536703398464000,1.120464111328125,-0.035815409746766086,-0.8329559677630662,0.8254021913826465
1772536703408511700,1.13051171875,-0.02953472204208374,-0.8007020498901605,0.8026147516436875
1772536703418560800,1.140560791015625,0.02474924133121967,-0.8158820833653211,0.7666406442038715
1772536703428609800,1.15060986328125,0.16410101339817046,-0.8946542990460992,0.7538479442566632
1772536703438657800,1.16065771484375,0.2114344269812107,-0.9582856442183255,0.7738054212667047
1772536703448706800,1.170706787109375,0.17639409326016903,-0.9848790521115064,0.8057188551388681
1772536703458755800,1.180755859375,0.11125497387349605,-1.0257987992599606,0.8576536250375211
1772536703468803600,1.190803466796875,0.0872585967361927,-1.034087904177606,0.8601881850164383
1772536703478852900,1.200852783203125,0.10237608636915684,-0.9756740013927221,0.8800505310889333
1772536703488900600,1.210900634765625,0.12954933997690676,-0.8924152879476547,0.9129222155340015
1772536703498950000,1.220949951171875,0.1616466059833765,-0.828204389321804,0.8831763349592685
1772536703508998700,1.23099853515625,0.233355166888237,-0.7487751710370183,0.8323435349531472
1772536703519046700,1.241046630859375,0.2738216173112392,-0.6476198586344718,0.7558855875641107
1772536703529095700,1.251095703125,0.21336101112961767,-0.586945317441225,0.6779655317332595
1772536703539144700,1.261144775390625,0.14358546411395073,-0.552815668824315,0.648084334341064
1772536703549192700,1.271192626953125,0.03931494230031967,-0.5158712550476193,0.6267045694429427
1772536703559241700,1.28124169921875,-0.049506665968894956,-0.463899660269916,0.5809238286620005
1772536703569290800,1.291290771484375,-0.15856851371228695,-0.4396156983628869,0.561776608588919
1772536703579338800,1.3013388671875,-0.2563888364732265,-0.504961446237564,0.5822634432353079
1772536703589387800,1.3113876953125,-0.3997276323497295,-0.5563078948542476,0.5315875873565673
1772536703599436800,1.321436767578125,-0.5342039073348045,-0.4902779641076922,0.446746792351827
1772536703609484800,1.33148486328125,-0.6765098530322313,-0.42588089525997636,0.4449016028765589
1772536703619533800,1.341533935546875,-0.8464578388929367,-0.4006193204924464,0.4452076366184279
1772536703629582600,1.35158251953125,-0.9682903208822011,-0.39519875674843785,0.3772726029029116
1772536703639630800,1.361630859375,-1.0705927574932574,-0.30690877113789317,0.1922997010635212
1772536703649679600,1.3716796875,-1.1396557723253964,-0.060547992204129694,0.07581005967324599
1772536703659728600,1.381728759765625,-1.1794190429151057,0.15125643713325262,-0.057649841343518346
1772536703669776600,1.391776611328125,-1.0820610769689083,0.2663838685259223,-0.22119857288748024
1772536703679825700,1.40182568359375,-0.8970838642805814,0.32677988503873345,-0.33382362953778355
1772536703689873700,1.411873779296875,-0.7073702707201242,0.4150336302921176,-0.36472708264980463
1772536703699922700,1.421922607421875,-0.5301718753397464,0.4992430685907602,-0.3814620174167678
1772536703709971700,1.4319716796875,-0.39713703133463857,0.4694181314304471,-0.3771887970769778
1772536703720019700,1.442019775390625,-0.27008184626102444,0.4294762894034385,-0.3299322846550494
1772536703730068700,1.45206884765625,-0.1802162818968296,0.37128538171947,-0.25353677151035514
1772536703740117800,1.46211767578125,-0.16975684720277787,0.33951398666650057,-0.1561892538929358
1772536703750165800,1.472165771484375,-0.2636427531242371,0.37251959968954323,-0.18172973693339153
1772536703760214800,1.48221484375,-0.2234896064341068,0.4255611617863178,-0.34385767842661585
1772536703770263600,1.492263671875,-0.042754269099235534,0.49616234597116704,-0.4403706814486533
1772536703780311800,1.502311767578125,0.06795885298252105,0.5099550167411565,-0.47595418213568624
1772536703790360600,1.512360595703125,0.08359773614108562,0.44706776793450115,-0.48954815199580043
1772536703800409900,1.522409912109375,0.11550152540206908,0.3669619655624032,-0.48539950788374986
1772536703810457600,1.53245751953125,0.1842512365013361,0.2867448117703199,-0.46026842762809245
1772536703820507000,1.5425068359375,0.3312187442690134,0.22703268586844205,-0.4208151363030076
1772536703830555600,1.5525556640625,0.45783495340347286,0.13609569288045167,-0.33836299000047143
1772536703840604000,1.56260400390625,0.5532873779892921,0.02983312046676874,-0.1962433058564551
1772536703850652700,1.572652587890625,0.6249889246314764,-0.0807967072457075,-0.05959128056776244
1772536703860701700,1.58270166015625,0.645678076916933,-0.17912147239744663,-0.034159788026846945
1772536703870749700,1.592749755859375,0.6760264534294604,-0.20886136162281035,0.014672979002166539
1772536703880798700,1.602798828125,0.7638041056036948,-0.22500410265028475,0.010343635427812114
1772536703890847700,1.61284765625,0.8723468979090452,-0.25302520525902505,-0.018428952268511056
1772536703900895700,1.622895751953125,0.8353057457596064,-0.2649026900574565,-0.011527867643162607
1772536703910944800,1.63294482421875,0.7457382875591516,-0.3225131675049662,-0.04950482107168063
1772536703920993800,1.642993896484375,0.8234563180118799,-0.3964782751649618,-0.116270537013188
1772536703931041800,1.653041748046875,0.9123749569147824,-0.41193186488449574,-0.07304185533523559
1772536703941090800,1.6630908203125,0.9044137687772512,-0.44380116735398767,0.013034290150739251
1772536703951139600,1.6731396484375,0.8423889820188284,-0.48052054020315405,0.053856002018507564
1772536703961187800,1.683187744140625,0.7469085003823042,-0.5154778718158602,0.10698858513329178
1772536703971236600,1.693236572265625,0.6558282995313406,-0.5320329930365085,0.13963959429869427
1772536703981286000,1.703285888671875,0.5924678802549839,-0.5488651776328682,0.12008934638267382
1772536703991333600,1.713333740234375,0.5145160410463809,-0.5354696894869208,0.1147465971152298
1772536704001383000,1.7233828125,0.4348901311457157,-0.5225079165831208,0.10853884678259491
1772536704011431700,1.733431640625,0.3796335233479738,-0.5414072628423571,0.12264483041861093
1772536704021480000,1.74347998046875,0.3029541882932186,-0.5597209181681275,0.15909332303768023
1772536704031528700,1.75352880859375,0.3123603145420551,-0.5736179260954261,0.14651653086347505
1772536704041577700,1.76357763671875,0.3954536082923412,-0.5642515473350882,0.07022408080103341
1772536704051625700,1.773625732421875,0.4469762902587652,-0.570654400114715,0.02353056342357304
1772536704061674800,1.7836748046875,0.4528507352501154,-0.5969020633101463,-0.04213547961376607
1772536704071723800,1.793723876953125,0.489679705953598,-0.6359568933695554,-0.048726274447236206
1772536704081771800,1.803771728515625,0.4725193123161793,-0.6972951591685413,0.06309923845636659
1772536704091820800,1.81382080078125,0.3768406777590513,-0.7697729508802295,0.14847746480605564
1772536704101869800,1.823869873046875,0.4106646214276552,-0.8892804970532655,0.16547895068787039
1772536704111917800,1.833917724609375,0.4829337388247251,-0.9352163187980651,0.2396815568981692
1772536704121966800,1.843966796875,0.4206231208622455,-0.9788394796863198,0.2949803416035138
1772536704132015600,1.854015625,0.30913024657964705,-1.0401187087744475,0.326664661161229
1772536704142063900,1.86406396484375,0.2398246551632881,-1.0684764959916473,0.322899865267612
1772536704152112600,1.874112548828125,0.2115133374363184,-1.0980237852543593,0.2918222246324643
1772536704162162000,1.884161865234375,0.1305418581455946,-1.117367952671647,0.2961734786445275
1772536704172209700,1.894209716796875,-0.04211772476136684,-1.076914069469273,0.2552547361430712
1772536704182259000,1.904259033203125,-0.19724106645584105,-1.0290084089562297,0.21400170191964132
1772536704192307700,1.9143076171875,-0.325436069214344,-0.9622434419333934,0.1609452162483707
1772536704202356000,1.92435595703125,-0.39190146876871584,-0.8526178228273987,0.04482618000246584
1772536704212404700,1.93440478515625,-0.4092266975790262,-0.707236415207386,-0.053190359450317914
1772536704222453800,1.944453857421875,-0.38779637153744695,-0.6270321208968758,-0.10395654222732409
1772536704232501800,1.954501708984375,-0.3641916240662336,-0.6388739498600363,-0.03952755300453864
1772536704242550800,1.96455078125,-0.4799100070893764,-0.6748232151195407,0.083457679216424
1772536704252599800,1.974599853515625,-0.6143576405018568,-0.6977560546785593,0.13938037710692733
1772536704262647800,1.984647705078125,-0.8402098844140767,-0.6448217523485422,0.10659065359057858
1772536704272696800,1.99469677734375,-0.9501578673422336,-0.4957499657779932,0.03158178163184784
1772536704282745900,2.004745849609375,-0.9665034374654292,-0.3736038877949118,-0.002128481662366539
1772536704292793900,2.0147939453125,-0.9874474412947892,-0.2744736514791846,0.012419809230917598
1772536704302843000,2.0248427734375,-1.0692670618474482,-0.14314210426062346,0.0029085974769230234
1772536704312891600,2.0348916015625,-1.155212822419405,0.04146569059342146,-0.012000830333598424
1772536704322939600,2.044939697265625,-1.163791850194335,0.24187661925703285,-0.035834680702816694
1772536704332988700,2.05498876953125,-1.0373194334447384,0.34136107583791014,-0.07340607183801476
1772536704343038000,2.065037841796875,-0.875405700957775,0.42903409859389063,-0.09720877586700953
1772536704353085700,2.075085693359375,-0.750472914865613,0.5342956772714853,-0.12238763165399431
1772536704363135000,2.085135009765625,-0.5106880071908235,0.5833624905183911,-0.114404597010836
1772536704373183700,2.095183837890625,-0.2177700597435236,0.542567538793385,-0.061962389046698804
1772536704383231700,2.105231689453125,-0.05612579184770584,0.430922688819468,0.029223824895429424
1772536704393280800,2.11528076171875,0.025366496446728705,0.3326666049897671,0.09564677811414003
1772536704403329800,2.125329833984375,0.059654550495743745,0.3230196557223797,0.18009101154934615
1772536704413377800,2.135377685546875,0.013638064730167388,0.32423692255765196,0.3189072154348716
1772536704423426800,2.1454267578125,0.008978840747475623,0.2951873536840081,0.36432420093733814
1772536704433476000,2.15547607421875,0.13728256457746027,0.291409004189074,0.39348756891638037
1772536704443523800,2.16552392578125,0.25281039346456524,0.3279676335185766,0.47348059509638696
1772536704453572900,2.17557275390625,0.2667506560117006,0.3491054063543677,0.5724922100011259
1772536704463622000,2.185621826171875,0.24861644890606402,0.35890637713968754,0.5716126141550019
1772536704473670000,2.195669921875,0.34946810218691826,0.3909939985349774,0.5353880025528371
1772536704483719000,2.205718994140625,0.4655816220074892,0.4411319481447339,0.5556481523038819
1772536704493768000,2.215767822265625,0.4014899658471346,0.46605742282569407,0.5801121104203164
1772536704503816000,2.22581591796875,0.3548030334740877,0.4281055855721235,0.6036327598046511
1772536704513865000,2.235864990234375,0.3812450501978397,0.38800972202718254,0.5878293337341398
1772536704523914000,2.2459140625,0.4362169958353042,0.41148382885605095,0.5679368482517079
1772536704533961700,2.255961669921875,0.43282559983134267,0.4371829182580113,0.5677135974224656
1772536704544010800,2.2660107421875,0.3480371926009655,0.41150779425352807,0.5753680576983838
1772536704554060000,2.27606005859375,0.35187457880675793,0.318792977938056,0.6156541100531816
1772536704564107800,2.286107666015625,0.43153263741135595,0.2510138654366135,0.6733200440149754
1772536704574156800,2.29615673828125,0.48617432818114753,0.21977409304231404,0.7313030811019241
1772536704584205800,2.306205810546875,0.4675508762538433,0.17407178779244423,0.7911519851259887
1772536704594254800,2.3162548828125,0.48231823727488515,0.10499503669589758,0.8121479383382946
1772536704604302800,2.326302734375,0.5431055911928415,0.09057751202583313,0.8271452356576919
1772536704614352000,2.336351806640625,0.6301251184761524,0.08700520649701356,0.8309410477440804
1772536704624400000,2.34639990234375,0.6386930403351784,0.06844312936812638,0.8363364039815961
1772536704634448600,2.35644873046875,0.6052402680665254,0.014566285490989685,0.8456473992928862
1772536704644498000,2.366497802734375,0.6073872169673442,-0.044643443846702574,0.8682558292031287
1772536704654547000,2.376546875,0.6072282270133494,-0.07489829685688018,0.9444644049409776
1772536704664595000,2.386594970703125,0.597204845649004,-0.10929945589154957,0.9794888835057616
1772536704674644000,2.39664404296875,0.536720858591795,-0.09019143531769513,1.0139284017894417
1772536704684692700,2.406692626953125,0.43783261433839793,-0.06593173106908798,1.015687374285981
1772536704694740700,2.41674072265625,0.38710429762005805,-0.023079554553329943,0.9573113192934543
1772536704704789800,2.426789794921875,0.36615386404991146,0.02092676043361425,0.9323955622889101
1772536704714839000,2.436839111328125,0.3071989862561226,0.021426818910241126,0.9581563918154686
1772536704724886800,2.44688671875,0.2207189726769924,0.002884615525603294,1.0234541358299554
1772536704734935800,2.456935791015625,0.18839900383055208,-0.08295563884526491,1.0621611753650009
1772536704744984800,2.46698486328125,0.17305588874816893,-0.18159224642515182,1.108606992458552
1772536704755032800,2.47703271484375,0.13342062845230102,-0.2103901786252856,1.0773165858555585
1772536704765081900,2.487081787109375,0.04948445413708687,-0.1729050821006298,1.013316480436176
1772536704775131000,2.497130859375,-0.06010287878513336,-0.19923253253400325,0.9601661972679197
1772536704785179000,2.507178955078125,-0.08716156610250472,-0.320950740493834,0.9130168350148945
1772536704795227600,2.5172275390625,-0.07973521549403667,-0.43134968205988405,0.8956380493864416
1772536704805277000,2.52727685546875,-0.17388766339719294,-0.4762184590950608,0.8491434247151016
1772536704815324700,2.53732470703125,-0.24949907695949075,-0.4850426938027143,0.7599882736425846
1772536704825374000,2.5473740234375,-0.16953122175335883,-0.5106529358774423,0.6903640447311103
1772536704835423000,2.557423095703125,-0.10987141056060791,-0.5315107227280735,0.6475483277682215
1772536704845471700,2.5674716796875,-0.11525777977406979,-0.6102247784808278,0.6282737915210426
1772536704855519700,2.577519775390625,-0.08541267660856247,-0.7190779519096017,0.6333469300668686
1772536704865568800,2.58756884765625,-0.034625907701253886,-0.802967072212696,0.6342157487906516
1772536704875618000,2.5976181640625,-0.0569248332709074,-0.8370975976124405,0.6461926023103296
1772536704885665800,2.607665771484375,-0.13154898936152457,-0.8641250130087137,0.6145668262731283
1772536704895714800,2.61771484375,-0.13819851037859915,-0.8632543676540255,0.5611417812841013
1772536704905763800,2.627763916015625,-0.14636311213374137,-0.7846455258414149,0.5390122574646026
1772536704915811800,2.637811767578125,-0.21046470516622065,-0.6847177094072103,0.49902186358813194
1772536704925860900,2.64786083984375,-0.22060323734283446,-0.6328925373628735,0.3999266985857859
1772536704935910000,2.657909912109375,-0.20147943467795848,-0.5868289975851774,0.3673819810727611
1772536704945958000,2.6679580078125,-0.23093524626493453,-0.47109746281951664,0.27233517814576624
1772536704956006700,2.678006591796875,-0.25963001035153865,-0.3419818380847573,0.1546420975161716
1772536704966056000,2.688055908203125,-0.2388175239473581,-0.27889906670600173,0.018230169160244985
1772536704976103700,2.698103759765625,-0.25549101085066794,-0.33325054235756396,-0.026932289025303906
1772536704986153000,2.708153076171875,-0.3163894239276647,-0.42366935669034717,-0.007497280969808343
1772536704996202000,2.718201904296875,-0.4647212057858705,-0.41371699473559853,0.051869339979626235
1772536705006250800,2.728250732421875,-0.6299941855728626,-0.48289808298945425,0.10576258700229227
1772536705016298800,2.738298828125,-0.7153443183392286,-0.6407675085216761,0.11704859958044253
1772536705026347800,2.74834765625,-0.7690864299207926,-0.758663820105791,0.06722983545507304
1772536705036397000,2.75839697265625,-0.7640794154137373,-0.6872878521561622,0.07331855338476598
1772536705046444800,2.76844482421875,-0.8774217169553041,-0.5088336114957929,0.06009103308371268
1772536705056493800,2.778493896484375,-0.8923352084487676,-0.31606267619132994,-0.035590295754000544
1772536705066542800,2.78854296875,-0.7928045746386051,-0.1625274804711342,-0.08124899932416156
1772536705076590800,2.7985908203125,-0.6914525706201792,-0.1249514907926321,-0.12993086837409062
1772536705086639900,2.808639892578125,-0.6543640721976757,-0.06552110444158316,-0.23862035740744322
1772536705096689000,2.81868896484375,-0.5561193865448236,0.039241000281274314,-0.3729262442616746
1772536705106737000,2.82873681640625,-0.4468067789107561,0.1730596881404519,-0.44480398772098123
1772536705116785700,2.83878564453125,-0.45518648472130296,0.30514293050915003,-0.43145628423951565
1772536705126835000,2.8488349609375,-0.49398587871491906,0.37440877443701026,-0.4837724181385711
1772536705136884000,2.858884033203125,-0.33066578656136986,0.4126572565495968,-0.5655520354744047
1772536705146932000,2.868931884765625,-0.21356617831289768,0.6231108557999133,-0.6292253931574523
1772536705156981000,2.87898095703125,-0.06228957517445087,0.7185726327359676,-0.7256340224895625
1772536705167029800,2.88902978515625,0.02977203792929649,0.6760176856011152,-0.7512078050114214
1772536705177077800,2.899077880859375,0.0031055647999048233,0.6228919523522257,-0.7427334797199815
1772536705187126800,2.909126708984375,0.04961187990903854,0.5819935402527451,-0.8176939550928771
1772536705197176000,2.919176025390625,0.29277766219377516,0.5665791134998202,-0.8784430958922952
1772536705207223800,2.929223876953125,0.4359574681162834,0.49006607492268084,-0.8195891211897134
1772536705217272800,2.93927294921875,0.3835895674973726,0.34997108327299353,-0.8075690130501985
1772536705227321900,2.94932177734375,0.4367109168320894,0.2621919697940349,-0.7933884389411657
1772536705237369900,2.959369873046875,0.6609644933760166,0.18549100742936134,-0.6686901922572404
1772536705247419000,2.9694189453125,0.772759565475583,0.10810820028036833,-0.4776822480373084
1772536705257468000,2.979468017578125,0.6881038447141647,-0.012170330265164375,-0.27481729555139317
1772536705267517000,2.989516845703125,0.5997749883979558,-0.14649930573403835,-0.20337056392049416
1772536705277564700,2.999564697265625,0.6551987694561481,-0.22017653636336326,-0.17080321445055305
1772536705287614000,3.009614013671875,0.7046639343708753,-0.2373585573107004,-0.12085561804743483
1772536705297663000,3.0196630859375,0.6520499500364065,-0.2717880656570196,-0.0333741997402627
1772536705307711000,3.0297109375,0.5634755945265293,-0.3383963808134198,-0.023552204433223232
1772536705317760000,3.039760009765625,0.5384902063518763,-0.37096710955053563,-0.019487457478651774
1772536705327808800,3.049808837890625,0.5164882179021835,-0.3403770332366228,-0.008297297357255592
1772536705337856800,3.059856689453125,0.430585127428174,-0.3457219013959169,-0.04770447995171416
1772536705347905800,3.06990576171875,0.37781858288049697,-0.3730269646897912,-0.1551138432137668
1772536705357955000,3.079955078125,0.353355172753334,-0.3992968397170305,-0.22561909274347125
1772536705368003800,3.09000390625,0.3190449068725109,-0.3734893215045333,-0.298394497428555
1772536705378051800,3.1000517578125,0.30323651236593724,-0.34860476335585117,-0.32722229504399
1772536705388100900,3.110100830078125,0.2948848636060953,-0.3823360603049397,-0.3398178284512833
1772536705398150000,3.12014990234375,0.2051595844954252,-0.4632400273174047,-0.32681217987313865
1772536705408197600,3.13019775390625,0.15608078854978083,-0.5045929051861167,-0.3398760979771614
1772536705418246400,3.140246337890625,0.2577075178563595,-0.5279121137142181,-0.35887572627309705
1772536705428295700,3.150295654296875,0.3396329368710518,-0.5435980508849024,-0.29640235549695787
1772536705438343400,3.160343505859375,0.3478969073474407,-0.589839869838953,-0.25264590535154563
1772536705448392700,3.170392822265625,0.42950960715115066,-0.6064847151696682,-0.2307716166684404
1772536705458441700,3.180441650390625,0.5156698872566223,-0.5778092403054237,-0.15101401581265964
1772536705468490500,3.190490478515625,0.5519155051141977,-0.6013304011464119,-0.06455102643356658
1772536705478538500,3.20053857421875,0.5687637640625238,-0.6859358530253171,-0.0208940340576577
1772536705488587500,3.21058740234375,0.5439847121149302,-0.7460965994775295,0.01903463339394657
1772536705498636800,3.22063671875,0.5155933148890733,-0.8076216200202703,0.07776977890627458
1772536705508684500,3.2306845703125,0.371274275803566,-0.8684148191571235,0.14890291454335675
1772536705518733800,3.24073388671875,0.17549977476894854,-0.9153671244680881,0.18408543321406468
1772536705528782600,3.250782470703125,0.011336217528581619,-0.9133359109014272,0.1211234021381475
1772536705538830600,3.26083056640625,-0.12066519177556037,-0.8685431217119097,0.067233548082388
1772536705548879600,3.270879638671875,-0.2688391527235508,-0.7581549938008189,-0.000505520103033632
1772536705558928600,3.2809287109375,-0.40231238814592357,-0.6152735863029957,-0.12903579183104447
1772536705568977700,3.290977783203125,-0.5170511124819517,-0.4841790627107024,-0.248235906889569
1772536705579025700,3.301025634765625,-0.6170768363326787,-0.3955670055389404,-0.3186959838369861
1772536705589074700,3.31107470703125,-0.6282675079107284,-0.38977293230742216,-0.27079496296644207
1772536705599123700,3.321123779296875,-0.5300380198270083,-0.48580081869363784,-0.1836103630482219
1772536705609171700,3.331171630859375,-0.49435178941786284,-0.5935851938471197,-0.1250548050366342
1772536705619220700,3.341220703125,-0.6108154378503561,-0.570358047516644,-0.12599701779019087
1772536705629269500,3.35126953125,-0.7668734300464392,-0.5476020258292555,-0.04311879156269133
1772536705639318800,3.36131884765625,-0.8682289411962032,-0.5757368179455399,-0.028712989296461454
1772536705649366500,3.371366455078125,-0.8375432955533265,-0.54356531765908,-0.0416601993853692
1772536705659415800,3.381415771484375,-0.8086433642834424,-0.46930181157439943,0.004698574178968556
1772536705669464600,3.391464599609375,-0.834340115597844,-0.3721718091651797,-0.0076432995610870415
1772536705679512800,3.401512939453125,-0.8169254549384116,-0.1998924577474594,-0.08020542682167142
1772536705689561600,3.4115615234375,-0.7588520361542701,-0.007996259450912474,-0.15187565587698482
1772536705699610600,3.421610595703125,-0.7176601940661669,0.10039163455367088,-0.13254158972860314
1772536705709659600,3.43165966796875,-0.6724649615556001,0.18008242638409136,-0.11743404610091819
1772536705719707600,3.441707763671875,-0.5451677844196557,0.26868366990089415,-0.09482615504679269
1772536705729756700,3.451756591796875,-0.39448447099924083,0.40284547210931776,-0.07481805296121165
1772536705739805700,3.4618056640625,-0.3140466601938009,0.5100383111104368,-0.11104704847754909
1772536705749853700,3.471853759765625,-0.20342238543927668,0.49017275016754863,-0.11705830812370403
1772536705759902700,3.48190283203125,-0.053663201126456256,0.49452539241909976,-0.028886286337021738
1772536705769951500,3.491951416015625,0.09235036691725254,0.45429596562236546,0.1004407161260955
1772536705779999700,3.501999755859375,0.1989209823668003,0.3131038263857365,0.20837016230607405
1772536705790048500,3.512048583984375,0.22644904076159,0.16285802759975193,0.2957474169858731
1772536705800097800,3.522097900390625,0.17133973248004913,0.11358254003822803,0.4171056873258203
1772536705810146600,3.532146484375,0.09603577743172645,0.09309066389054059,0.5800787926726043
1772536705820194800,3.54219482421875,0.08592764039337634,0.06565145282298326,0.6298187559407205
1772536705830243600,3.55224365234375,0.19987258400321006,0.05148673387020826,0.6658097414501011
1772536705840292600,3.562292724609375,0.2602297298103571,0.09374649745076895,0.7327241999462246
1772536705850341600,3.572341552734375,0.29782793132066726,0.13392507084310054,0.8153011416722089
1772536705860389600,3.5823896484375,0.33664252288341523,0.11087678821086883,0.8943067277174442
1772536705870438700,3.592438720703125,0.3325122912108898,0.09891951617449521,0.9832288006864488
1772536705880487700,3.60248779296875,0.2313327211499214,0.08714841435998678,1.0664754583675413
1772536705890535700,3.61253564453125,0.17165829690992832,0.12416150945872068,1.0856506258934735
1772536705900584700,3.622584716796875,0.1761065084904432,0.1758180469378829,1.0774341478206217
1772536705910633500,3.632633544921875,0.17979893326759339,0.23325959755927322,1.0468154299341141
1772536705920681700,3.642681640625,0.17275661354064942,0.2571884624183178,1.006705318668112
1772536705930730500,3.65273046875,0.2006196029782295,0.2915007741257548,0.946427156381309
1772536705940779800,3.66277978515625,0.27934184203743934,0.3209811356320977,0.8992126930028199
1772536705950828500,3.67282861328125,0.3058160074651241,0.31075521743297574,0.875078880156204
1772536705960876800,3.682876708984375,0.33782559518814087,0.30203093596845865,0.8532387312047183
1772536705970925600,3.692925537109375,0.4172212034642696,0.2940586419150233,0.8898650189429521
1772536705980974600,3.702974609375,0.5293710803508759,0.28512890100628135,0.9120093384727835
1772536705991022600,3.713022705078125,0.7169459083169698,0.24968378587663173,0.950223479924351
1772536706001071600,3.723071533203125,0.8618032920628785,0.19877602093815802,0.9714419167809187
1772536706011120600,3.73312060546875,0.9112988521158695,0.15864625512361524,0.9868141118273138
1772536706021169700,3.743169677734375,0.9390198027342558,0.08679740896522999,1.022122887226194
1772536706031217700,3.7532177734375,0.9440566278576851,-0.040976153510808945,1.1303575634304432
1772536706041266700,3.7632666015625,0.9147627288341522,-0.15492109712064264,1.2253583717912435
1772536706051315500,3.7733154296875,0.8975450520515441,-0.25956542068272825,1.2612310646831988
1772536706061364700,3.78336474609375,0.8857166670918464,-0.3281625715687871,1.2718451054170727
1772536706071412500,3.79341259765625,0.7816139030605554,-0.3928045550882816,1.272819795668125
1772536706081461800,3.803461669921875,0.6553840628951788,-0.4305269675001502,1.277456953949481
1772536706091510500,3.813510498046875,0.5734703343182802,-0.4856096800357103,1.2232545313797891
1772536706101558800,3.823558837890625,0.4976455702662468,-0.4909811439409852,1.1508791771292686
1772536706111607600,3.833607666015625,0.4502209712684154,-0.452888729172945,1.0527011269718407
1772536706121656600,3.843656494140625,0.43232524909377096,-0.42802287572473285,0.9820249047894031
1772536706131705600,3.85370556640625,0.4142641072243452,-0.46389702992141246,0.960280982754007
1772536706141753600,3.863753662109375,0.43026890108585353,-0.5062976632773876,0.9517061196975409
1772536706151802600,3.873802734375,0.39944706184268,-0.5185135862499475,0.9498185523852706
1772536706161851600,3.8838515625,0.3012608283787966,-0.5750158101946116,0.9196056388206779
1772536706171899600,3.893899658203125,0.2184311540007591,-0.6334446182876825,0.8951511426523328
1772536706181948700,3.90394873046875,0.1615069052517414,-0.691312869888544,0.9146899558588862
1772536706191997400,3.91399755859375,0.14941197831034658,-0.7785796499311923,0.9530663021348417
1772536706202046700,3.924046630859375,0.22730127367675304,-0.8269222405567764,0.8922709110409021
1772536706212094500,3.934094482421875,0.32063539093434806,-0.8394193185582757,0.875041763016209
1772536706222143700,3.944143798828125,0.30753567086458206,-0.9039300769135356,0.8664772752232849
1772536706232192500,3.954192626953125,0.16011808124184607,-1.0170824088409542,0.819425747321546
1772536706242241500,3.964241455078125,-0.01398001003563404,-1.0999831026285887,0.8212030591923744
1772536706252289500,3.97428955078125,-0.1399491534382105,-1.136932192580402,0.8347105563454329
1772536706262338600,3.984338623046875,-0.21174597714841364,-1.1145713076904415,0.7948971630036831
1772536706272387800,3.994387939453125,-0.23740298097431659,-0.9797180160865188,0.7230554772384464
1772536706282435600,4.004435546875,-0.23225392764806746,-0.8409636253908276,0.6085248792277649
1772536706292484600,4.014484619140625,-0.18952187038064003,-0.7302768067941069,0.565874435829185
1772536706302533600,4.02453369140625,-0.20404314768612383,-0.6723565327450632,0.5373498772103339
1772536706312582700,4.034582763671875,-0.20864625756740568,-0.7459153976917267,0.6301258491285144
1772536706322630700,4.044630615234375,-0.2993324906647205,-0.986826971308887,0.7918908938597887
1772536706332679400,4.054679443359375,-0.7175561491698026,-1.1624690771579742,0.9054311291262507
1772536706342728700,4.064728759765625,-1.241808571332693,-1.1509542881920933,0.8972665273711085
1772536706352777700,4.07477783203125,-1.599408542048931,-0.9722919577389955,0.7338665018491447
1772536706362825700,4.08482568359375,-1.8198977976232766,-0.7365864283323288,0.4709318969942629
1772536706372874800,4.094874755859375,-2.029035638099909,-0.48795361281335353,0.15569357933048159
1772536706382923500,4.104923583984375,-2.1525591419160364,-0.15366086792647837,-0.16018312756838277
1772536706392971500,4.114971435546875,-1.9900287388354538,0.17719518050998448,-0.4851234674213454
1772536706403020500,4.1250205078125,-1.6004489910125732,0.4915034142494201,-0.6299737273067235
1772536706413069600,4.135069580078125,-0.9712462480783461,0.6696458124816417,-0.780063897139579
1772536706423118600,4.14511865234375,-0.38588907661139965,0.7089137007698416,-0.8905977171316742
1772536706433166600,4.15516650390625,0.007869418200850487,0.7063958727300167,-0.8414902796134353
1772536706443215600,4.165215576171875,0.13814765697419643,0.6751353498086333,-0.6135255735918879
1772536706453264400,4.175264404296875,-0.03823649941384792,0.638643355974555,-0.46612690786533056
1772536706463313700,4.185313720703125,-0.20124971757531165,0.5445148734688758,-0.3769648155953735
1772536706473361400,4.195361328125,-0.17451017920970915,0.4150628563866019,-0.2895190074576996
1772536706483410700,4.20541064453125,-0.14214169504642485,0.31483868735432624,-0.24122325164852662
1772536706493459500,4.21545947265625,-0.11368600041270255,0.40004590451866384,-0.22190367068322375
1772536706503507700,4.2255078125,-0.055342532515525816,0.4969184250354767,-0.2529075884950347
1772536706513556500,4.235556396484375,-0.04897065939605236,0.4988894328474998,-0.329422325838916
1772536706523605500,4.24560546875,-0.14094751682579518,0.49911447377502915,-0.49320992590636015
1772536706533654500,4.255654541015625,-0.19247545948922634,0.5285206010013819,-0.5966509015606716
1772536706543702500,4.26570263671875,-0.26433015086650846,0.5648527280986309,-0.6473832733996212
1772536706553751600,4.27575146484375,-0.3131026573419571,0.6063964523643255,-0.6456744236551225
1772536706563800600,4.285800537109375,-0.32078561305999753,0.5764309376895428,-0.6040969067176803
1772536706573849300,4.295849365234375,-0.3261263895660639,0.5501362204819917,-0.5848821378337219
1772536706583897600,4.305897705078125,-0.3062298489630222,0.5294383003681897,-0.5815054644748568
1772536706593946400,4.3159462890625,-0.24397300701439378,0.5201701212853193,-0.5675590279152617
1772536706603995600,4.32599560546875,-0.17039631415009499,0.47809886601418256,-0.4974319640481844
1772536706614043400,4.33604345703125,-0.09721183547377586,0.40037002190649507,-0.3417238447356969
1772536706624092700,4.3460927734375,-0.021050386813282966,0.35120120958983897,-0.2879062019662
1772536706634141400,4.356141357421875,0.17119418652951715,0.3569774549037218,-0.2754882353492081
1772536706644190500,4.3661904296875,0.3842641057580709,0.36919162431061264,-0.2653438214210793
1772536706654238500,4.376238525390625,0.5086445186644792,0.30205139423459765,-0.2273779921747744
1772536706664287500,4.38628759765625,0.5286030185878277,0.18355068701654673,-0.21932233068682253
1772536706674336500,4.39633642578125,0.5829308211028575,0.11396131022274493,-0.25834928635861726
1772536706684385500,4.406385498046875,0.6743330935150385,0.027332535822689533,-0.2904270987459458
1772536706694433500,4.41643359375,0.6893897928714752,-0.08148410498797894,-0.24844434374216942
1772536706704482600,4.426482666015625,0.7373521520078182,-0.1992734490662813,-0.27817495368253436
1772536706714531600,4.436531494140625,0.8207493971407414,-0.32695436482280493,-0.23812088345270602
1772536706724580600,4.44658056640625,0.8271399749606847,-0.43170682493448254,-0.16123722146488725
1772536706734628400,4.45662841796875,0.8120809375166893,-0.5192278719991446,-0.0565724396366626
1772536706744677600,4.466677734375,0.8829600618600845,-0.6433309292688966,0.003481777701154351
1772536706754726700,4.4767265625,0.9642933602005243,-0.7185574351668358,0.022386256793234496
1772536706764775400,4.486775390625,1.0047808534115552,-0.7303387661144137,0.009900997093692422
1772536706774823400,4.496823486328125,1.0497586437791586,-0.8030909908533096,-0.012793978588841855
1772536706784872400,4.50687255859375,1.082533370655775,-0.8421817690089345,-0.022152539368905124
1772536706794921700,4.516921630859375,1.064839893054962,-0.8727192383527755,-0.08150964128803462
1772536706804969500,4.526969482421875,1.082182657521963,-0.9197168441101908,-0.16776983810402452
1772536706815018800,4.537018798828125,1.0548059902966023,-0.9820797767817974,-0.1730562906069681
1772536706825067500,4.547067626953125,0.9982271939843892,-1.071317272375524,-0.13592992612579838
1772536706835116500,4.557116455078125,0.9058908555924892,-1.097448031193018,-0.11441510013854131
1772536706845164500,4.56716455078125,0.7413403448611497,-1.0789748013913631,-0.07141178818168119
1772536706855213600,4.577213623046875,0.6518073734521865,-1.1089143048420549,-0.10968913106257096
1772536706865262600,4.5872626953125,0.6414730264425277,-1.1119964887663722,-0.1663148535227403
1772536706875311600,4.5973115234375,0.633106180113554,-1.102470243269205,-0.15671176166338846
1772536706885359600,4.607359619140625,0.5622445914268493,-1.1521698014616966,-0.09038675696039572
1772536706895408600,4.61740869140625,0.374758026266098,-1.230790333712101,-0.020396909606922416
1772536706905457400,4.62745751953125,0.15910335124135017,-1.2920701473221181,0.01336149454480037
1772536706915506700,4.637506591796875,0.04551321241855621,-1.312861883199215,0.008280720681790261
1772536706925554400,4.647554443359375,0.0004296235889196396,-1.2804884305998683,0.020193304193066433
1772536706935603700,4.657603759765625,-0.13311726159155368,-1.2457394810408353,0.019820863284636288
1772536706945652500,4.667652587890625,-0.2805664153963327,-1.163181901602447,-0.01937820211763028
1772536706955701500,4.677701416015625,-0.3189116358816623,-1.0824994683861733,-0.09903508711187169
1772536706965749500,4.68774951171875,-0.39059038617014885,-0.9643129416838288,-0.14868735383022574
1772536706975798500,4.697798583984375,-0.45052550717294215,-0.9085112672239541,-0.140350491647562
1772536706985847600,4.70784765625,-0.4863865096271038,-0.8792992012649774,-0.13706850170167162
1772536706995896600,4.717896484375,-0.4771697684705257,-0.7629118329390883,-0.13066748468610456
1772536707005944600,4.727944580078125,-0.3894909004956484,-0.7185431143805384,-0.09335404580077156
1772536707015993600,4.73799365234375,-0.34982407601773735,-0.8012482855960726,0.007607068337081
1772536707026042400,4.74804248046875,-0.5576864897310734,-0.8447931205511092,0.10897111898632719
1772536707036091600,4.758091552734375,-0.8239438092678785,-0.7524933147773146,0.20106526438649744
1772536707046139400,4.768139404296875,-0.8840840974539518,-0.6452922924697398,0.25418365457914766
1772536707056188700,4.778188720703125,-0.841246241724491,-0.5647098124966025,0.25024925600597636
1772536707066237400,4.788237548828125,-0.9417033427298068,-0.4634188910156488,0.23063197073573244
1772536707076285700,4.79828564453125,-1.0568214217722416,-0.25970833628475665,0.18004952876148744
1772536707086334500,4.80833447265625,-1.0233195496648548,-0.02710778715610504,0.11314237678898498
1772536707096383500,4.818383544921875,-0.9234960703879594,0.1871852441266179,0.07288953258404508
1772536707106432500,4.8284326171875,-0.7972457719564437,0.3062693041905761,0.0804625068552792
1772536707116480500,4.83848046875,-0.6228080734610557,0.3378489760637283,0.16910713285608217
1772536707126529500,4.848529541015625,-0.5407014526605606,0.4031111373081803,0.2678344509267248
1772536707136578600,4.85857861328125,-0.5164496394574641,0.5136275677740574,0.2998591448873281
1772536707146627300,4.86862744140625,-0.467417020741105,0.6064256784588098,0.2896622335869819
1772536707156675600,4.878675537109375,-0.3347352279573679,0.6466326011627912,0.2925410769589245
1772536707166724400,4.888724365234375,-0.21870880189836023,0.6742702574118972,0.34870351102259006
1772536707176773600,4.898773681640625,-0.15821078631579874,0.6653063219726085,0.38057292308993634
1772536707186822700,4.90882275390625,-0.059715340772271155,0.6322735286816954,0.36417313856147226
1772536707196870700,4.91887060546875,0.02071194863915443,0.5774070892453194,0.35852504967190324
1772536707206919400,4.92891943359375,0.06941080535650253,0.5209492889642715,0.39723618086017665
1772536707216968400,4.938968505859375,0.09353402374386786,0.4849412792548537,0.43056591127105054
1772536707227017700,4.949017822265625,0.16020985117852687,0.44933279025703665,0.44489590378813443
1772536707237065500,4.9590654296875,0.18817513194680213,0.4764081364482641,0.5431710576444864
1772536707247114800,4.96911474609375,0.1276777008861303,0.49048693068325516,0.5945084461718797
1772536707257163500,4.97916357421875,0.13632979389727115,0.47663054702728985,0.5881804121941328
1772536707267212500,4.989212646484375,0.16396072814464568,0.5062292742162943,0.6577487461999059
1772536707277260500,4.999260498046875,0.15573533611297607,0.557506164728105,0.6853023774273693
1772536707287309600,5.0093095703125,0.2042313637346029,0.5937073589220643,0.6331320452071726
1772536707297358600,5.019358642578125,0.26904899608194827,0.6387532460898161,0.5707098566289991
1772536707307407600,5.02940771484375,0.2831996865093708,0.6653022303193807,0.5368087560709566
1772536707317455600,5.03945556640625,0.25771160950958727,0.6678720808073878,0.457604870974645
1772536707327504600,5.049504638671875,0.3213923467814922,0.6319266149401664,0.3916987127382308
1772536707337553400,5.059553466796875,0.40687633506059645,0.5915639171525836,0.39760669467300175
1772536707347602700,5.069602783203125,0.39597383277416226,0.5366559766620397,0.43485392732117323
1772536707357650400,5.079650390625,0.2933639376491308,0.4746788284376263,0.4694029703939333
1772536707367699700,5.08969970703125,0.2842740377426147,0.39214316857010123,0.5163990052487701
1772536707377748500,5.09974853515625,0.37307226513624187,0.33402971003651616,0.536602712104842
1772536707387797500,5.109797607421875,0.5308960979610681,0.28239421534538267,0.5819708900295197
1772536707397845500,5.119845458984375,0.6944792249649763,0.24796733734756707,0.6292594415575266
1772536707407895000,5.12989501953125,0.690423227572441,0.23185908311158418,0.6921159298997372
1772536707417944000,5.139944091796875,0.6806687262773513,0.16149550707489252,0.7059602577917278
1772536707427993000,5.1499931640625,0.7254998016506433,0.07557195833474398,0.7081383324831724
1772536707438041000,5.160041015625,0.708021428105235,0.013538988269865512,0.7409147398602217
1772536707448090000,5.170090087890625,0.6305506504118442,-0.0831385941967368,0.7718749646607787
1772536707458139000,5.180138916015625,0.6148527305424213,-0.19345365687161684,0.7352890089329331
1772536707468188200,5.190188232421875,0.5977227320432663,-0.23239918133765458,0.7217311698321253
1772536707478237200,5.2002373046875,0.47565585677623745,-0.2536275550663471,0.6885799377933144
1772536707488285200,5.21028515625,0.3936351606935262,-0.29461978292912244,0.6019437472717836
1772536707498334000,5.220333984375,0.3877110313415527,-0.3247434107750654,0.5384775660660117
1772536707508383000,5.230383056640625,0.35710780328512187,-0.3480860001787543,0.48157764804065223
1772536707518432300,5.240432373046875,0.31792554745376106,-0.3811296071246266,0.4254646426092833
1772536707528480000,5.25047998046875,0.2726297771781683,-0.4170858866468072,0.41682402084022757
1772536707538529300,5.260529296875,0.16707973694801329,-0.4334940006121993,0.4235926016597077
1772536707548578000,5.270578125,0.026057985842227935,-0.4435433932006359,0.4150305615521967
1772536707558627000,5.280626953125,-0.03448854505717754,-0.46110359981060023,0.38443511494342236
1772536707568675000,5.290675048828125,-0.019835750326514242,-0.49624797842800616,0.38148974567390975
1772536707578724000,5.30072412109375,-0.03778992469012737,-0.5232102196335793,0.42317693353090435
1772536707588773000,5.310773193359375,-0.09512976850271225,-0.5984378945752978,0.4719856803635135
1772536707598822100,5.320822265625,-0.12554302694499492,-0.68883069768399,0.47087209309842437
1772536707608870100,5.3308701171875,-0.1365712014377117,-0.6581248860359191,0.48252837289422745
1772536707618919200,5.340919189453125,-0.20872516802251337,-0.7007347782284021,0.4541013198330998
1772536707628968000,5.350968017578125,-0.35782910329699513,-0.6970113737910986,0.42529615417458116
1772536707639016200,5.36101611328125,-0.4220651363641023,-0.7116480941697955,0.40290611625537276
1772536707649065000,5.37106494140625,-0.4288204558432102,-0.7014873501613735,0.3796226000951603
1772536707659114200,5.3811142578125,-0.4451584271818399,-0.6253638954237103,0.35291038812790065
1772536707669163000,5.3911630859375,-0.3941179757744074,-0.5642845728218555,0.3459094598572701
1772536707679211300,5.401211181640625,-0.3249614374399185,-0.4939034611284733,0.3330410643253475
1772536707689260000,5.411260009765625,-0.2986579524040222,-0.4163151945352554,0.33938078874088823
1772536707699309000,5.42130908203125,-0.23815876777768133,-0.38442718736529347,0.3749409450849518
1772536707709358000,5.431358154296875,-0.1780330926388502,-0.38290801497399807,0.40535887970235196
1772536707719406000,5.441406005859375,-0.10060206243395804,-0.41367140202820296,0.4853868310652673
1772536707729455000,5.451455078125,-0.10503683001101016,-0.5330445081666112,0.5989085077617317
1772536707739504000,5.461504150390625,-0.19604162753820417,-0.666027329723537,0.6528001838818193
1772536707749553000,5.471552978515625,-0.3604752338916063,-0.6307526027247309,0.628606676737219
1772536707759601200,5.48160107421875,-0.5291928011745214,-0.5846586678087711,0.6136591368436813
1772536707769650000,5.49164990234375,-0.6349497621536254,-0.6368173095911741,0.5720686508268118
1772536707779699200,5.50169921875,-0.7410767254889011,-0.6774737296283244,0.4723002627380192
1772536707789748000,5.511748046875,-0.8774076884299516,-0.527272646766901,0.2966658652713522
1772536707799796200,5.521796142578125,-0.9614923313051461,-0.28566636888384817,0.06555412992835044
1772536707809845000,5.531844970703125,-0.8743792805194854,-0.08342793253213167,-0.22074333993326872
1772536707819894000,5.54189404296875,-0.74672963668406,0.12436667664200067,-0.47818804213497784
1772536707829943000,5.551943115234375,-0.5578039786309004,0.2668257670745253,-0.5263964119216427
1772536707839992000,5.561991943359375,-0.3430348542690277,0.4171083907395601,-0.4989185858767479
1772536707850040000,5.5720400390625,-0.09893383696079254,0.5516229519084096,-0.4327914783660322
1772536707860089000,5.582089111328125,0.045189387291669846,0.5929349132448435,-0.4029454984176904
1772536707870137900,5.592137939453125,-0.05851648637652397,0.5915601177603006,-0.31915782919507474
1772536707880187100,5.602187255859375,-0.15668459966182707,0.6284773512691259,-0.20934205781184137
1772536707890235000,5.61223486328125,-0.031578795090317725,0.6183776897981762,-0.16293182348832488
1772536707900284200,5.6222841796875,0.026721418187022207,0.6356085183233022,-0.19765622312799094
1772536707910333200,5.632333251953125,0.00857376707792282,0.6720490742310882,-0.26783342801341786
1772536707920382000,5.6423818359375,-0.016777531799674034,0.6433546024054289,-0.29969622767688703
1772536707930430000,5.652429931640625,-0.09226970289647579,0.5182523049652576,-0.34731618485003707
1772536707940479000,5.66247900390625,-0.15718202778995036,0.46910395091474055,-0.4252358753547072
1772536707950528300,5.6725283203125,-0.19164836101531982,0.45629707631170746,-0.4669366168130189
1772536707960577000,5.682576904296875,-0.1722206069678068,0.4353244309097528,-0.5751018079776317
1772536707970625000,5.692625,-0.15900690512955187,0.4380333976075053,-0.6689996235325932
1772536707980674000,5.702674072265625,-0.189570385697484,0.3739329736188054,-0.6797431358650327
1772536707990723000,5.71272314453125,-0.159803023943305,0.28429917218387124,-0.6404782432515174
1772536708000772000,5.722772216796875,-0.11372633242309092,0.18692162475436924,-0.5571120508439839
1772536708010821000,5.732821044921875,0.01499298647046089,0.1190086567401886,-0.48884581241272385
1772536708020869000,5.742869140625,0.2729822438776493,0.10180062456876039,-0.4140184984328225
1772536708030918100,5.752918212890625,0.40162674396932124,0.08835954371541738,-0.3334136239647865
1772536708040967000,5.762966796875,0.5485457364201546,0.027953298069536683,-0.3024229309607297
1772536708051016200,5.77301611328125,0.6486176375001669,-0.10273673637509345,-0.28536968749221414
1772536708061064000,5.78306396484375,0.7059837847977877,-0.18629092563539743,-0.2296102264725603
1772536708071113200,5.79311328125,0.6859732624262571,-0.25107114858180285,-0.13878552561947144
1772536708081162000,5.803161865234375,0.6671376290529966,-0.3692272801458835,-0.1659649258402176
1772536708091211000,5.8132109375,0.6777455323070287,-0.42020518771111964,-0.2329484309845604
1772536708101259000,5.823259033203125,0.6035054070979357,-0.47579321942031383,-0.20715486823217943
1772536708111308000,5.83330810546875,0.5010936648935079,-0.52248132083714,-0.10639093890055082
1772536708121357000,5.843357177734375,0.4142974249720573,-0.5551946729153394,-0.04948660042840056
1772536708131406000,5.853406005859375,0.45372225738763805,-0.5978565875560045,-0.10270252357823774
1772536708141454800,5.863454833984375,0.5938397531300783,-0.6051885378792882,-0.11206259132879785
1772536708151503000,5.873503173828125,0.6151473295748233,-0.5952493276670575,-0.14899170707166193
1772536708161552000,5.8835517578125,0.575930586951971,-0.6314236338540912,-0.18656203419435768
1772536708171601200,5.89360107421875,0.592989858302474,-0.6607002894818782,-0.2333202051727101
1772536708181650200,5.903650146484375,0.5708353096395731,-0.670283233602345,-0.22675923922192304
1772536708191698200,5.9136982421875,0.578433509683609,-0.6924678851425647,-0.29521086242375894
1772536708201747000,5.923746826171875,0.678418317002058,-0.7228875733256339,-0.3791890309834853
1772536708211796000,5.9337958984375,0.6301391470015049,-0.7518254985183477,-0.3511906151305884
1772536708221845200,5.94384521484375,0.5163292279481887,-0.8097527868300676,-0.2659930791100487
1772536708231894000,5.95389404296875,0.5307540591418742,-0.8852987339407206,-0.1755001766277477
1772536708241942000,5.96394189453125,0.6025111353635788,-0.9331126245170831,-0.15220068658026867
1772536708251991000,5.973990966796875,0.6232651695787906,-0.950582230234146,-0.1644690247266553
1772536708262040000,5.9840400390625,0.657698185056448,-0.981313760845363,-0.1695083340681158
1772536708272089000,5.994089111328125,0.6646621788501739,-1.0280188133969903,-0.13790329029168932
1772536708282137000,6.00413720703125,0.5735089127629995,-1.0958937874883412,-0.0753159560133703
1772536708292186000,6.01418603515625,0.4417950882285833,-1.1353346942558884,-0.016090572448819875
1772536708302235100,6.024235107421875,0.3617705343991518,-1.1445341920167207,-0.0060475548022426665
1772536708312284000,6.034283935546875,0.27970716821849345,-1.124617485408485,-0.054429527590144425
1772536708322333200,6.044333251953125,0.2453933952063322,-1.022834396496415,-0.13157686374913902
1772536708332381000,6.054380859375,0.18786182821393013,-0.9445365203291177,-0.1633994227337651
1772536708342430200,6.06443017578125,0.0664057783216238,-0.8706143750280141,-0.21924654377056285
1772536708352479000,6.07447900390625,-0.07236556350886822,-0.7525105581730603,-0.2904916884147562
1772536708362528000,6.084528076171875,-0.18860124840438364,-0.6792486303463577,-0.3522730035398155
1772536708372576000,6.094575927734375,-0.21817571793496607,-0.6082610771924257,-0.4428205953514203
1772536708382625000,6.104625,-0.2570230427235365,-0.5429378334105015,-0.4324485832124948
1772536708392674000,6.114674072265625,-0.2607552149891853,-0.5061661458522081,-0.44218423367664217
1772536708402723000,6.12472314453125,-0.22873276778459548,-0.5335375523805618,-0.4190606938511133
1772536708412772000,6.134772216796875,-0.15828443607389925,-0.726313456121087,-0.35061234031859784
1772536708422821000,6.144821044921875,-0.3521849599301815,-0.8782979152679443,-0.1992780521761626
1772536708432870100,6.1548701171875,-0.6777110455155372,-0.8096037337481975,-0.0926865948679857
1772536708442919000,6.1649189453125,-0.8311807747840881,-0.7396995919167995,-0.022593835129309445
1772536708452968200,6.17496826171875,-0.8535469203710555,-0.6935159328907727,-0.014833558125048874
1772536708463016000,6.185015869140625,-0.839541775894165,-0.5692731748893857,-0.08711034737192094
1772536708473065200,6.195065185546875,-0.8810743942439555,-0.31530805843174453,-0.16582085946071892
1772536708483114200,6.2051142578125,-0.9805547591716051,-0.026603637026250362,-0.2501313835136592
1772536708493163000,6.2151630859375,-0.9703221189707517,0.20435382107049224,-0.31543961238954216
1772536708503211000,6.2252109375,-0.8398352058827877,0.3525464867189526,-0.3182848457528278
1772536708513260000,6.235260009765625,-0.631021190533042,0.44709085654914377,-0.37696645956318825
1772536708523309300,6.245309326171875,-0.4364882139921188,0.6131982413336634,-0.4190018763359636
1772536708533358000,6.255358154296875,-0.30838439664840694,0.7719245759561657,-0.4216513679314404
1772536708543407000,6.265406982421875,-0.24136896199584007,0.8090326558619737,-0.31604309470802544
1772536708553455000,6.275455078125,-0.15642448742091655,0.760116649262607,-0.18522914162278173
1772536708563504000,6.285504150390625,-0.04223930531442165,0.6719499977707862,-0.08832800693283788
1772536708573553200,6.29555322265625,-0.0514262358546257,0.6257882583156228,0.0257934714208357
1772536708583602200,6.305602294921875,-0.13896540309786795,0.6024886312708259,0.06250783930132166
1772536708593650200,6.315650146484375,-0.223808170863986,0.5408575200051069,0.09247246806011535
1772536708603699200,6.32569921875,-0.21089725136458873,0.4997513103738427,0.15808361627217382
1772536708613748000,6.335748046875,-0.1159931083112955,0.4851964230597019,0.15776872337041423
1772536708623797200,6.34579736328125,0.038839141482114786,0.49960313407480716,0.1401791719349567
1772536708633846000,6.355845947265625,0.12724047851264475,0.5029325707584619,0.16912992920977993
1772536708643894300,6.365894287109375,0.07634265044629573,0.4840975219070911,0.1946294957179576
1772536708653943000,6.375943115234375,-0.0011591069072484968,0.4786117839723825,0.1694797107618302
1772536708663992000,6.385991943359375,0.007640285620093345,0.5137605465039611,0.13542330091106705
1772536708674041000,6.396041015625,0.03324117534458637,0.5372054272383451,0.1324735477273818
1772536708684090000,6.406090087890625,0.08279869471788406,0.5749187795609235,0.08157406656006351
1772536708694138000,6.41613818359375,0.113396077555418,0.6496370436757802,0.013455547770112751
1772536708704187100,6.426187255859375,0.19201134910881518,0.7057900157913565,-0.047197471144492735
1772536708714236000,6.43623583984375,0.31284839031994344,0.7335431151136755,-0.0838072324396111
1772536708724285200,6.44628515625,0.3611374971926212,0.7129565464198588,-0.048379625567188486
1772536708734333000,6.4563330078125,0.35690497418940065,0.6328209334313869,-0.025926708162354768
1772536708744382200,6.46638232421875,0.4167500788211822,0.5601271608814596,-0.011962643472879425
1772536708754431000,6.476430908203125,0.44281683249175546,0.497809236395359,0.04442861835251096
1772536708764480000,6.48647998046875,0.42530221858918665,0.3730728496581316,0.12469079402983188
1772536708774529300,6.496529296875,0.3636000879138708,0.2618585000559687,0.14498139371806754
1772536708784577000,6.506576904296875,0.41790626311898227,0.26548107446730135,0.12487373111499472
1772536708794626300,6.516626220703125,0.46956046251058575,0.2891875287473202,0.09351175711313262
1772536708804675000,6.526675048828125,0.48455929419994354,0.2539125094875693,0.12314986646445468
1772536708814724000,6.53672412109375,0.47528994607329367,0.16444383548647165,0.1763544736358337
1772536708824772000,6.546772216796875,0.5303875639170408,0.10710983689278364,0.22532679526600985
1772536708834821000,6.556821044921875,0.560786793833971,0.07459317643046379,0.30984741840567437
1772536708844870100,6.5668701171875,0.5009019417136907,0.019969313578307626,0.374026424055919
1772536708854919200,6.576919189453125,0.4271282649725675,-0.056793900367617604,0.4211710370685905
1772536708864968000,6.586968017578125,0.4177484422087669,-0.09674947865903377,0.4660205979466438
1772536708875016200,6.59701611328125,0.38543081144988534,-0.11185469333231449,0.46041371785029767
1772536708885065000,6.60706494140625,0.29556290899813176,-0.15432751514166593,0.4617223527634516
1772536708895114200,6.6171142578125,0.2645125216960907,-0.21573855391591787,0.42725667712520804
1772536708905163000,6.6271630859375,0.297203661942482,-0.25154928748756644,0.39897250313349064
1772536708915211300,6.637211181640625,0.23657705154418943,-0.27613310912400485,0.3603346563771367
1772536708925260000,6.647260009765625,0.15190964034497736,-0.2938154808089137,0.30406487121516834
1772536708935309000,6.65730908203125,0.08895429473817348,-0.2920455485269427,0.24707623372673987
1772536708945358000,6.667358154296875,0.051072015589475626,-0.32605946180969475,0.2603632747958414
1772536708955407000,6.677406982421875,0.010393968242406845,-0.38671734412908554,0.2822618394036777
1772536708965455000,6.687455078125,-0.004223170652985573,-0.40148382836729285,0.2682650060974061
1772536708975504100,6.697504150390625,0.025870938837528227,-0.3974854063808918,0.2429456367280334
1772536708985553200,6.70755322265625,-0.02279343108832836,-0.4216410657331347,0.2483355861380696
1772536708995602200,6.717602294921875,-0.14967092150747774,-0.5026449859887361,0.29477354871872813
1772536709005651200,6.727651123046875,-0.23276538430154323,-0.5880050556272268,0.3617586978308856
1772536709015699200,6.73769921875,-0.2897457471519708,-0.6166255854338407,0.400355445391871
1772536709025748000,6.747748046875,-0.3281540960013866,-0.6344611018538475,0.4109907115768641
1772536709035797000,6.757796875,-0.32050913420617577,-0.658595133896172,0.3877162920385599
1772536709045846300,6.76784619140625,-0.3558101646900177,-0.5941363979890942,0.3701166667336598
1772536709055894000,6.77789404296875,-0.40526013203561306,-0.5238192914426326,0.32760566833838817
1772536709065943300,6.787943359375,-0.41827392738759517,-0.449621251809597,0.27571539516858756
1772536709075992000,6.797991943359375,-0.3934942909181118,-0.35401977414190766,0.2402965469913557
1772536709086041000,6.808041015625,-0.40607086389660835,-0.27208237242847677,0.2100509549998678
1772536709096090000,6.818090087890625,-0.4386246414989233,-0.21551965046823024,0.14360531959189102
1772536709106138000,6.82813818359375,-0.4033960917294025,-0.155890234413743,0.11170258064367808
1772536709116187100,6.838187255859375,-0.4185018909245729,-0.059416942347586155,0.10357458457187749
1772536709126236200,6.848236083984375,-0.4514087197482586,-0.11866788047850131,0.15841352407997472
1772536709136285200,6.85828515625,-0.4522270503938198,-0.35174481494724746,0.3013119557778351
1772536709146334200,6.868334228515625,-0.6937707844346761,-0.4629427979364991,0.33907639896683395
1772536709156382200,6.87838232421875,-1.0456687441170216,-0.41101854943186045,0.33216892113331703
1772536709166431200,6.88843115234375,-1.2876853563666344,-0.4425242792859673,0.17096720937322823
1772536709176480000,6.89847998046875,-1.429333130416274,-0.40381987009942527,-0.06143687646840699
1772536709186529300,6.908529296875,-1.558057710006833,-0.17065817995667457,-0.27275055401362475
1772536709196578000,6.918578125,-1.6186819823175669,0.14500117613077163,-0.4542467196531594
1772536709206626300,6.928626220703125,-1.4379209260195494,0.37044513150304553,-0.6902926599953323
1772536709216675000,6.938675048828125,-1.0637544359058142,0.5471715254575014,-0.8154416461214423
1772536709226724000,6.94872412109375,-0.6444739618241787,0.662284051541984,-0.8573393714565783
1772536709236773000,6.958773193359375,-0.24659809482097625,0.7168646597743034,-0.8481848088160157
1772536709246821000,6.968821044921875,-0.02470540218949318,0.7480778364226222,-0.7860304773937911
1772536709256870100,6.9788701171875,0.033033085551857945,0.7081701889261603,-0.6945172919530421
1772536709266919200,6.988919189453125,0.07433131062388419,0.619403817975521,-0.5800281949965282
1772536709276968200,6.99896826171875,0.09976678065359591,0.5347171175539494,-0.45568734691552815
1772536709287017200,7.009017333984375,0.09113689947426319,0.5060854818314313,-0.3471603367011994
1772536709297065000,7.01906494140625,0.03529693883061409,0.5209872828871012,-0.30156622279984874
1772536709307114200,7.0291142578125,-0.018240590089559555,0.5118395153135061,-0.33319577996302396
1772536709317163300,7.039163330078125,0.0007318214058876037,0.48839521910101175,-0.41265871785432096
1772536709327212000,7.0492119140625,0.03584638940691948,0.4356424108177423,-0.46409492711368944
1772536709337261300,7.05926123046875,0.05167348861396313,0.377350380846858,-0.4815461934564635
1772536709347309000,7.06930908203125,0.0023123685956001282,0.31000323002189395,-0.48083439192529764
1772536709357358300,7.0793583984375,-0.013407178583741188,0.25157003801465033,-0.4369234636042267
1772536709367407000,7.089406982421875,0.081476506203413,0.19274492408037183,-0.3377085446797311
1772536709377456000,7.0994560546875,0.10979074653983116,0.1332233523145318,-0.27472642066385594
1772536709387505200,7.109505126953125,0.15577917525470256,0.06331745691746472,-0.19195322571340948
1772536709397553200,7.11955322265625,0.2243184584736824,0.03366729180216789,-0.14666667079073376
1772536709407601200,7.12960107421875,0.3534142094641924,0.039192777225375175,-0.13381075114789417
1772536709417650200,7.139650146484375,0.4206459172159433,0.06091916360408067,-0.13691349380305037
1772536709427699200,7.14969921875,0.5199234530478716,0.054363750611245626,-0.1476777018636465
1772536709437748200,7.159748291015625,0.5844318733155727,0.0712447427853942,-0.1727992471059784
1772536709447796200,7.169796142578125,0.6308002412587403,0.05818564698696136,-0.19581950922012328
1772536709457845200,7.17984521484375,0.6865151142179966,-0.025907179194688795,-0.23479089877977966
1772536709467894000,7.18989404296875,0.6887070713043213,-0.14857611200809479,-0.2685940919212997
1772536709477943300,7.199943359375,0.6421738681882619,-0.283451030921936,-0.24207815144481135
1772536709487992300,7.209992431640625,0.6207172386616469,-0.432384870326519,-0.19085690011037512
1772536709498040300,7.220040283203125,0.6235749661803245,-0.5381354015648365,-0.18773122410420326
1772536709508089000,7.230089111328125,0.6040332303643227,-0.60223845590204,-0.13302068761559202
1772536709518138000,7.24013818359375,0.5408814854025841,-0.6897796689718961,-0.10076834977841935
1772536709528187400,7.2501875,0.462377857530117,-0.7488926599368453,-0.10073170756245962
1772536709538235100,7.260235107421875,0.442187302416563,-0.7445362182930112,-0.1715944926924072
1772536709548284200,7.2702841796875,0.4888596217423677,-0.7640794154137373,-0.2430586138495244
1772536709558333200,7.280333251953125,0.5158586878269911,-0.7700885927006602,-0.2738882162740454
1772536709568382200,7.29038232421875,0.48033086284995075,-0.7935086312547326,-0.2917567581808194
1772536709578431200,7.30043115234375,0.4380862968385219,-0.8509569038778543,-0.27334457438401877
1772536709588479200,7.310479248046875,0.40166064623892306,-0.8653127614885568,-0.2547672266207635
1772536709598528300,7.3205283203125,0.40457741046845913,-0.899281666585803,-0.2697436090162955
1772536709608577300,7.330577392578125,0.4611942007035017,-0.9149591281890869,-0.22122295841006562
1772536709618626000,7.3406259765625,0.45219840882122514,-0.9380170554324984,-0.16873744102716445
1772536709628675300,7.35067529296875,0.45484687750339503,-0.9985825832933187,-0.15579347777469083
1772536709638723000,7.36072314453125,0.42832887293398375,-1.057917108054459,-0.11747744685122742
1772536709648772400,7.3707724609375,0.3823258311718702,-1.0701783314734696,-0.11895193985057995
1772536709658821000,7.380821044921875,0.38015959304869174,-1.0892518652558325,-0.12480017268843949
1772536709668870100,7.3908701171875,0.32885026157200337,-1.1006319219261407,-0.12975065296897664
1772536709678919200,7.400919189453125,0.2118693112671375,-1.0992129950389264,-0.15888704160954803
1772536709688967200,7.41096728515625,0.11836042196452617,-1.0724553364947438,-0.18913838748838752
1772536709699016200,7.42101611328125,0.02197568496465683,-1.0258043522179126,-0.22925668206084518
1772536709709065200,7.431065185546875,-0.07391220842897891,-0.982526059244573,-0.3114358931735158
1772536709719114000,7.441114013671875,-0.09373919092714786,-0.9147837716221808,-0.39897443936225024
1772536709729163300,7.451163330078125,-0.12040741762220859,-0.825085965040326,-0.47071880223285406
1772536709739211000,7.4612109375,-0.17201017908751964,-0.7320452777713536,-0.5473565266355872
1772536709749260300,7.47126025390625,-0.21543781740367413,-0.6901940949916839,-0.6019228506142273
1772536709759309000,7.48130908203125,-0.2758615987062454,-0.6635641544803976,-0.6274637903124094
1772536709769358000,7.491358154296875,-0.2929951043367386,-0.6536059473067521,-0.6235039467707276
1772536709779407400,7.501407470703125,-0.26595862885117527,-0.5770630981132387,-0.6263146933425218
1772536709789455000,7.511455078125,-0.2602297298103571,-0.5295490672662854,-0.6630948564682155
1772536709799504400,7.52150439453125,-0.2915636102288961,-0.47919981299340725,-0.6189928260218351
1772536709809553200,7.53155322265625,-0.4064999029636383,-0.39819326238930225,-0.5749637512138113
1772536709819602200,7.541602294921875,-0.48068099146187304,-0.3921612887486815,-0.5209023810826242
1772536709829651200,7.551651123046875,-0.3817641056358814,-0.4306283820480108,-0.41220132947564125
1772536709839699200,7.56169921875,-0.3201443925470114,-0.4297244189456105,-0.340047874347493
1772536709849748200,7.571748291015625,-0.3882598973959684,-0.35509997059404846,-0.2602196102751419
1772536709859797200,7.58179736328125,-0.5238625460624694,-0.30818595146685834,-0.13471321641295217
1772536709869846000,7.591845947265625,-0.6634113020062447,-0.36845308090299367,-0.05721284729889594
1772536709879895300,7.601895263671875,-0.7259364395022392,-0.4611038920715451,-0.045363556548487394
1772536709889943000,7.611943115234375,-0.7618073788285254,-0.4050073263183236,-0.06543959103743545
1772536709899992300,7.621992431640625,-0.7519616921186447,-0.22548837903589009,-0.20681093189902602
1772536709910041000,7.632041015625,-0.7152887887597084,0.0068485507205128665,-0.39954694202058016
1772536709920090000,7.642090087890625,-0.7612994293063878,0.2361535654351115,-0.5465280399221927
1772536709930139100,7.65213916015625,-0.7391437115997076,0.4078253063485026,-0.6416130194351076
1772536709940187100,7.662187255859375,-0.5820785881876945,0.5624927209690213,-0.6795915254998952
1772536709950236200,7.672236083984375,-0.41428865714371205,0.7007464686661958,-0.5833590929849073
1772536709960285200,7.68228515625,-0.25290625505447384,0.7619789360031485,-0.5746284548448398
1772536709970334000,7.692333984375,0.0091454294860363,0.8842135690525174,-0.5387743570555001
1772536709980383200,7.70238330078125,0.12719313223958015,0.920945509122312,-0.4378594292800873
1772536709990431000,7.712430908203125,0.20045301423966883,0.9207192991510033,-0.4384615598917007
1772536710000480300,7.722480224609375,0.3008803046286106,0.8582952839419246,-0.3315995602801442
1772536710010529300,7.732529296875,0.395662867128849,0.7721896566331387,-0.2633850703024305
1772536710020578000,7.742578125,0.41471009742617604,0.6611904110863804,-0.11076457827435805
1772536710030627300,7.75262744140625,0.28178163640499115,0.5491977705880999,0.011284596939198673
1772536710040675000,7.762675048828125,0.2096913827061653,0.45399084519594907,0.053815606076037505
1772536710050724400,7.772724365234375,0.19844927320182323,0.39951983481794595,0.04151815143302083
1772536710060773000,7.782773193359375,0.17825521095693111,0.4333031542152166,0.05589715245729312
1772536710070822100,7.792822265625,0.10296060825884341,0.44495735165178774,0.12552178322756663
1772536710080871200,7.80287109375,0.09373451475203037,0.477652291290462,0.12521206882442346
1772536710090920200,7.812920166015625,0.09927987391948699,0.5395744944572448,0.11193389604836702
1772536710100968200,7.82296826171875,0.0383200860440731,0.55422378205657,0.12081292968317865
1772536710111017200,7.833017333984375,-0.019154197803139685,0.5560170952141285,0.10422508436986244
1772536710121066000,7.84306591796875,-0.10560498528778553,0.5798574050068855,0.07262435600894969
1772536710131115300,7.853115234375,-0.23100480436980722,0.5994435644865036,0.03127830973982345
1772536710141164000,7.8631640625,-0.2470662968546152,0.6056254679918289,0.02608115437197266
1772536710151212300,7.87321240234375,-0.20277765779495238,0.5695367942616343,0.017145033954794053
1772536710161261000,7.883260986328125,-0.1403793615490198,0.5220081503674388,0.019340059781039597
1772536710171310000,7.89331005859375,-0.0760264241039753,0.488750900670886,0.060533602919173424
1772536710181359000,7.903359130859375,-0.07161386835873126,0.46078561990261074,0.11513608049000612
1772536710191408000,7.913408203125,-0.032607553616166116,0.4821849662840366,0.14192931267106904
1772536710201456000,7.9234560546875,0.1372469087421894,0.5291527614250778,0.09552042092126793
1772536710211505200,7.933505126953125,0.3252992910921573,0.5444058601364493,0.07947348668477497
1772536710221554200,7.94355419921875,0.35159459282159805,0.5096525266632438,0.16695786413401364
1772536710231603200,7.953603271484375,0.3491314175784588,0.39233080009669064,0.2529447056350298
1772536710241652200,7.96365234375,0.433684847009182,0.315262465724349,0.30280922686457634
1772536710251700200,7.9737001953125,0.49125090079307554,0.25773762073367834,0.311332688527368
1772536710261749200,7.983749267578125,0.5097194544196129,0.14310294129401444,0.30236933760996904
1772536710271798000,7.993798095703125,0.585046790343523,0.03301291954666376,0.33238976080976423
1772536710281847300,8.003847412109375,0.6230196703851223,-0.043073418051004404,0.36001291360948234
1772536710291896000,8.01389599609375,0.6181318983435631,-0.13809241965562105,0.31647516598235814
1772536710301944300,8.0239443359375,0.5982856266230344,-0.17622662773877382,0.3198280566068366
1772536710311993000,8.0339931640625,0.5633581056267023,-0.2338926347658038,0.388996577640064
1772536710322042000,8.0440419921875,0.5159966349929571,-0.32921938714534044,0.38606874402724206
1772536710332091100,8.054091064453125,0.5044570038467645,-0.4184299947321415,0.3876063653906807
1772536710342140200,8.06414013671875,0.5661135418146849,-0.426735758523643,0.4093185040483251
1772536710352188200,8.074188232421875,0.5032552268415689,-0.40117724663615223,0.41186643496546893
1772536710362237200,8.0842373046875,0.40171617581844327,-0.41926147712022066,0.4049505180971697
1772536710372286200,8.0942861328125,0.3848275848597288,-0.42898646005988117,0.36983353894334287
1772536710382335200,8.104335205078126,0.3533902440667152,-0.43520314261764287,0.3864105066696182
1772536710392384000,8.114384033203125,0.4090659540593624,-0.5023085936412215,0.4307673155946657
1772536710402433300,8.124433349609374,0.37927462690770625,-0.6140922675639391,0.4571869378235191
1772536710412484400,8.134484375,0.3002881839543581,-0.7177452420011162,0.5148284679964185
1772536710422533600,8.14453369140625,0.19306115042269228,-0.8183356139972805,0.49710181877836584
1772536710432582700,8.154582763671876,-0.03382452819049358,-0.882487183651328,0.56128064176552
1772536710442631400,8.16463134765625,-0.2113993556678295,-0.9004697073265909,0.63877611550875
1772536710452680700,8.1746806640625,-0.3970055139094591,-0.9537158520847558,0.6424089921183884
1772536710462728400,8.184728515625,-0.4932125562548637,-0.91894439843297,0.6289481105860323
1772536710472777700,8.19477783203125,-0.5596785403311252,-0.8921350097015499,0.5389797799671069
1772536710482826500,8.204826416015624,-0.46167526221871374,-0.8198200073361396,0.42554939828328786
1772536710492875500,8.21487548828125,-0.4045733188152313,-0.7038058562368155,0.2517541989425197
1772536710502924500,8.224924560546874,-0.29818916584849353,-0.6208844119220972,0.14381750103784724
1772536710512972500,8.23497265625,-0.1495300517320633,-0.5762646412119269,0.08362687090402468
1772536710523021600,8.245021484375,-0.0892190831542015,-0.5811681953445077,0.06422766709756106
1772536710533070600,8.255070556640625,-0.09045593147277832,-0.5507666273400187,0.15695311440490187
1772536710543119400,8.265119384765624,-0.12425240261256694,-0.5556415399000049,0.21656702236300332
1772536710553168600,8.275168701171875,-0.09769523507654666,-0.5921417170405388,0.2701299049201421
1772536710563216400,8.28521630859375,-0.10179214900135994,-0.63859659422338,0.3645614437593147
1772536710573265700,8.295265625,-0.08478665366470814,-0.6917644130483269,0.46913310394398866
1772536710583314400,8.305314453125,-0.24098960728943347,-0.7774497691184282,0.618662132762745
1772536710593363500,8.315363525390625,-0.5549029964923858,-0.7477469970330596,0.6010504516938701
1772536710603412500,8.32541259765625,-0.6412345415115356,-0.6573322743535042,0.5238418320680037
1772536710613461500,8.33546142578125,-0.6840782424598932,-0.5346951979830861,0.34178295451179147
1772536710623509500,8.345509521484376,-0.6494201860547065,-0.411715007263422,0.1567259545855224
1772536710633558500,8.35555859375,-0.6360737977474927,-0.36305502125173805,0.11224743724325671
1772536710643607600,8.365607666015626,-0.7656020949363708,-0.34109511837810275,0.028043698033038526
1772536710653656600,8.375656494140625,-0.9054349285185337,-0.22067659483999014,-0.06348382646031678
1772536710663705600,8.38570556640625,-1.0341127463579178,-0.09931523749381303,-0.08316387476846575
1772536710673753600,8.395753662109374,-1.0603332292854786,0.04933832366466522,-0.17487879332639275
1772536710683802600,8.405802734375,-0.9683090255826711,0.256475637973845,-0.3007090397149324
1772536710693851400,8.415851318359374,-0.7046200952291488,0.4717947974339127,-0.3556611116081476
1772536710703900700,8.425900634765625,-0.561499326017499,0.660825669427216,-0.3673617420023307
1772536710713949400,8.435949462890624,-0.42092765676677224,0.8414815117850899,-0.42603550129979845
1772536710723997700,8.445997802734375,-0.37663317248821254,0.9041226768761873,-0.4329587612243369
1772536710734046500,8.45604638671875,-0.25905016463696956,0.9092942342951893,-0.43384796514902263
1772536710744095500,8.466095458984375,-0.15279168387651443,0.8961097585514187,-0.45984592789970336
1772536710754144500,8.47614453125,-0.10706453644633293,0.8678162687420845,-0.47154630256555974
1772536710764193500,8.486193603515625,-0.12786650145649908,0.819388630181551,-0.4088668512906879
1772536710774242300,8.4962421875,-0.2590261992394924,0.7570680753469466,-0.3348832215933129
1772536710784290600,8.50629052734375,-0.3457610643625259,0.7006555755123496,-0.3503076948162168
1772536710794339300,8.51633935546875,-0.21430267589390276,0.7154097847908735,-0.43709929509516804
1772536710804388600,8.526388671875,-0.07629939582645892,0.7366191615581512,-0.45383017474152143
1772536710814437400,8.536437255859376,-0.017474866414070128,0.6797010502889752,-0.4583870343282819
1772536710824486400,8.546486328125,-0.0133195003002882,0.6054997957855462,-0.40903588771466165
1772536710834534400,8.556534423828126,0.1956435681313276,0.5137918184250593,-0.3700399847682565
1772536710844583400,8.56658349609375,0.4207745120316744,0.41512452344596384,-0.24738272412633522
1772536710854632700,8.5766328125,0.4723088844358921,0.34744273383915425,-0.14901183654423802
1772536710864681500,8.586681396484375,0.47962359136342997,0.27946079224199055,-0.043459622623305764
1772536710874730500,8.59673046875,0.4997328979343176,0.24717151079475877,0.02412717304327525
1772536710884779500,8.606779541015625,0.5669406402885914,0.21183774708509445,0.03312350378166884
1772536710894827500,8.61682763671875,0.7334896313607693,0.17612287510335445,-0.033366171697434034
1772536710904876500,8.62687646484375,0.8223802132129668,0.14481237556040286,-0.08509955553878099
1772536710914925600,8.636925537109375,0.809850986507535,0.08040478531867265,-0.06896882460950873
1772536710924974300,8.646974365234374,0.7817822453647851,-0.00948269861638546,-0.0518041886218125
1772536710935023600,8.657023681640625,0.7638537899643182,-0.0774617176041007,0.014952076788048725
1772536710945071400,8.6670712890625,0.764755122718215,-0.1516229323580861,0.08086204583318904
1772536710955120600,8.67712060546875,0.6840086843550205,-0.22140169424414632,0.10517130657825619
1772536710965169400,8.68716943359375,0.5864005430400371,-0.3003670944094658,0.08400666400184854
1772536710975218400,8.697218505859375,0.6315297245770692,-0.35911797406375406,0.07225209319703281
1772536710985267500,8.707267333984374,0.705535456508398,-0.3841705822557211,0.03572331786638824
1772536710995315500,8.7173154296875,0.6953232745736837,-0.41945056995153424,0.06326441155597567
1772536711005364500,8.727364501953126,0.5875234095901251,-0.443278312523663,0.07224942631591111
1772536711015413500,8.73741357421875,0.5208955129504204,-0.49308220787346363,0.09480984323280862
1772536711025462300,8.747462158203126,0.47526013545691964,-0.536342088407278,0.09238270741743035
1772536711035511600,8.757511474609375,0.416235699558258,-0.5658703807085752,0.07647673428789711
1772536711045560600,8.767560546875,0.3711766606479883,-0.6252987212330102,0.02572668979493901
1772536711055608600,8.777608642578125,0.343356925830245,-0.6870189720869064,0.016224417686759262
1772536711065657600,8.78765771484375,0.32191841648221015,-0.687687372867763,0.019348309302865525
1772536711075706400,8.797706298828125,0.3723047878950834,-0.6804837250992656,-0.014757530321838566
1772536711085755600,8.807755615234376,0.3836602946460247,-0.6411883642822503,-0.02629030132733751
1772536711095804400,8.817804443359375,0.31714287264347074,-0.6605015520393848,-0.03476633680196246
1772536711105852700,8.827852783203125,0.3038081747740507,-0.7262392218410968,-0.023296645069844087
1772536711115901400,8.8379013671875,0.2932680760592222,-0.7721382187068462,-0.03254143186068395
1772536711125950500,8.847950439453125,0.24606968703269957,-0.8066086435854435,-0.021452053816197438
1772536711135999500,8.85799951171875,0.15745675307810306,-0.8769850791037083,0.013098167433496564
1772536711146048500,8.868048583984375,0.06947568728625773,-0.9474442244693636,0.06008859909803141
1772536711156097500,8.87809765625,-0.02727905206978321,-1.011519806277752,0.1373151151401922
1772536711166145500,8.8881455078125,-0.11097732597589492,-1.030259285800159,0.12465521125979721
1772536711176194300,8.8981943359375,-0.15380524483323096,-0.9901903102621435,0.02582836007112637
1772536711186243600,8.90824365234375,-0.23876959315240381,-0.9353846611022949,-0.054413571969186884
1772536711196292400,8.918292236328124,-0.4096463842958212,-0.8501686761096119,-0.1308855296172667
1772536711206341600,8.928341552734375,-0.597139379197359,-0.7479349208205938,-0.19246123003447427
1772536711216389400,8.938389404296874,-0.6980483156234025,-0.6454615115568041,-0.24717395848017185
1772536711226438400,8.9484384765625,-0.6485884114056826,-0.6336217284202575,-0.17257731145098804
1772536711236487400,8.9584873046875,-0.4912842185407877,-0.824847480109334,-0.08549687516014091
1772536711246536400,8.968536376953125,-0.5546019677191972,-0.848449012710154,0.024273858354834373
1772536711256585500,8.97858544921875,-0.9896826530009507,-0.7015791200980543,0.17082688758708536
1772536711266634500,8.988634521484375,-1.3153887713283299,-0.5726990576848388,0.22690937001602723
1772536711276682500,8.9986826171875,-1.266497606909275,-0.41927170625329013,0.1885587061705999
1772536711286731500,9.0087314453125,-1.111784015059471,-0.18773966313898563,0.11808438150212168
1772536711296780500,9.018780517578126,-1.0811538989961147,0.10585516065657138,0.05849569018366746
1772536711306829600,9.02882958984375,-1.1134990022838116,0.39357466267794367,0.06583420724505558
1772536711316878600,9.038878662109376,-0.9457306985497475,0.5651821061834693,-0.05540260127284564
1772536711326927400,9.04892724609375,-0.6779051067829132,0.7123883911430835,0.0145949179304298
1772536711336975600,9.0589755859375,-0.5097083485037088,0.7700517678216099,0.1285921579830814
1772536711347024400,9.0690244140625,-0.44044718075096606,0.7470946706041693,0.2641322902068496
1772536711357073700,9.07907373046875,-0.46155777331888675,0.6490268028229474,0.3966100848510861
1772536711367122400,9.089122314453125,-0.48585985540449617,0.698858755223453,0.5004849218780174
1772536711377171500,9.09917138671875,-0.4220850101083517,0.7624784099578857,0.5590579242147505
1772536711387219500,9.109219482421874,-0.3319341990619898,0.6718664111405611,0.6352724182367324
1772536711397268500,9.1192685546875,-0.2826853072464466,0.6860290842667222,0.5645780028104782
1772536711407317500,9.1293173828125,-0.07653788075745105,0.6790414173364638,0.5596444188658147
1772536711417363500,9.139363525390625,0.17800152845680714,0.6660819825202227,0.5174670728716999
1772536711427412200,9.149412109375,0.2582768421769142,0.751513363829255,0.584016753176041
1772536711437461500,9.15946142578125,0.22347908504009245,0.798935040217638,0.5940209549158811
1772536711447509200,9.16950927734375,0.2278647527784109,0.8555766726329922,0.6630469987384975
1772536711457558300,9.179558349609374,0.2581611068427563,0.9084533995568752,0.7491866744473576
1772536711467607300,9.189607177734375,0.27797756794691086,0.9019844958037138,0.7764077127195894
1772536711477656300,9.19965625,0.4633241984695196,0.8730100379928946,0.7532633493017404
1772536711487705300,9.209705322265625,0.666120560964942,0.8763152170181274,0.7771767973959446
1772536711497754400,9.21975439453125,0.2617851425588131,0.8375932721748948,0.8522458477098495
1772536711507802400,9.22980224609375,0.05726794762015342,0.7038938267812133,0.8531472535289824
1772536711517851400,9.239851318359374,-0.0003805237501859665,0.6380977047905325,0.9435733013201505
1772536711527900400,9.249900390625,-0.2284878531128168,0.6498834196522831,0.9790957925349474
1772536711537949400,9.259949462890624,-0.3174520847231149,0.671948536466062,0.8603140033531933
1772536711547998500,9.26999853515625,-0.32396891927123067,0.8199354504093528,0.7260945526733994
1772536711558046500,9.28004638671875,-0.46448213633298874,0.9436696743667126,0.7273482059963047
1772536711568095500,9.290095458984375,-0.4850964698165655,0.9640271104797721,0.5756301792332902
