time,seconds_elapsed,z,y,x
1772536702343357400,0.065357421875,-0.12567655742168427,-0.10696505010128021,-0.057380758225917816
1772536702353406500,0.075406494140625,-0.1556025594472885,-0.1236034631729126,-0.16557703912258148
1772536702363454500,0.085454345703125,-0.17718029022216797,-0.11069831252098083,-0.2562022805213928
1772536702373503500,0.09550341796875,-0.2023162543773651,-0.10079903900623322,-0.31927233934402466
1772536702383552300,0.10555224609375,-0.20708730816841125,-0.11556519567966461,-0.3463580012321472
1772536702393600500,0.1156005859375,-0.19153247773647308,-0.14419016242027283,-0.3499966561794281
1772536702403649000,0.12564892578125,-0.16347873210906982,-0.16486002504825592,-0.3307020664215088
1772536702413697000,0.135697021484375,-0.11719227582216263,-0.17214205861091614,-0.29310765862464905
1772536702423746000,0.14574609375,-0.06297005712985992,-0.13608579337596893,-0.24317046999931335
1772536702433795000,0.155795166015625,-0.019888754934072495,-0.08162522315979004,-0.19328071177005768
1772536702443842800,0.1658427734375,0.011072621680796146,-0.04768722504377365,-0.15706145763397217
1772536702453892000,0.17589208984375,0.0364072322845459,-0.03265279158949852,-0.15490950644016266
1772536702463941000,0.185941162109375,0.051805365830659866,-0.043588265776634216,-0.17066344618797302
1772536702473989000,0.195989013671875,0.05521409213542938,-0.08978233486413956,-0.2032485008239746
1772536702484038100,0.2060380859375,0.03335407003760338,-0.17487938702106476,-0.24636748433113098
1772536702494086100,0.216086181640625,0.01083855889737606,-0.2748633921146393,-0.27099838852882385
1772536702504135000,0.226135009765625,-0.013789024204015732,-0.346957802772522,-0.2707725465297699
1772536702514184000,0.236183837890625,-0.04320141300559044,-0.3772672414779663,-0.24941319227218628
1772536702524232000,0.24623193359375,-0.06714749336242676,-0.3742099404335022,-0.23013029992580414
1772536702534281000,0.256281005859375,-0.07886914163827896,-0.33599770069122314,-0.2091553956270218
1772536702544330200,0.266330322265625,-0.0801522508263588,-0.27588748931884766,-0.19641323387622833
1772536702554378000,0.2763779296875,-0.0810663029551506,-0.20054244995117188,-0.19576959311962128
1772536702564427000,0.286427001953125,-0.0819038599729538,-0.13227976858615875,-0.2048373818397522
1772536702574475000,0.29647509765625,-0.08676887303590775,-0.08304134756326675,-0.21908631920814514
1772536702584524000,0.30652392578125,-0.09233567863702774,-0.04142865538597107,-0.23555797338485718
1772536702594573000,0.316572998046875,-0.09483277797698975,-0.005042627453804016,-0.25184476375579834
1772536702604621000,0.32662109375,-0.09225510060787201,0.012719592079520226,-0.2587231695652008
1772536702614670000,0.336670166015625,-0.0899963527917862,0.005415085703134537,-0.2610805630683899
1772536702624718800,0.34671875,-0.09701751172542572,-0.021500684320926666,-0.25587913393974304
1772536702634767000,0.35676708984375,-0.09649619460105896,-0.0675143226981163,-0.24061188101768494
1772536702644816000,0.36681591796875,-0.0502203069627285,-0.07689158618450165,-0.20034487545490265
1772536702654864100,0.376864013671875,-0.022577282041311264,-0.07489398121833801,-0.14843964576721191
1772536702664913000,0.386912841796875,-0.015249060466885567,-0.05781646817922592,-0.09026848524808884
1772536702674962000,0.3969619140625,0.0017675715498626232,-0.010959731414914131,-0.02016262896358967
1772536702685010000,0.407010009765625,0.02475864067673683,0.05669121444225311,0.049592480063438416
1772536702695059000,0.417058837890625,0.059054359793663025,0.10191639512777328,0.106207475066185
1772536702705108000,0.42710791015625,0.09031108021736145,0.1448148638010025,0.15676145255565643
1772536702715156000,0.437156005859375,0.13287457823753357,0.1640448421239853,0.2021535485982895
1772536702725205000,0.447205078125,0.18013502657413483,0.16589201986789703,0.24360404908657074
1772536702735254000,0.45725390625,0.2280740588903427,0.15607666969299316,0.2839581370353699
1772536702745302000,0.467302001953125,0.26321154832839966,0.13413354754447937,0.3174380660057068
1772536702755351000,0.47735107421875,0.2831405997276306,0.07256720960140228,0.3448878526687622
1772536702765399000,0.48739892578125,0.2991110682487488,-0.017916880548000336,0.37502020597457886
1772536702775448000,0.497447998046875,0.29280713200569153,-0.08293651789426804,0.40586182475090027
1772536702785496800,0.507496826171875,0.2745002806186676,-0.09689388424158096,0.44190478324890137
1772536702795545000,0.517545166015625,0.26601463556289673,-0.08995938301086426,0.45529985427856445
1772536702805593900,0.52759375,0.2705795466899872,-0.11477791517972946,0.4370734393596649
1772536702815643100,0.53764306640625,0.2556138038635254,-0.11981083452701569,0.3952995836734772
1772536702825691000,0.54769091796875,0.22181271016597748,-0.13181635737419128,0.3366437256336212
1772536702835740200,0.557740234375,0.18538524210453033,-0.16886527836322784,0.26047483086586
1772536702845789000,0.567788818359375,0.1610596626996994,-0.21905042231082916,0.18151742219924927
1772536702855837200,0.577837158203125,0.15104417502880096,-0.2541597783565521,0.13139396905899048
1772536702865886000,0.587885986328125,0.13542580604553223,-0.268586128950119,0.10858239233493805
1772536702875934000,0.597933837890625,0.1345743089914322,-0.27090421319007874,0.10980711877346039
1772536702885983000,0.60798291015625,0.14792181551456451,-0.2652106285095215,0.13287489116191864
1772536702896032000,0.618031982421875,0.17248843610286713,-0.22808440029621124,0.174531951546669
1772536702906080000,0.628080078125,0.21859228610992432,-0.15657559037208557,0.2302016019821167
1772536702916129000,0.63812890625,0.26910629868507385,-0.08424663543701172,0.29852649569511414
1772536702926178000,0.648177978515625,0.3117014169692993,-0.03516111522912979,0.34782159328460693
1772536702936225800,0.658225830078125,0.34839338064193726,-0.007489739451557398,0.37446263432502747
1772536702946275000,0.668275146484375,0.38553622364997864,0.01657991111278534,0.375845342874527
1772536702956322800,0.67832275390625,0.4186698794364929,0.031128518283367157,0.35169872641563416
1772536702966372000,0.6883720703125,0.43436869978904724,0.03121773526072502,0.30937817692756653
1772536702976421000,0.698421142578125,0.42974427342414856,0.027307869866490364,0.2598166763782501
1772536702986469000,0.70846923828125,0.41829532384872437,0.03799433261156082,0.21414291858673096
1772536702996518000,0.718517822265625,0.40712928771972656,0.06527473032474518,0.17051692306995392
1772536703006567000,0.72856689453125,0.39838719367980957,0.09169675409793854,0.12946216762065887
1772536703016615000,0.738614990234375,0.38381633162498474,0.1270923763513565,0.1028231605887413
1772536703026664000,0.748663818359375,0.3677425682544708,0.17906875908374786,0.08130747824907303
1772536703036713000,0.758712890625,0.35017791390419006,0.23421312868595123,0.06579846888780594
1772536703046761000,0.768760986328125,0.3436547815799713,0.28192365169525146,0.062396276742219925
1772536703056810000,0.77881005859375,0.34273678064346313,0.30704817175865173,0.05923164263367653
1772536703066858000,0.78885791015625,0.334606409072876,0.2896670699119568,0.05376870185136795
1772536703076907000,0.798906982421875,0.3206501305103302,0.23825207352638245,0.04464098438620567
1772536703086956000,0.8089560546875,0.3093090355396271,0.18343116343021393,0.0295224841684103
1772536703097004000,0.819004150390625,0.2955499589443207,0.1470501720905304,0.009813402779400349
1772536703107053000,0.829052978515625,0.28334441781044006,0.12581199407577515,-0.006635610945522785
1772536703117101800,0.839101806640625,0.2640591859817505,0.10836867243051529,-0.020352646708488464
1772536703127150000,0.849150146484375,0.24337629973888397,0.10151129961013794,-0.016035128384828568
1772536703137198800,0.85919873046875,0.21870343387126923,0.1267547458410263,-0.007239366881549358
1772536703147248000,0.869248046875,0.2085285633802414,0.1904495656490326,0.0033253927249461412
1772536703157295900,0.8792958984375,0.21969297528266907,0.26849380135536194,-0.0011438763467594981
1772536703167345200,0.88934521484375,0.23920196294784546,0.36883345246315,-0.015554239973425865
1772536703177394000,0.899393798828125,0.25398436188697815,0.48864027857780457,-0.040159717202186584
1772536703187442200,0.909442138671875,0.2551500201225281,0.5865093469619751,-0.07862907648086548
1772536703197491000,0.919490966796875,0.24333098530769348,0.6219087839126587,-0.12131751328706741
1772536703207539200,0.929539306640625,0.21861152350902557,0.6044378876686096,-0.157208651304245
1772536703217588000,0.939587890625,0.18480145931243896,0.549986720085144,-0.18848314881324768
1772536703227637000,0.949636962890625,0.14244814217090607,0.4605439305305481,-0.2079836130142212
1772536703237685000,0.95968505859375,0.09730202704668045,0.3600216805934906,-0.2257249504327774
1772536703247734000,0.969734130859375,0.05991124361753464,0.2624591588973999,-0.2317410409450531
1772536703257783000,0.979782958984375,0.02478264458477497,0.17149898409843445,-0.2437203973531723
1772536703267831000,0.9898310546875,0.006695786491036415,0.10907210409641266,-0.24704748392105103
1772536703277880000,0.999880126953125,-0.002818024717271328,0.0603882260620594,-0.2471286654472351
1772536703287929000,1.00992919921875,0.0005942834541201591,0.014522736892104149,-0.24518482387065887
1772536703297977000,1.01997705078125,0.0029601184651255608,-0.020256901159882545,-0.23324649035930634
1772536703308026000,1.030026123046875,0.0008375789038836956,-0.030593428760766983,-0.21570585668087006
1772536703318075000,1.040074951171875,-0.01514308713376522,-0.02969462238252163,-0.19499471783638
1772536703328123100,1.050123046875,-0.034678973257541656,-0.045558806508779526,-0.17094796895980835
1772536703338172000,1.060171875,-0.08279135823249817,-0.0747753456234932,-0.15236902236938477
1772536703348220200,1.07022021484375,-0.10563808679580688,-0.07206238061189651,-0.12150218337774277
1772536703358269000,1.08026904296875,-0.09663954377174377,0.013165226206183434,-0.048182904720306396
1772536703368318200,1.090318115234375,-0.11245526373386383,0.03802051022648811,0.010446852073073387
1772536703378366000,1.100365966796875,-0.1487738937139511,0.02351795881986618,0.05034096539020538
1772536703388415000,1.1104150390625,-0.1731330305337906,0.0004712310619652271,0.08160568028688431
1772536703398464000,1.120464111328125,-0.179116889834404,-0.017498714849352837,0.11296839267015457
1772536703408511700,1.13051171875,-0.18335798382759094,-0.023827984929084778,0.1360151171684265
1772536703418560800,1.140560791015625,-0.17718809843063354,-0.010106666944921017,0.17352992296218872
1772536703428609800,1.15060986328125,-0.16529148817062378,0.04254402592778206,0.2132621556520462
1772536703438657800,1.16065771484375,-0.16029350459575653,0.10458290576934814,0.24043013155460358
1772536703448706800,1.170706787109375,-0.16627709567546844,0.15109901130199432,0.24897915124893188
1772536703458755800,1.180755859375,-0.17460022866725922,0.18651209771633148,0.2237669676542282
1772536703468803600,1.190803466796875,-0.18075372278690338,0.19856104254722595,0.1770324856042862
1772536703478852900,1.200852783203125,-0.20141315460205078,0.19521699845790863,0.12059541046619415
1772536703488900600,1.210900634765625,-0.22734194993972778,0.17672933638095856,0.06905525177717209
1772536703498950000,1.220949951171875,-0.24650388956069946,0.15670934319496155,0.04474863037467003
1772536703508998700,1.23099853515625,-0.2638471722602844,0.15465231239795685,0.04486075043678284
1772536703519046700,1.241046630859375,-0.26458942890167236,0.16721774637699127,0.059418220072984695
1772536703529095700,1.251095703125,-0.25287339091300964,0.17140956223011017,0.0819040909409523
1772536703539144700,1.261144775390625,-0.23573452234268188,0.15614911913871765,0.10779774188995361
1772536703549192700,1.271192626953125,-0.2181941568851471,0.12266307324171066,0.13602858781814575
1772536703559241700,1.28124169921875,-0.199873149394989,0.0695996806025505,0.1699158102273941
1772536703569290800,1.291290771484375,-0.18951185047626495,0.018732773140072823,0.2022303342819214
1772536703579338800,1.3013388671875,-0.17635653913021088,-0.01321629248559475,0.23356011509895325
1772536703589387800,1.3113876953125,-0.15108633041381836,-0.04540565609931946,0.2482980489730835
1772536703599436800,1.321436767578125,-0.12808430194854736,-0.08792285621166229,0.2536202669143677
1772536703609484800,1.33148486328125,-0.11274741590023041,-0.15417271852493286,0.2461961805820465
1772536703619533800,1.341533935546875,-0.10594692826271057,-0.22735702991485596,0.22758136689662933
1772536703629582600,1.35158251953125,-0.09899607300758362,-0.2803579270839691,0.21036750078201294
1772536703639630800,1.361630859375,-0.10947176814079285,-0.29990318417549133,0.1822117120027542
1772536703649679600,1.3716796875,-0.14812035858631134,-0.29412412643432617,0.14441587030887604
1772536703659728600,1.381728759765625,-0.19621168076992035,-0.25998884439468384,0.09359446167945862
1772536703669776600,1.391776611328125,-0.22505611181259155,-0.17671923339366913,0.04054056107997894
1772536703679825700,1.40182568359375,-0.2416006177663803,-0.057087354362010956,-0.009820859879255295
1772536703689873700,1.411873779296875,-0.24336816370487213,0.07435775548219681,-0.05192942917346954
1772536703699922700,1.421922607421875,-0.23967419564723969,0.18694035708904266,-0.0866023376584053
1772536703709971700,1.4319716796875,-0.21885600686073303,0.27072736620903015,-0.10562822967767715
1772536703720019700,1.442019775390625,-0.19199524819850922,0.3086034655570984,-0.1152498871088028
1772536703730068700,1.45206884765625,-0.17410999536514282,0.2947755455970764,-0.10647609829902649
1772536703740117800,1.46211767578125,-0.16646145284175873,0.2232721596956253,-0.08934283256530762
1772536703750165800,1.472165771484375,-0.15523356199264526,0.10306185483932495,-0.06380018591880798
1772536703760214800,1.48221484375,-0.1339889019727707,-0.01645287126302719,-0.01473814994096756
1772536703770263600,1.492263671875,-0.10876049846410751,-0.0839938297867775,0.060018111020326614
1772536703780311800,1.502311767578125,-0.08850540965795517,-0.09857971966266632,0.13845697045326233
1772536703790360600,1.512360595703125,-0.07060790061950684,-0.07829947769641876,0.19723640382289886
1772536703800409900,1.522409912109375,-0.05597195774316788,-0.02603520080447197,0.22008739411830902
1772536703810457600,1.53245751953125,-0.055955447256565094,0.04073663800954819,0.2055438756942749
1772536703820507000,1.5425068359375,-0.06116139888763428,0.13350830972194672,0.1582077145576477
1772536703830555600,1.5525556640625,-0.07794144749641418,0.2238997220993042,0.09186304360628128
1772536703840604000,1.56260400390625,-0.10656674951314926,0.29659518599510193,0.00810446310788393
1772536703850652700,1.572652587890625,-0.1448875069618225,0.3365439474582672,-0.081870436668396
1772536703860701700,1.58270166015625,-0.1821940839290619,0.3295038044452667,-0.16796787083148956
1772536703870749700,1.592749755859375,-0.2237953245639801,0.28151094913482666,-0.24412202835083008
1772536703880798700,1.602798828125,-0.2521704137325287,0.21099412441253662,-0.28858327865600586
1772536703890847700,1.61284765625,-0.2774485945701599,0.13885122537612915,-0.30189403891563416
1772536703900895700,1.622895751953125,-0.2922629415988922,0.05555148050189018,-0.3017827868461609
1772536703910944800,1.63294482421875,-0.29626381397247314,-0.01703457534313202,-0.28347381949424744
1772536703920993800,1.642993896484375,-0.2916068136692047,-0.04165919870138168,-0.2441716492176056
1772536703931041800,1.653041748046875,-0.2888597548007965,-0.04236520454287529,-0.195818230509758
1772536703941090800,1.6630908203125,-0.29030004143714905,-0.04252877086400986,-0.14331112802028656
1772536703951139600,1.6731396484375,-0.28460249304771423,-0.06897982209920883,-0.11332286894321442
1772536703961187800,1.683187744140625,-0.2782534658908844,-0.1129535585641861,-0.10594926029443741
1772536703971236600,1.693236572265625,-0.2678658068180084,-0.16288331151008606,-0.12754030525684357
1772536703981286000,1.703285888671875,-0.2522863745689392,-0.20497985184192657,-0.16856947541236877
1772536703991333600,1.713333740234375,-0.24301160871982574,-0.2464846819639206,-0.2116309255361557
1772536704001383000,1.7233828125,-0.23622573912143707,-0.28093111515045166,-0.2504108250141144
1772536704011431700,1.733431640625,-0.23775678873062134,-0.2973513603210449,-0.2791801393032074
1772536704021480000,1.74347998046875,-0.2409067153930664,-0.29442769289016724,-0.29124316573143005
1772536704031528700,1.75352880859375,-0.2285536378622055,-0.250286340713501,-0.2939409613609314
1772536704041577700,1.76357763671875,-0.2055983692407608,-0.16058188676834106,-0.2858509421348572
1772536704051625700,1.773625732421875,-0.17088645696640015,-0.049384523183107376,-0.27671870589256287
1772536704061674800,1.7836748046875,-0.11476098001003265,0.059060968458652496,-0.2589452862739563
1772536704071723800,1.793723876953125,-0.055251047015190125,0.1517094075679779,-0.2429911196231842
1772536704081771800,1.803771728515625,-0.0059172119945287704,0.19304928183555603,-0.21597053110599518
1772536704091820800,1.81382080078125,0.031048795208334923,0.18854054808616638,-0.1842176616191864
1772536704101869800,1.823869873046875,0.06738688051700592,0.18289655447006226,-0.14186830818653107
1772536704111917800,1.833917724609375,0.09678179025650024,0.16630639135837555,-0.08491367101669312
1772536704121966800,1.843966796875,0.11974138766527176,0.13558968901634216,-0.02542615309357643
1772536704132015600,1.854015625,0.1466371864080429,0.09319403767585754,0.03540284186601639
1772536704142063900,1.86406396484375,0.18827399611473083,0.05505557358264923,0.09448119252920151
1772536704152112600,1.874112548828125,0.232137069106102,0.041662536561489105,0.15237511694431305
1772536704162162000,1.884161865234375,0.2760731279850006,0.04198208451271057,0.2055235356092453
1772536704172209700,1.894209716796875,0.3223072290420532,0.03167138993740082,0.23787535727024078
1772536704182259000,1.904259033203125,0.3591209650039673,0.013091815635561943,0.2590154707431793
1772536704192307700,1.9143076171875,0.39832401275634766,-0.008654492907226086,0.27123087644577026
1772536704202356000,1.92435595703125,0.43566271662712097,-0.013015464879572392,0.28127413988113403
1772536704212404700,1.93440478515625,0.4745142459869385,0.0003469460643827915,0.2934842109680176
1772536704222453800,1.944453857421875,0.5108530521392822,0.03702213615179062,0.307618647813797
1772536704232501800,1.954501708984375,0.5484065413475037,0.07910114526748657,0.332271009683609
1772536704242550800,1.96455078125,0.5789649486541748,0.09128698706626892,0.3538826107978821
1772536704252599800,1.974599853515625,0.6027920246124268,0.06888207793235779,0.36430221796035767
1772536704262647800,1.984647705078125,0.6169008016586304,0.01763284206390381,0.3454393744468689
1772536704272696800,1.99469677734375,0.6077747344970703,-0.016931792721152306,0.30389806628227234
1772536704282745900,2.004745849609375,0.5888941287994385,-0.02200886979699135,0.2538357079029083
1772536704292793900,2.0147939453125,0.5510492920875549,-0.008870963007211685,0.1949356347322464
1772536704302843000,2.0248427734375,0.501759946346283,-0.01308879628777504,0.127149760723114
1772536704312891600,2.0348916015625,0.42693954706192017,-0.03692115843296051,0.053727202117443085
1772536704322939600,2.044939697265625,0.35485610365867615,-0.05514475330710411,-0.020265119150280952
1772536704332988700,2.05498876953125,0.3060363829135895,-0.04077700152993202,-0.08185258507728577
1772536704343038000,2.065037841796875,0.27990293502807617,-0.01316559687256813,-0.12675508856773376
1772536704353085700,2.075085693359375,0.2831527888774872,0.012746429070830345,-0.14067384600639343
1772536704363135000,2.085135009765625,0.2981834411621094,0.06115685775876045,-0.11773412674665451
1772536704373183700,2.095183837890625,0.31895557045936584,0.14241762459278107,-0.07118793576955795
1772536704383231700,2.105231689453125,0.3468446433544159,0.21464280784130096,-0.012593072839081287
1772536704393280800,2.11528076171875,0.36220601201057434,0.2624337673187256,0.04665160924196243
1772536704403329800,2.125329833984375,0.3516239523887634,0.2664150893688202,0.09828358143568039
1772536704413377800,2.135377685546875,0.31267043948173523,0.22127212584018707,0.13153287768363953
1772536704423426800,2.1454267578125,0.2655377984046936,0.15788346529006958,0.14751729369163513
1772536704433476000,2.15547607421875,0.2095424234867096,0.11899545788764954,0.15491849184036255
1772536704443523800,2.16552392578125,0.13632582128047943,0.09019190818071365,0.15136735141277313
1772536704453572900,2.17557275390625,0.06907035410404205,0.06284070760011673,0.13114356994628906
1772536704463622000,2.185621826171875,0.020496930927038193,0.035136207938194275,0.10514771938323975
1772536704473670000,2.195669921875,-0.01363307423889637,0.03147968649864197,0.09081112593412399
1772536704483719000,2.205718994140625,-0.039583344012498856,0.04136442765593529,0.07590315490961075
1772536704493768000,2.215767822265625,-0.060646820813417435,0.030580755323171616,0.06208588182926178
1772536704503816000,2.22581591796875,-0.06947847455739975,0.014726176857948303,0.04489230364561081
1772536704513865000,2.235864990234375,-0.06703502684831619,0.014176232740283012,0.025740714743733406
1772536704523914000,2.2459140625,-0.0744776576757431,0.02524934895336628,0.0111473323777318
1772536704533961700,2.255961669921875,-0.08894368261098862,0.01659327745437622,-0.01590558886528015
1772536704544010800,2.2660107421875,-0.11348366737365723,-0.005905350670218468,-0.0471910759806633
1772536704554060000,2.27606005859375,-0.1282426416873932,-0.028319580480456352,-0.07436037808656693
1772536704564107800,2.286107666015625,-0.14505234360694885,-0.03283819183707237,-0.09422118216753006
1772536704574156800,2.29615673828125,-0.15811941027641296,-0.03204057738184929,-0.10529220849275589
1772536704584205800,2.306205810546875,-0.1706024557352066,-0.03509999439120293,-0.12835945188999176
1772536704594254800,2.3162548828125,-0.1741204857826233,-0.03323977813124657,-0.15328530967235565
1772536704604302800,2.326302734375,-0.17288535833358765,-0.018047228455543518,-0.18523600697517395
1772536704614352000,2.336351806640625,-0.16964375972747803,-0.003927148878574371,-0.2202398031949997
1772536704624400000,2.34639990234375,-0.16382651031017303,-0.008805910125374794,-0.2565803527832031
1772536704634448600,2.35644873046875,-0.16657570004463196,-0.02965419925749302,-0.29404088854789734
1772536704644498000,2.366497802734375,-0.1686018854379654,-0.06397933512926102,-0.3270059823989868
1772536704654547000,2.376546875,-0.1694152057170868,-0.10154429078102112,-0.33851003646850586
1772536704664595000,2.386594970703125,-0.1727665811777115,-0.14791668951511383,-0.3433227241039276
1772536704674644000,2.39664404296875,-0.184233620762825,-0.19229933619499207,-0.3398939073085785
1772536704684692700,2.406692626953125,-0.19228772819042206,-0.24113771319389343,-0.34209921956062317
1772536704694740700,2.41674072265625,-0.1981847733259201,-0.26593226194381714,-0.34553149342536926
1772536704704789800,2.426789794921875,-0.20071542263031006,-0.2648051977157593,-0.3464191257953644
1772536704714839000,2.436839111328125,-0.20928175747394562,-0.2406383603811264,-0.3339880406856537
1772536704724886800,2.44688671875,-0.20973467826843262,-0.2098933905363083,-0.310108482837677
1772536704734935800,2.456935791015625,-0.18731831014156342,-0.16138310730457306,-0.27207186818122864
1772536704744984800,2.46698486328125,-0.15768833458423615,-0.10367518663406372,-0.22288016974925995
1772536704755032800,2.47703271484375,-0.11501356959342957,-0.06468863785266876,-0.1755472719669342
1772536704765081900,2.487081787109375,-0.07216872274875641,-0.05723521113395691,-0.13240987062454224
1772536704775131000,2.497130859375,-0.030021537095308304,-0.07131693512201309,-0.08838248997926712
1772536704785179000,2.507178955078125,0.007728283759206533,-0.08460041135549545,-0.0323348231613636
1772536704795227600,2.5172275390625,0.030627740547060966,-0.08059261739253998,0.03073895163834095
1772536704805277000,2.52727685546875,0.029140613973140717,-0.08657924830913544,0.08993235975503922
1772536704815324700,2.53732470703125,0.019578535109758377,-0.08300422132015228,0.14825771749019623
1772536704825374000,2.5473740234375,0.004947916604578495,-0.05200062692165375,0.20828789472579956
1772536704835423000,2.557423095703125,-0.013651867397129536,-0.007667248602956533,0.2566293179988861
1772536704845471700,2.5674716796875,-0.03547283262014389,0.048074014484882355,0.2859802842140198
1772536704855519700,2.577519775390625,-0.04455075040459633,0.10507790744304657,0.2965189218521118
1772536704865568800,2.58756884765625,-0.052337855100631714,0.15195056796073914,0.2952064573764801
1772536704875618000,2.5976181640625,-0.05958564579486847,0.16146257519721985,0.27277520298957825
1772536704885665800,2.607665771484375,-0.06325440108776093,0.1354222297668457,0.24181309342384338
1772536704895714800,2.61771484375,-0.07415898144245148,0.09714701771736145,0.21013346314430237
1772536704905763800,2.627763916015625,-0.10512281954288483,0.04758136346936226,0.18386885523796082
1772536704915811800,2.637811767578125,-0.13845707476139069,0.0002165115438401699,0.1639729142189026
1772536704925860900,2.64786083984375,-0.1697162389755249,-0.022592702880501747,0.16486743092536926
1772536704935910000,2.657909912109375,-0.19715557992458344,-0.01749621145427227,0.18908648192882538
1772536704945958000,2.6679580078125,-0.20310086011886597,-0.0033057439140975475,0.2366732805967331
1772536704956006700,2.678006591796875,-0.19141997396945953,0.047067683190107346,0.2905689775943756
1772536704966056000,2.688055908203125,-0.15000198781490326,0.12772995233535767,0.35589176416397095
1772536704976103700,2.698103759765625,-0.07963487505912781,0.2278490960597992,0.42048168182373047
1772536704986153000,2.708153076171875,0.005095960572361946,0.29832854866981506,0.48695412278175354
1772536704996202000,2.718201904296875,0.06377951800823212,0.3063150942325592,0.5295884013175964
1772536705006250800,2.728250732421875,0.09318895637989044,0.2736439108848572,0.5343764424324036
1772536705016298800,2.738298828125,0.09934166073799133,0.24102364480495453,0.5117888450622559
1772536705026347800,2.74834765625,0.07380445301532745,0.19430594146251678,0.46335098147392273
1772536705036397000,2.75839697265625,-0.008366577327251434,0.14580632746219635,0.3900008797645569
1772536705046444800,2.76844482421875,-0.13169211149215698,0.038950636982917786,0.29388973116874695
1772536705056493800,2.778493896484375,-0.26969391107559204,-0.09137780964374542,0.17849203944206238
1772536705066542800,2.78854296875,-0.4080505967140198,-0.19708950817584991,0.051080603152513504
1772536705076590800,2.7985908203125,-0.5084674954414368,-0.25986209511756897,-0.086449034512043
1772536705086639900,2.808639892578125,-0.5790809392929077,-0.2770736813545227,-0.23608894646167755
1772536705096689000,2.81868896484375,-0.6211045980453491,-0.24239346385002136,-0.3678099513053894
1772536705106737000,2.82873681640625,-0.6539894938468933,-0.18822164833545685,-0.47704413533210754
1772536705116785700,2.83878564453125,-0.6773656606674194,-0.17629894614219666,-0.5462056398391724
1772536705126835000,2.8488349609375,-0.6681055426597595,-0.19048871099948883,-0.5755650401115417
1772536705136884000,2.858884033203125,-0.629280149936676,-0.21317298710346222,-0.5600342750549316
1772536705146932000,2.868931884765625,-0.5697956085205078,-0.24118798971176147,-0.5057123303413391
1772536705156981000,2.87898095703125,-0.4956939220428467,-0.26193055510520935,-0.42239290475845337
1772536705167029800,2.88902978515625,-0.406145840883255,-0.27101942896842957,-0.3205462396144867
1772536705177077800,2.899077880859375,-0.31335198879241943,-0.2851368486881256,-0.21494045853614807
1772536705187126800,2.909126708984375,-0.22539754211902618,-0.2882658541202545,-0.09648869186639786
1772536705197176000,2.919176025390625,-0.1524474322795868,-0.23685644567012787,0.014862064272165298
1772536705207223800,2.929223876953125,-0.09775051474571228,-0.16083216667175293,0.10563146322965622
1772536705217272800,2.93927294921875,-0.05273803696036339,-0.08772014826536179,0.1602552831172943
1772536705227321900,2.94932177734375,-0.027455952018499374,-0.008597251959145069,0.17677846550941467
1772536705237369900,2.959369873046875,-0.024388257414102554,0.06854040920734406,0.17224469780921936
1772536705247419000,2.9694189453125,-0.056767579168081284,0.12054470926523209,0.13324563205242157
1772536705257468000,2.979468017578125,-0.10912905633449554,0.11922404915094376,0.06772974133491516
1772536705267517000,2.989516845703125,-0.1520395427942276,0.08638685196638107,-0.03142635524272919
1772536705277564700,2.999564697265625,-0.1850915104150772,0.05376739799976349,-0.13078995048999786
1772536705287614000,3.009614013671875,-0.22060000896453857,0.019691796973347664,-0.22149553894996643
1772536705297663000,3.0196630859375,-0.2522522211074829,-0.044636063277721405,-0.2904343903064728
1772536705307711000,3.0297109375,-0.2735271751880646,-0.12127198278903961,-0.33012691140174866
1772536705317760000,3.039760009765625,-0.28103408217430115,-0.18057364225387573,-0.3279106318950653
1772536705327808800,3.049808837890625,-0.28999778628349304,-0.22889575362205505,-0.2922544479370117
1772536705337856800,3.059856689453125,-0.28258752822875977,-0.27097609639167786,-0.23589423298835754
1772536705347905800,3.06990576171875,-0.25911635160446167,-0.2971111536026001,-0.1661054491996765
1772536705357955000,3.079955078125,-0.2260822206735611,-0.3063264787197113,-0.09047380834817886
1772536705368003800,3.09000390625,-0.20216619968414307,-0.292596697807312,-0.025922901928424835
1772536705378051800,3.1000517578125,-0.19310586154460907,-0.25921717286109924,0.027642587199807167
1772536705388100900,3.110100830078125,-0.19958452880382538,-0.21085184812545776,0.061474524438381195
1772536705398150000,3.12014990234375,-0.2061212658882141,-0.16607585549354553,0.07013405859470367
1772536705408197600,3.13019775390625,-0.20542630553245544,-0.11605238169431686,0.06482773274183273
1772536705418246400,3.140246337890625,-0.19555610418319702,-0.04973167926073074,0.05994243174791336
1772536705428295700,3.150295654296875,-0.18214087188243866,0.009176874533295631,0.051445554941892624
1772536705438343400,3.160343505859375,-0.1507723033428192,0.05990849435329437,0.05232013761997223
1772536705448392700,3.170392822265625,-0.11073168367147446,0.09865730255842209,0.0655079111456871
1772536705458441700,3.180441650390625,-0.06806864589452744,0.129700168967247,0.08686938881874084
1772536705468490500,3.190490478515625,-0.023374665528535843,0.14735567569732666,0.1234029158949852
1772536705478538500,3.20053857421875,0.03236236795783043,0.1530657559633255,0.1657346785068512
1772536705488587500,3.21058740234375,0.08526894450187683,0.15259969234466553,0.20668324828147888
1772536705498636800,3.22063671875,0.12889525294303894,0.14086075127124786,0.2455342411994934
1772536705508684500,3.2306845703125,0.15251070261001587,0.10047418624162674,0.27133622765541077
1772536705518733800,3.24073388671875,0.16870778799057007,0.04208756983280182,0.2805638313293457
1772536705528782600,3.250782470703125,0.18198321759700775,-0.01690315641462803,0.2770552635192871
1772536705538830600,3.26083056640625,0.19176526367664337,-0.06634500622749329,0.2693483531475067
1772536705548879600,3.270879638671875,0.19781531393527985,-0.102083221077919,0.2551761269569397
1772536705558928600,3.2809287109375,0.2069488912820816,-0.12423592805862427,0.24329975247383118
1772536705568977700,3.290977783203125,0.20966565608978271,-0.12017560005187988,0.2306315153837204
1772536705579025700,3.301025634765625,0.2125312089920044,-0.10444910079240799,0.22481250762939453
1772536705589074700,3.31107470703125,0.22229625284671783,-0.051781173795461655,0.22906707227230072
1772536705599123700,3.321123779296875,0.258056640625,0.0418718159198761,0.2476484775543213
1772536705609171700,3.331171630859375,0.31834352016448975,0.1365046501159668,0.2577323913574219
1772536705619220700,3.341220703125,0.36818352341651917,0.175339937210083,0.23903673887252808
1772536705629269500,3.35126953125,0.39425188302993774,0.15667684376239777,0.1875695288181305
1772536705639318800,3.36131884765625,0.40006956458091736,0.10521286725997925,0.11794038861989975
1772536705649366500,3.371366455078125,0.3851167857646942,0.05219674110412598,0.05050650238990784
1772536705659415800,3.381415771484375,0.3449714779853821,0.0012877522967755795,-0.013610165566205978
1772536705669464600,3.391464599609375,0.2914312481880188,-0.060696445405483246,-0.06391055881977081
1772536705679512800,3.401512939453125,0.22554093599319458,-0.11339374631643295,-0.09458378702402115
1772536705689561600,3.4115615234375,0.16354317963123322,-0.13582725822925568,-0.10854046791791916
1772536705699610600,3.421610595703125,0.11848461627960205,-0.12861675024032593,-0.10887335985898972
1772536705709659600,3.43165966796875,0.11728135496377945,-0.12139509618282318,-0.08645357936620712
1772536705719707600,3.441707763671875,0.13974244892597198,-0.08557184785604477,-0.040744416415691376
1772536705729756700,3.451756591796875,0.18880121409893036,-0.03344215080142021,0.01677902229130268
1772536705739805700,3.4618056640625,0.2512083947658539,0.014153864234685898,0.08070766925811768
1772536705749853700,3.471853759765625,0.32278674840927124,0.059604279696941376,0.14726367592811584
1772536705759902700,3.48190283203125,0.3745202422142029,0.09213878959417343,0.22146813571453094
1772536705769951500,3.491951416015625,0.3981477618217468,0.13084346055984497,0.2806607484817505
1772536705779999700,3.501999755859375,0.4093005657196045,0.16387198865413666,0.32573607563972473
1772536705790048500,3.512048583984375,0.4080946445465088,0.16962501406669617,0.34618261456489563
1772536705800097800,3.522097900390625,0.3781636357307434,0.1319149136543274,0.3398440182209015
1772536705810146600,3.532146484375,0.328402042388916,0.043372586369514465,0.3142097592353821
1772536705820194800,3.54219482421875,0.28585192561149597,-0.034068409353494644,0.28365904092788696
1772536705830243600,3.55224365234375,0.2498423308134079,-0.08219024538993835,0.24949292838573456
1772536705840292600,3.562292724609375,0.21507103741168976,-0.09836362302303314,0.20476195216178894
1772536705850341600,3.572341552734375,0.18866926431655884,-0.08049940317869186,0.16073644161224365
1772536705860389600,3.5823896484375,0.17905151844024658,-0.04325270280241966,0.10765298455953598
1772536705870438700,3.592438720703125,0.1781240701675415,-0.01160271093249321,0.04808575287461281
1772536705880487700,3.60248779296875,0.1776508390903473,-0.013277040794491768,-0.0074302381835877895
1772536705890535700,3.61253564453125,0.17931970953941345,-0.03403957933187485,-0.05759911239147186
1772536705900584700,3.622584716796875,0.1731925755739212,-0.06232528015971184,-0.09239757061004639
1772536705910633500,3.632633544921875,0.16557936370372772,-0.09630359709262848,-0.10836176574230194
1772536705920681700,3.642681640625,0.1563698798418045,-0.12834861874580383,-0.10337340086698532
1772536705930730500,3.65273046875,0.14555975794792175,-0.13631649315357208,-0.08230986446142197
1772536705940779800,3.66277978515625,0.13529673218727112,-0.12178175896406174,-0.059806421399116516
1772536705950828500,3.67282861328125,0.12424750626087189,-0.09002120047807693,-0.044773757457733154
1772536705960876800,3.682876708984375,0.11549688875675201,-0.04817121475934982,-0.044116225093603134
1772536705970925600,3.692925537109375,0.11046943813562393,0.006527397781610489,-0.05341435968875885
1772536705980974600,3.702974609375,0.11477390676736832,0.057701900601387024,-0.05864241346716881
1772536705991022600,3.713022705078125,0.1250624805688858,0.11174098402261734,-0.0575920008122921
1772536706001071600,3.723071533203125,0.1358512043952942,0.15901102125644684,-0.058959536254405975
1772536706011120600,3.73312060546875,0.14695176482200623,0.18171045184135437,-0.06541063636541367
1772536706021169700,3.743169677734375,0.14651288092136383,0.18084147572517395,-0.07181952893733978
1772536706031217700,3.7532177734375,0.14270369708538055,0.159361332654953,-0.08817663788795471
1772536706041266700,3.7632666015625,0.13681359589099884,0.11502689123153687,-0.0961432158946991
1772536706051315500,3.7733154296875,0.12644532322883606,0.0679868534207344,-0.1012771874666214
1772536706061364700,3.78336474609375,0.1157788410782814,0.012170986272394657,-0.10975562781095505
1772536706071412500,3.79341259765625,0.09823551774024963,-0.05349289998412132,-0.1185879334807396
1772536706081461800,3.803461669921875,0.07317676395177841,-0.11487051099538803,-0.1327943056821823
1772536706091510500,3.813510498046875,0.044698648154735565,-0.1656056046485901,-0.14226076006889343
1772536706101558800,3.823558837890625,0.017363164573907852,-0.1912001669406891,-0.14860865473747253
1772536706111607600,3.833607666015625,-0.005364574491977692,-0.1867053210735321,-0.1450672298669815
1772536706121656600,3.843656494140625,-0.02082609012722969,-0.15403446555137634,-0.1355847865343094
1772536706131705600,3.85370556640625,-0.026430409401655197,-0.10123267024755478,-0.11806471645832062
1772536706141753600,3.863753662109375,-0.02000526711344719,-0.030071677640080452,-0.10010675340890884
1772536706151802600,3.873802734375,-0.012061135843396187,0.030630862340331078,-0.09180700033903122
1772536706161851600,3.8838515625,0.00043921079486608505,0.06357203423976898,-0.10243833810091019
1772536706171899600,3.893899658203125,0.004058789927512407,0.06653236597776413,-0.11317569017410278
1772536706181948700,3.90394873046875,-0.002758636139333248,0.04761592671275139,-0.11372323334217072
1772536706191997400,3.91399755859375,-0.013638942502439022,0.031932953745126724,-0.08442037552595139
1772536706202046700,3.924046630859375,-0.020080596208572388,0.03755009546875954,-0.027724072337150574
1772536706212094500,3.934094482421875,-0.029949605464935303,0.06694234907627106,0.04204992577433586
1772536706222143700,3.944143798828125,-0.032421551644802094,0.08809849619865417,0.09677069634199142
1772536706232192500,3.954192626953125,-0.03586319461464882,0.08174354583024979,0.11741861701011658
1772536706242241500,3.964241455078125,-0.05014945566654205,0.05024367943406105,0.09589041769504547
1772536706252289500,3.97428955078125,-0.0848521739244461,0.009915434755384922,0.0567786805331707
1772536706262338600,3.984338623046875,-0.13411186635494232,-0.011423676274716854,-0.003508895169943571
1772536706272387800,3.994387939453125,-0.18882407248020172,0.0021108794026076794,-0.04844452813267708
1772536706282435600,4.004435546875,-0.23777617514133453,0.048311930149793625,-0.0809532031416893
1772536706292484600,4.014484619140625,-0.26878443360328674,0.12390470504760742,-0.09304799884557724
1772536706302533600,4.02453369140625,-0.2826530933380127,0.20151187479496002,-0.08924233913421631
1772536706312582700,4.034582763671875,-0.27468395233154297,0.300681471824646,-0.06971379369497299
1772536706322630700,4.044630615234375,-0.24570158123970032,0.3854717016220093,-0.06360635906457901
1772536706332679400,4.054679443359375,-0.21581491827964783,0.3800431787967682,-0.10552523285150528
1772536706342728700,4.064728759765625,-0.20863637328147888,0.2604696452617645,-0.19656354188919067
1772536706352777700,4.07477783203125,-0.23445235192775726,0.08106990158557892,-0.31452620029449463
1772536706362825700,4.08482568359375,-0.26904281973838806,-0.0861625000834465,-0.4256950914859772
1772536706372874800,4.094874755859375,-0.32950323820114136,-0.2401205599308014,-0.5213171243667603
1772536706382923500,4.104923583984375,-0.40034225583076477,-0.34777671098709106,-0.580810010433197
1772536706392971500,4.114971435546875,-0.4603237211704254,-0.37225958704948425,-0.5959958434104919
1772536706403020500,4.1250205078125,-0.4916509985923767,-0.2658711075782776,-0.5528308153152466
1772536706413069600,4.135069580078125,-0.47263604402542114,-0.02783886343240738,-0.44749367237091064
1772536706423118600,4.14511865234375,-0.39120563864707947,0.29244542121887207,-0.3057122826576233
1772536706433166600,4.15516650390625,-0.27103960514068604,0.5831524729728699,-0.1548459678888321
1772536706443215600,4.165215576171875,-0.1590653955936432,0.7450505495071411,-0.04379400983452797
1772536706453264400,4.175264404296875,-0.06776502728462219,0.7512269020080566,0.01803760975599289
1772536706463313700,4.185313720703125,0.002928322646766901,0.6251118183135986,0.029930487275123596
1772536706473361400,4.195361328125,0.04074202477931976,0.45122629404067993,0.039098575711250305
1772536706483410700,4.20541064453125,0.04601401835680008,0.23628893494606018,0.0691337063908577
1772536706493459500,4.21545947265625,0.009533518925309181,0.011276048608124256,0.13025756180286407
1772536706503507700,4.2255078125,-0.05221106857061386,-0.19404567778110504,0.2106751799583435
1772536706513556500,4.235556396484375,-0.10710225254297256,-0.34723085165023804,0.29869353771209717
1772536706523605500,4.24560546875,-0.14165863394737244,-0.43605712056159973,0.37008702754974365
1772536706533654500,4.255654541015625,-0.15253058075904846,-0.4558255672454834,0.4090617299079895
1772536706543702500,4.26570263671875,-0.1575317233800888,-0.431199312210083,0.41631218791007996
1772536706553751600,4.27575146484375,-0.1593940705060959,-0.3737972676753998,0.37971290946006775
1772536706563800600,4.285800537109375,-0.16064442694187164,-0.29265981912612915,0.3067880868911743
1772536706573849300,4.295849365234375,-0.1667185127735138,-0.1865071803331375,0.20329807698726654
1772536706583897600,4.305897705078125,-0.17228318750858307,-0.07779613882303238,0.06942522525787354
1772536706593946400,4.3159462890625,-0.17947426438331604,0.02552172914147377,-0.06114770099520683
1772536706603995600,4.32599560546875,-0.19578878581523895,0.10424663126468658,-0.17447559535503387
1772536706614043400,4.33604345703125,-0.21616196632385254,0.14269733428955078,-0.25078707933425903
1772536706624092700,4.3460927734375,-0.21992340683937073,0.15297287702560425,-0.274440735578537
1772536706634141400,4.356141357421875,-0.21005572378635406,0.14909552037715912,-0.2554575800895691
1772536706644190500,4.3661904296875,-0.18940824270248413,0.139409601688385,-0.19499826431274414
1772536706654238500,4.376238525390625,-0.1601770967245102,0.12185130268335342,-0.11973419040441513
1772536706664287500,4.38628759765625,-0.12589901685714722,0.08386344462633133,-0.04611056670546532
1772536706674336500,4.39633642578125,-0.09643372893333435,0.04913264513015747,0.01848929189145565
1772536706684385500,4.406385498046875,-0.07664430886507034,0.032968323677778244,0.06818068027496338
1772536706694433500,4.41643359375,-0.07314709573984146,0.029059765860438347,0.1061558797955513
1772536706704482600,4.426482666015625,-0.06892598420381546,0.04735328629612923,0.1197529137134552
1772536706714531600,4.436531494140625,-0.06884940713644028,0.07818491011857986,0.12326308339834213
1772536706724580600,4.44658056640625,-0.0767400860786438,0.10048223286867142,0.10393200069665909
1772536706734628400,4.45662841796875,-0.09329918771982193,0.10054545849561691,0.07415266335010529
1772536706744677600,4.466677734375,-0.09651388972997665,0.10326454788446426,0.04509730264544487
1772536706754726700,4.4767265625,-0.0975833311676979,0.1154213398694992,0.015705475583672523
1772536706764775400,4.486775390625,-0.09262531995773315,0.12278257310390472,-0.019359033554792404
1772536706774823400,4.496823486328125,-0.07213080674409866,0.12523707747459412,-0.046036649495363235
1772536706784872400,4.50687255859375,-0.04516763240098953,0.11812163889408112,-0.05436968058347702
1772536706794921700,4.516921630859375,-0.015907857567071915,0.09858695417642593,-0.06033482030034065
1772536706804969500,4.526969482421875,0.014583739452064037,0.07000724226236343,-0.051743462681770325
1772536706815018800,4.537018798828125,0.028861168771982193,0.02484743297100067,-0.028910839930176735
1772536706825067500,4.547067626953125,0.027023589238524437,-0.03546011447906494,0.009410183876752853
1772536706835116500,4.557116455078125,0.012833435088396072,-0.11306528002023697,0.049794793128967285
1772536706845164500,4.56716455078125,-0.014745727181434631,-0.18099185824394226,0.07927971333265305
1772536706855213600,4.577213623046875,-0.021935179829597473,-0.21510814130306244,0.10430042445659637
1772536706865262600,4.5872626953125,-0.009887571446597576,-0.19431684911251068,0.13541093468666077
1772536706875311600,4.5973115234375,0.018251735717058182,-0.13969308137893677,0.16666391491889954
1772536706885359600,4.607359619140625,0.05861513689160347,-0.08861017972230911,0.19033515453338623
1772536706895408600,4.61740869140625,0.10712099075317383,-0.06051017343997955,0.19909167289733887
1772536706905457400,4.62745751953125,0.15892533957958221,-0.06167876720428467,0.20080408453941345
1772536706915506700,4.637506591796875,0.21002556383609772,-0.08127930760383606,0.2078995257616043
1772536706925554400,4.647554443359375,0.2415853589773178,-0.10270923376083374,0.226878821849823
1772536706935603700,4.657603759765625,0.2567726671695709,-0.14314784109592438,0.2393832951784134
1772536706945652500,4.667652587890625,0.24827665090560913,-0.18911133706569672,0.24129490554332733
1772536706955701500,4.677701416015625,0.23166504502296448,-0.20515453815460205,0.24308228492736816
1772536706965749500,4.68774951171875,0.21061888337135315,-0.20387035608291626,0.23325468599796295
1772536706975798500,4.697798583984375,0.1798151731491089,-0.17655375599861145,0.22331807017326355
1772536706985847600,4.70784765625,0.1673971265554428,-0.15221166610717773,0.22261978685855865
1772536706995896600,4.717896484375,0.16731642186641693,-0.10357354581356049,0.22309836745262146
1772536707005944600,4.727944580078125,0.19195199012756348,-0.019305802881717682,0.23176749050617218
1772536707015993600,4.73799365234375,0.23533155024051666,0.0629180371761322,0.24186068773269653
1772536707026042400,4.74804248046875,0.27442246675491333,0.0652131512761116,0.23207490146160126
1772536707036091600,4.758091552734375,0.28676164150238037,-0.007971885614097118,0.2054022252559662
1772536707046139400,4.768139404296875,0.279687762260437,-0.08341923356056213,0.1872868835926056
1772536707056188700,4.778188720703125,0.27064019441604614,-0.13084368407726288,0.17033010721206665
1772536707066237400,4.788237548828125,0.248545303940773,-0.18342646956443787,0.1466364860534668
1772536707076285700,4.79828564453125,0.22079262137413025,-0.23968605697155,0.12083564698696136
1772536707086334500,4.80833447265625,0.1844676434993744,-0.2577279210090637,0.09477102756500244
1772536707096383500,4.818383544921875,0.15165092051029205,-0.23381544649600983,0.06560540199279785
1772536707106432500,4.8284326171875,0.13382664322853088,-0.15292751789093018,0.04924134537577629
1772536707116480500,4.83848046875,0.1269124299287796,-0.04490624740719795,0.04426658898591995
1772536707126529500,4.848529541015625,0.1338568925857544,0.05529039353132248,0.04287535324692726
1772536707136578600,4.85857861328125,0.14526183903217316,0.1232524886727333,0.03128160536289215
1772536707146627300,4.86862744140625,0.16555087268352509,0.16499006748199463,0.013983573764562607
1772536707156675600,4.878675537109375,0.1871243417263031,0.18047748506069183,0.010239015333354473
1772536707166724400,4.888724365234375,0.2148880660533905,0.16672731935977936,0.02144559845328331
1772536707176773600,4.898773681640625,0.23690645396709442,0.13642160594463348,0.049149565398693085
1772536707186822700,4.90882275390625,0.2571675181388855,0.10304712504148483,0.08694088459014893
1772536707196870700,4.91887060546875,0.261526882648468,0.07582711428403854,0.11716216802597046
1772536707206919400,4.92891943359375,0.24750427901744843,0.06377364695072174,0.13824614882469177
1772536707216968400,4.938968505859375,0.22192004323005676,0.05951569229364395,0.13466456532478333
1772536707227017700,4.949017822265625,0.1885346621274948,0.058074384927749634,0.11494520306587219
1772536707237065500,4.9590654296875,0.1439785212278366,0.05825653672218323,0.07098975032567978
1772536707247114800,4.96911474609375,0.11806143820285797,0.04350448399782181,0.0012812495697289705
1772536707257163500,4.97916357421875,0.10407304018735886,0.02697579748928547,-0.0737803503870964
1772536707267212500,4.989212646484375,0.09681753069162369,0.00695548253133893,-0.1404256969690323
1772536707277260500,4.999260498046875,0.09400951117277145,-0.01924045942723751,-0.18213659524917603
1772536707287309600,5.0093095703125,0.1055268868803978,-0.0342995710670948,-0.19227631390094757
1772536707297358600,5.019358642578125,0.1253722906112671,-0.036200884729623795,-0.17869357764720917
1772536707307407600,5.02940771484375,0.13991741836071014,-0.041733868420124054,-0.15744660794734955
1772536707317455600,5.03945556640625,0.15983140468597412,-0.05129554122686386,-0.1293153464794159
1772536707327504600,5.049504638671875,0.18258623778820038,-0.04648320749402046,-0.10492824763059616
1772536707337553400,5.059553466796875,0.1858401745557785,-0.023156190291047096,-0.08494818210601807
1772536707347602700,5.069602783203125,0.17103779315948486,-0.009120798669755459,-0.08414284139871597
1772536707357650400,5.079650390625,0.1411382108926773,-0.012031039223074913,-0.10963957011699677
1772536707367699700,5.08969970703125,0.1081959679722786,-0.01995367743074894,-0.14549662172794342
1772536707377748500,5.09974853515625,0.08750104904174805,-0.00927724689245224,-0.17603105306625366
1772536707387797500,5.109797607421875,0.07928092777729034,0.03157857432961464,-0.1894637644290924
1772536707397845500,5.119845458984375,0.07769253849983215,0.0779881626367569,-0.19333207607269287
1772536707407895000,5.12989501953125,0.0794944316148758,0.10443148761987686,-0.2036859095096588
1772536707417944000,5.139944091796875,0.08728556334972382,0.10934334248304367,-0.21926772594451904
1772536707427993000,5.1499931640625,0.08961716294288635,0.1063222587108612,-0.2285110205411911
1772536707438041000,5.160041015625,0.0830841064453125,0.08269503712654114,-0.2400479018688202
1772536707448090000,5.170090087890625,0.06415462493896484,0.020391449332237244,-0.23901060223579407
1772536707458139000,5.180138916015625,0.04905927926301956,-0.05112088471651077,-0.22579650580883026
1772536707468188200,5.190188232421875,0.032298676669597626,-0.121328204870224,-0.2009870409965515
1772536707478237200,5.2002373046875,0.0036783446557819843,-0.17648138105869293,-0.17080043256282806
1772536707488285200,5.21028515625,-0.01977345161139965,-0.20163573324680328,-0.13456065952777863
1772536707498334000,5.220333984375,-0.0357959121465683,-0.18909747898578644,-0.0947611927986145
1772536707508383000,5.230383056640625,-0.042827993631362915,-0.14452174305915833,-0.054630815982818604
1772536707518432300,5.240432373046875,-0.048490818589925766,-0.09100823104381561,-0.017696380615234375
1772536707528480000,5.25047998046875,-0.056679774075746536,-0.04547829553484917,0.014671677723526955
1772536707538529300,5.260529296875,-0.06509551405906677,-0.025956664234399796,0.038160692900419235
1772536707548578000,5.270578125,-0.07863955199718475,-0.045089878141880035,0.05618203431367874
1772536707558627000,5.280626953125,-0.09337735921144485,-0.08579669892787933,0.0793410912156105
1772536707568675000,5.290675048828125,-0.1019066646695137,-0.12521041929721832,0.12843166291713715
1772536707578724000,5.30072412109375,-0.12012585252523422,-0.1640000343322754,0.19285522401332855
1772536707588773000,5.310773193359375,-0.1396457701921463,-0.18637724220752716,0.2539342939853668
1772536707598822100,5.320822265625,-0.15249113738536835,-0.18291106820106506,0.3059994578361511
1772536707608870100,5.3308701171875,-0.17543640732765198,-0.17961247265338898,0.33495092391967773
1772536707618919200,5.340919189453125,-0.19853314757347107,-0.1919238269329071,0.33085572719573975
1772536707628968000,5.350968017578125,-0.23227539658546448,-0.19479604065418243,0.3001265823841095
1772536707639016200,5.36101611328125,-0.2668757438659668,-0.17950986325740814,0.2519316077232361
1772536707649065000,5.37106494140625,-0.3097957968711853,-0.14365945756435394,0.19388934969902039
1772536707659114200,5.3811142578125,-0.3410608768463135,-0.09265228360891342,0.13477778434753418
1772536707669163000,5.3911630859375,-0.3647638261318207,-0.03245925530791283,0.09087903797626495
1772536707679211300,5.401211181640625,-0.37206128239631653,0.011672060936689377,0.07089503109455109
1772536707689260000,5.411260009765625,-0.37060028314590454,0.036154236644506454,0.07555609196424484
1772536707699309000,5.42130908203125,-0.3573768436908722,0.05306227505207062,0.12073617428541183
1772536707709358000,5.431358154296875,-0.34349989891052246,0.06420813500881195,0.18556764721870422
1772536707719406000,5.441406005859375,-0.31967732310295105,0.06459739804267883,0.2627561688423157
1772536707729455000,5.451455078125,-0.2985970675945282,0.030989106744527817,0.326649934053421
1772536707739504000,5.461504150390625,-0.3007058799266815,-0.05278197303414345,0.3614492118358612
1772536707749553000,5.471552978515625,-0.32529884576797485,-0.15523511171340942,0.367960125207901
1772536707759601200,5.48160107421875,-0.3521765470504761,-0.25178787112236023,0.3471008241176605
1772536707769650000,5.49164990234375,-0.3731593191623688,-0.33034899830818176,0.3052303194999695
1772536707779699200,5.50169921875,-0.3997117877006531,-0.4193384647369385,0.24355608224868774
1772536707789748000,5.511748046875,-0.42846035957336426,-0.4937213659286499,0.16767171025276184
1772536707799796200,5.521796142578125,-0.4647274613380432,-0.5161644220352173,0.09972752630710602
1772536707809845000,5.531844970703125,-0.49370795488357544,-0.48586562275886536,0.03179348632693291
1772536707819894000,5.54189404296875,-0.5269232392311096,-0.38930800557136536,-0.0190631952136755
1772536707829943000,5.551943115234375,-0.5632178783416748,-0.23878537118434906,-0.059367477893829346
1772536707839992000,5.561991943359375,-0.5850112438201904,-0.06330248713493347,-0.07460731267929077
1772536707850040000,5.5720400390625,-0.5824748277664185,0.08413197100162506,-0.08792337775230408
1772536707860089000,5.582089111328125,-0.5575538277626038,0.14573697745800018,-0.10779885947704315
1772536707870137900,5.592137939453125,-0.5233561396598816,0.14038828015327454,-0.1200462058186531
1772536707880187100,5.602187255859375,-0.4777938723564148,0.1369960904121399,-0.10350125283002853
1772536707890235000,5.61223486328125,-0.43173104524612427,0.1315467357635498,-0.07524377852678299
1772536707900284200,5.6222841796875,-0.3853571116924286,0.1099526658654213,-0.03645303100347519
1772536707910333200,5.632333251953125,-0.35179996490478516,0.08750062435865402,-0.0033491391222923994
1772536707920382000,5.6423818359375,-0.3224523663520813,0.06676773726940155,0.016341637820005417
1772536707930430000,5.652429931640625,-0.29923731088638306,0.04478307440876961,0.01857735961675644
1772536707940479000,5.66247900390625,-0.286840558052063,0.027088306844234467,0.006907365284860134
1772536707950528300,5.6725283203125,-0.27968519926071167,0.02926410734653473,-0.02005181461572647
1772536707960577000,5.682576904296875,-0.2810239791870117,0.027454577386379242,-0.06591751426458359
1772536707970625000,5.692625,-0.3065203130245209,0.011398646980524063,-0.12113630026578903
1772536707980674000,5.702674072265625,-0.35497575998306274,-0.007475355174392462,-0.1863248348236084
1772536707990723000,5.71272314453125,-0.41660502552986145,-0.0237768292427063,-0.2466592788696289
1772536708000772000,5.722772216796875,-0.4694555103778839,-0.022262483835220337,-0.28778043389320374
1772536708010821000,5.732821044921875,-0.4991492033004761,0.017090247943997383,-0.30618980526924133
1772536708020869000,5.742869140625,-0.5031934976577759,0.05177665874361992,-0.3053642213344574
1772536708030918100,5.752918212890625,-0.4856770634651184,0.09961049258708954,-0.30568915605545044
1772536708040967000,5.762966796875,-0.4534766674041748,0.16283227503299713,-0.30248308181762695
1772536708051016200,5.77301611328125,-0.4221227467060089,0.2236040085554123,-0.3127533197402954
1772536708061064000,5.78306396484375,-0.3968941569328308,0.25616776943206787,-0.3327995240688324
1772536708071113200,5.79311328125,-0.3609185814857483,0.26310211420059204,-0.3584870398044586
1772536708081162000,5.803161865234375,-0.33248019218444824,0.23701079189777374,-0.38135242462158203
1772536708091211000,5.8132109375,-0.3232475519180298,0.16394802927970886,-0.3889991343021393
1772536708101259000,5.823259033203125,-0.34056591987609863,0.0443342961370945,-0.36992356181144714
1772536708111308000,5.83330810546875,-0.36685875058174133,-0.08951937407255173,-0.32767489552497864
1772536708121357000,5.843357177734375,-0.38552066683769226,-0.19182088971138,-0.2680240571498871
1772536708131406000,5.853406005859375,-0.4060451090335846,-0.2237127721309662,-0.19454048573970795
1772536708141454800,5.863454833984375,-0.4130363464355469,-0.24027563631534576,-0.12586314976215363
1772536708151503000,5.873503173828125,-0.40362074971199036,-0.2476680427789688,-0.07377517968416214
1772536708161552000,5.8835517578125,-0.3861117959022522,-0.22346679866313934,-0.03057991713285446
1772536708171601200,5.89360107421875,-0.3635295331478119,-0.18777485191822052,-0.008558772504329681
1772536708181650200,5.903650146484375,-0.3229962885379791,-0.14072148501873016,-0.0037034349516034126
1772536708191698200,5.9136982421875,-0.28114819526672363,-0.0676771029829979,-0.014495096169412136
1772536708201747000,5.923746826171875,-0.2450815886259079,-0.016691576689481735,-0.037727318704128265
1772536708211796000,5.9337958984375,-0.2227158397436142,0.008340273052453995,-0.0626387968659401
1772536708221845200,5.94384521484375,-0.20554232597351074,0.035237204283475876,-0.0756881982088089
1772536708231894000,5.95389404296875,-0.18868717551231384,0.07329537719488144,-0.07376407086849213
1772536708241942000,5.96394189453125,-0.16564106941223145,0.11954100430011749,-0.0662761926651001
1772536708251991000,5.973990966796875,-0.14386838674545288,0.1809511035680771,-0.04792647808790207
1772536708262040000,5.9840400390625,-0.12692596018314362,0.23699170351028442,-0.025140251964330673
1772536708272089000,5.994089111328125,-0.11642936617136002,0.26312050223350525,0.0050541372038424015
1772536708282137000,6.00413720703125,-0.09958245605230331,0.2534632086753845,0.03681429475545883
1772536708292186000,6.01418603515625,-0.08397446572780609,0.2205665111541748,0.07635903358459473
1772536708302235100,6.024235107421875,-0.04992874339222908,0.1739400029182434,0.12059168517589569
1772536708312284000,6.034283935546875,-0.009010604582726955,0.11610732972621918,0.16525502502918243
1772536708322333200,6.044333251953125,0.02870517410337925,0.05064547806978226,0.20648860931396484
1772536708332381000,6.054380859375,0.06065858155488968,-0.01818205788731575,0.23084773123264313
1772536708342430200,6.06443017578125,0.08367664366960526,-0.08514676988124847,0.24731245636940002
1772536708352479000,6.07447900390625,0.10674707591533661,-0.1342642456293106,0.2544427812099457
1772536708362528000,6.084528076171875,0.11484015733003616,-0.1644064337015152,0.27244681119918823
1772536708372576000,6.094575927734375,0.11734485626220703,-0.16881290078163147,0.2937358617782593
1772536708382625000,6.104625,0.10935905575752258,-0.1395849734544754,0.31735843420028687
1772536708392674000,6.114674072265625,0.11403609812259674,-0.05039729177951813,0.3273546099662781
1772536708402723000,6.12472314453125,0.13914798200130463,0.07624867558479309,0.32544389367103577
1772536708412772000,6.134772216796875,0.16220243275165558,0.137147456407547,0.2915032207965851
1772536708422821000,6.144821044921875,0.16528208553791046,0.09424880892038345,0.2297767996788025
1772536708432870100,6.1548701171875,0.15571653842926025,0.013006947934627533,0.1553177386522293
1772536708442919000,6.1649189453125,0.1442958414554596,-0.04985643923282623,0.0978778749704361
1772536708452968200,6.17496826171875,0.12346857786178589,-0.08990292251110077,0.052741292864084244
1772536708463016000,6.185015869140625,0.07273342460393906,-0.1267172396183014,0.005570567212998867
1772536708473065200,6.195065185546875,0.0020621861331164837,-0.1626342236995697,-0.040141526609659195
1772536708483114200,6.2051142578125,-0.07426469027996063,-0.1765635460615158,-0.07748189568519592
1772536708493163000,6.2151630859375,-0.13227738440036774,-0.1574159562587738,-0.08894307166337967
1772536708503211000,6.2252109375,-0.14950025081634521,-0.10418199747800827,-0.06426138430833817
1772536708513260000,6.235260009765625,-0.1377791464328766,-0.04975496977567673,-0.012142786756157875
1772536708523309300,6.245309326171875,-0.12016679346561432,-0.00980028323829174,0.057892389595508575
1772536708533358000,6.255358154296875,-0.10337262600660324,0.004510479047894478,0.1269739866256714
1772536708543407000,6.265406982421875,-0.0829484686255455,0.009261921048164368,0.20334646105766296
1772536708553455000,6.275455078125,-0.06442085653543472,0.01499996893107891,0.25621020793914795
1772536708563504000,6.285504150390625,-0.06518011540174484,-0.0051612528041005135,0.2789577543735504
1772536708573553200,6.29555322265625,-0.08426406234502792,-0.06229111924767494,0.26228317618370056
1772536708583602200,6.305602294921875,-0.11971893161535263,-0.13875089585781097,0.21924597024917603
1772536708593650200,6.315650146484375,-0.16705980896949768,-0.19638435542583466,0.16590817272663116
1772536708603699200,6.32569921875,-0.21353264153003693,-0.2056851089000702,0.10734401643276215
1772536708613748000,6.335748046875,-0.25241905450820923,-0.16455578804016113,0.05581158027052879
1772536708623797200,6.34579736328125,-0.28094956278800964,-0.11759896576404572,-0.003980422392487526
1772536708633846000,6.355845947265625,-0.29584968090057373,-0.10057976841926575,-0.06616656482219696
1772536708643894300,6.365894287109375,-0.3049682676792145,-0.11463412642478943,-0.13102519512176514
1772536708653943000,6.375943115234375,-0.3078165054321289,-0.13739429414272308,-0.1820226013660431
1772536708663992000,6.385991943359375,-0.31120914220809937,-0.1724659949541092,-0.20958010852336884
1772536708674041000,6.396041015625,-0.310903936624527,-0.21077263355255127,-0.2062184065580368
1772536708684090000,6.406090087890625,-0.3088470995426178,-0.24811652302742004,-0.18583381175994873
1772536708694138000,6.41613818359375,-0.30887266993522644,-0.2700583040714264,-0.15409691631793976
1772536708704187100,6.426187255859375,-0.31129080057144165,-0.26977601647377014,-0.11758630722761154
1772536708714236000,6.43623583984375,-0.31567224860191345,-0.25579094886779785,-0.09322131425142288
1772536708724285200,6.44628515625,-0.3181360960006714,-0.23309043049812317,-0.0943249985575676
1772536708734333000,6.4563330078125,-0.3171406090259552,-0.20013941824436188,-0.11204887181520462
1772536708744382200,6.46638232421875,-0.32321152091026306,-0.1790497601032257,-0.15059317648410797
1772536708754431000,6.476430908203125,-0.3278193175792694,-0.17967745661735535,-0.19649994373321533
1772536708764480000,6.48647998046875,-0.33709633350372314,-0.20021341741085052,-0.248283252120018
1772536708774529300,6.496529296875,-0.36201685667037964,-0.19841845333576202,-0.29353275895118713
1772536708784577000,6.506576904296875,-0.3931276202201843,-0.1852591186761856,-0.32629433274269104
1772536708794626300,6.516626220703125,-0.4284725487232208,-0.1704423576593399,-0.3440525531768799
1772536708804675000,6.526675048828125,-0.4515122175216675,-0.15712755918502808,-0.34411194920539856
1772536708814724000,6.53672412109375,-0.4709615409374237,-0.14180320501327515,-0.32287031412124634
1772536708824772000,6.546772216796875,-0.4835526645183563,-0.1385679394006729,-0.2892829179763794
1772536708834821000,6.556821044921875,-0.4927229881286621,-0.15363557636737823,-0.25889652967453003
1772536708844870100,6.5668701171875,-0.5046709775924683,-0.1892794817686081,-0.23055382072925568
1772536708854919200,6.576919189453125,-0.516567587852478,-0.21733854711055756,-0.19925715029239655
1772536708864968000,6.586968017578125,-0.5291288495063782,-0.250605046749115,-0.17152062058448792
1772536708875016200,6.59701611328125,-0.5466588735580444,-0.2853984534740448,-0.15080948173999786
1772536708885065000,6.60706494140625,-0.5609304308891296,-0.30488723516464233,-0.12523363530635834
1772536708895114200,6.6171142578125,-0.5782918334007263,-0.30444806814193726,-0.0921236127614975
1772536708905163000,6.6271630859375,-0.6022194623947144,-0.29245710372924805,-0.06945454329252243
1772536708915211300,6.637211181640625,-0.6289994120597839,-0.2829682528972626,-0.058576323091983795
1772536708925260000,6.647260009765625,-0.6608214378356934,-0.27719590067863464,-0.053230032324790955
1772536708935309000,6.65730908203125,-0.6895782351493835,-0.26546362042427063,-0.03917812928557396
1772536708945358000,6.667358154296875,-0.7125355005264282,-0.25575730204582214,-0.010321855545043945
1772536708955407000,6.677406982421875,-0.7285365462303162,-0.23691783845424652,0.036797452718019485
1772536708965455000,6.687455078125,-0.7383957505226135,-0.2120584398508072,0.09585706889629364
1772536708975504100,6.697504150390625,-0.7447790503501892,-0.20462901890277863,0.14229753613471985
1772536708985553200,6.70755322265625,-0.7585418224334717,-0.22998011112213135,0.177514910697937
1772536708995602200,6.717602294921875,-0.7752878069877625,-0.2743787169456482,0.19317376613616943
1772536709005651200,6.727651123046875,-0.8052160143852234,-0.32066187262535095,0.19777873158454895
1772536709015699200,6.73769921875,-0.8371731638908386,-0.34515443444252014,0.18380752205848694
1772536709025748000,6.747748046875,-0.867676854133606,-0.33819782733917236,0.15515640377998352
1772536709035797000,6.757796875,-0.8950054049491882,-0.31509438157081604,0.10910716652870178
1772536709045846300,6.76784619140625,-0.9193282723426819,-0.28106164932250977,0.050816137343645096
1772536709055894000,6.77789404296875,-0.9329662919044495,-0.23363712430000305,-0.004779745824635029
1772536709065943300,6.787943359375,-0.940517008304596,-0.18428389728069305,-0.0430791899561882
1772536709075992000,6.797991943359375,-0.9434254169464111,-0.14822283387184143,-0.05870155990123749
1772536709086041000,6.808041015625,-0.9453468322753906,-0.12966178357601166,-0.04478035867214203
1772536709096090000,6.818090087890625,-0.94569993019104,-0.13854582607746124,0.014147672802209854
1772536709106138000,6.82813818359375,-0.9406172633171082,-0.17982842028141022,0.09717048704624176
1772536709116187100,6.838187255859375,-0.9250731468200684,-0.22458310425281525,0.19375136494636536
1772536709126236200,6.848236083984375,-0.8928138017654419,-0.2561686336994171,0.29222559928894043
1772536709136285200,6.85828515625,-0.8769528269767761,-0.33225274085998535,0.3466600775718689
1772536709146334200,6.868334228515625,-0.878574788570404,-0.4391191005706787,0.32603558897972107
1772536709156382200,6.87838232421875,-0.8829935193061829,-0.5210339426994324,0.23979444801807404
1772536709166431200,6.88843115234375,-0.8951098322868347,-0.5734296441078186,0.10471436381340027
1772536709176480000,6.89847998046875,-0.9487389326095581,-0.616523027420044,-0.03629309684038162
1772536709186529300,6.908529296875,-1.0355594158172607,-0.6351675391197205,-0.16482670605182648
1772536709196578000,6.918578125,-1.116540551185608,-0.5819463729858398,-0.2480345070362091
1772536709206626300,6.928626220703125,-1.1634620428085327,-0.44923925399780273,-0.26287344098091125
1772536709216675000,6.938675048828125,-1.1632932424545288,-0.26712164282798767,-0.2167336493730545
1772536709226724000,6.94872412109375,-1.1247040033340454,-0.0716465413570404,-0.13431724905967712
1772536709236773000,6.958773193359375,-1.059281826019287,0.07027197629213333,-0.053361676633358
1772536709246821000,6.968821044921875,-0.9939360618591309,0.13301025331020355,0.015238228254020214
1772536709256870100,6.9788701171875,-0.9334913492202759,0.10423827171325684,0.06838294118642807
1772536709266919200,6.988919189453125,-0.8931747674942017,0.007720912341028452,0.1228947639465332
1772536709276968200,6.99896826171875,-0.8796181678771973,-0.1430579423904419,0.1735675185918808
1772536709287017200,7.009017333984375,-0.8912971615791321,-0.32524967193603516,0.21278521418571472
1772536709297065000,7.01906494140625,-0.9022752642631531,-0.48883700370788574,0.23091840744018555
1772536709307114200,7.0291142578125,-0.9001609683036804,-0.5857211947441101,0.2278728187084198
1772536709317163300,7.039163330078125,-0.8863610029220581,-0.582594096660614,0.19556334614753723
1772536709327212000,7.0492119140625,-0.8724870681762695,-0.5046257972717285,0.13506998121738434
1772536709337261300,7.05926123046875,-0.8613912463188171,-0.4001736640930176,0.048605404794216156
1772536709347309000,7.06930908203125,-0.8697589039802551,-0.29054179787635803,-0.05516428500413895
1772536709357358300,7.0793583984375,-0.8829466104507446,-0.19500543177127838,-0.15831969678401947
1772536709367407000,7.089406982421875,-0.9007845520973206,-0.1499546319246292,-0.24199679493904114
1772536709377456000,7.0994560546875,-0.9164322018623352,-0.1466009020805359,-0.31518125534057617
1772536709387505200,7.109505126953125,-0.9272618293762207,-0.16346332430839539,-0.36360374093055725
1772536709397553200,7.11955322265625,-0.9254612326622009,-0.1849542260169983,-0.38250553607940674
1772536709407601200,7.12960107421875,-0.9079866409301758,-0.21071694791316986,-0.3652765154838562
1772536709417650200,7.139650146484375,-0.8793701529502869,-0.22306708991527557,-0.3163699805736542
1772536709427699200,7.14969921875,-0.8405084013938904,-0.22067944705486298,-0.24234667420387268
1772536709437748200,7.159748291015625,-0.7938477396965027,-0.20891119539737701,-0.16652488708496094
1772536709447796200,7.169796142578125,-0.737524688243866,-0.17781658470630646,-0.0903274193406105
1772536709457845200,7.17984521484375,-0.6811655163764954,-0.14974766969680786,-0.031118685379624367
1772536709467894000,7.18989404296875,-0.6354857683181763,-0.1483699083328247,0.007171126082539558
1772536709477943300,7.199943359375,-0.6068759560585022,-0.163497194647789,0.022010259330272675
1772536709487992300,7.209992431640625,-0.5955278277397156,-0.19520793855190277,0.014595674350857735
1772536709498040300,7.220040283203125,-0.6037639379501343,-0.24833746254444122,0.00022792094387114048
1772536709508089000,7.230089111328125,-0.6188623905181885,-0.3126320242881775,-0.027550935745239258
1772536709518138000,7.24013818359375,-0.6484503746032715,-0.37686240673065186,-0.05307067930698395
1772536709528187400,7.2501875,-0.6756670475006104,-0.41266390681266785,-0.0694461464881897
1772536709538235100,7.260235107421875,-0.7001484036445618,-0.3945874273777008,-0.07192954421043396
1772536709548284200,7.2702841796875,-0.7151167392730713,-0.3530844748020172,-0.07412499934434891
1772536709558333200,7.280333251953125,-0.7194477915763855,-0.30796176195144653,-0.07600679248571396
1772536709568382200,7.29038232421875,-0.715782880783081,-0.25616076588630676,-0.09621544182300568
1772536709578431200,7.30043115234375,-0.7068471312522888,-0.20089352130889893,-0.12313840538263321
1772536709588479200,7.310479248046875,-0.6818864941596985,-0.1491221934556961,-0.15063263475894928
1772536709598528300,7.3205283203125,-0.6584041118621826,-0.10555153340101242,-0.1560489684343338
1772536709608577300,7.330577392578125,-0.6306206583976746,-0.0847482979297638,-0.15909264981746674
1772536709618626000,7.3406259765625,-0.599585771560669,-0.07180187106132507,-0.14521144330501556
1772536709628675300,7.35067529296875,-0.5775402784347534,-0.07358590513467789,-0.12734629213809967
1772536709638723000,7.36072314453125,-0.5634636282920837,-0.08046484738588333,-0.09787467867136002
1772536709648772400,7.3707724609375,-0.5425643920898438,-0.08296245336532593,-0.06320809572935104
1772536709658821000,7.380821044921875,-0.5190950036048889,-0.09346276521682739,-0.02581331506371498
1772536709668870100,7.3908701171875,-0.49619847536087036,-0.12900398671627045,0.014035215601325035
1772536709678919200,7.400919189453125,-0.4684073328971863,-0.17597921192646027,0.06040563806891441
1772536709688967200,7.41096728515625,-0.44399839639663696,-0.22034050524234772,0.09757079929113388
1772536709699016200,7.42101611328125,-0.41434383392333984,-0.2417973279953003,0.14540995657444
1772536709709065200,7.431065185546875,-0.3904811441898346,-0.23952250182628632,0.1918782740831375
1772536709719114000,7.441114013671875,-0.370279997587204,-0.2222556322813034,0.24269351363182068
1772536709729163300,7.451163330078125,-0.35398054122924805,-0.1960146278142929,0.2770726978778839
1772536709739211000,7.4612109375,-0.34080109000205994,-0.16219674050807953,0.2945560812950134
1772536709749260300,7.47126025390625,-0.32948166131973267,-0.11488546431064606,0.29133814573287964
1772536709759309000,7.48130908203125,-0.3211206793785095,-0.06501244008541107,0.2910444140434265
1772536709769358000,7.491358154296875,-0.3110123872756958,-0.01632053591310978,0.2907983362674713
1772536709779407400,7.501407470703125,-0.3022138178348541,0.011879941448569298,0.2914734482765198
1772536709789455000,7.511455078125,-0.3057502508163452,0.004800333175808191,0.2897053360939026
1772536709799504400,7.52150439453125,-0.30651697516441345,-0.044724877923727036,0.26755663752555847
1772536709809553200,7.53155322265625,-0.31159621477127075,-0.08507193624973297,0.25685155391693115
1772536709819602200,7.541602294921875,-0.31410545110702515,-0.06709719449281693,0.25583770871162415
1772536709829651200,7.551651123046875,-0.31232887506484985,-0.029439255595207214,0.2515242099761963
1772536709839699200,7.56169921875,-0.3143331706523895,-0.017955705523490906,0.23088577389717102
1772536709849748200,7.571748291015625,-0.3174704611301422,-0.038221802562475204,0.16828984022140503
1772536709859797200,7.58179736328125,-0.31164881587028503,-0.08651343733072281,0.0846727043390274
1772536709869846000,7.591845947265625,-0.28989914059638977,-0.14611247181892395,-0.0036854506470263004
1772536709879895300,7.601895263671875,-0.2784166634082794,-0.20917187631130219,-0.07887767255306244
1772536709889943000,7.611943115234375,-0.28016337752342224,-0.27284565567970276,-0.12722192704677582
1772536709899992300,7.621992431640625,-0.2942347228527069,-0.32477784156799316,-0.1647716909646988
1772536709910041000,7.632041015625,-0.3274945914745331,-0.3705359399318695,-0.19444739818572998
1772536709920090000,7.642090087890625,-0.37728050351142883,-0.38805100321769714,-0.2022097110748291
1772536709930139100,7.65213916015625,-0.42640945315361023,-0.356664776802063,-0.1769428253173828
1772536709940187100,7.662187255859375,-0.47089436650276184,-0.3141482174396515,-0.1290205717086792
1772536709950236200,7.672236083984375,-0.476878821849823,-0.2461669147014618,-0.06252788007259369
1772536709960285200,7.68228515625,-0.4760604500770569,-0.12905600666999817,0.011476567946374416
1772536709970334000,7.692333984375,-0.4478367865085602,-0.02752179279923439,0.08812589943408966
1772536709980383200,7.70238330078125,-0.39510780572891235,0.05335840955376625,0.150770366191864
1772536709990431000,7.712430908203125,-0.32955867052078247,0.10094133019447327,0.1979960799217224
1772536710000480300,7.722480224609375,-0.28620240092277527,0.10928235203027725,0.23392584919929504
1772536710010529300,7.732529296875,-0.26535117626190186,0.07334504276514053,0.24728411436080933
1772536710020578000,7.742578125,-0.2838148772716522,0.0034852647222578526,0.2296108454465866
1772536710030627300,7.75262744140625,-0.31992921233177185,-0.07106984406709671,0.18731893599033356
1772536710040675000,7.762675048828125,-0.37405288219451904,-0.1313004195690155,0.13387328386306763
1772536710050724400,7.772724365234375,-0.44909754395484924,-0.19490452110767365,0.08386608213186264
1772536710060773000,7.782773193359375,-0.5196835994720459,-0.25175902247428894,0.038749732077121735
1772536710070822100,7.792822265625,-0.5712197422981262,-0.2991412281990051,0.015320630744099617
1772536710080871200,7.80287109375,-0.603135347366333,-0.3325631022453308,0.0054719941690564156
1772536710090920200,7.812920166015625,-0.6177654266357422,-0.3493363559246063,0.00195155362598598
1772536710100968200,7.82296826171875,-0.6156561970710754,-0.361208975315094,0.003934809938073158
1772536710111017200,7.833017333984375,-0.6070048213005066,-0.383010596036911,-0.0009103750344365835
1772536710121066000,7.84306591796875,-0.6028100848197937,-0.40901556611061096,-0.017635026946663857
1772536710131115300,7.853115234375,-0.6072655320167542,-0.42132097482681274,-0.045791033655405045
1772536710141164000,7.8631640625,-0.6200657486915588,-0.40859824419021606,-0.06461132317781448
1772536710151212300,7.87321240234375,-0.6340920925140381,-0.3746439516544342,-0.0864286720752716
1772536710161261000,7.883260986328125,-0.6486254930496216,-0.33462995290756226,-0.10314640402793884
1772536710171310000,7.89331005859375,-0.6681824326515198,-0.3036326766014099,-0.11870358139276505
1772536710181359000,7.903359130859375,-0.6729526519775391,-0.27047738432884216,-0.1316438913345337
1772536710191408000,7.913408203125,-0.6564140319824219,-0.21406063437461853,-0.13968046009540558
1772536710201456000,7.9234560546875,-0.6254646182060242,-0.1500539630651474,-0.1371547132730484
1772536710211505200,7.933505126953125,-0.5962579250335693,-0.12275213748216629,-0.14308065176010132
1772536710221554200,7.94355419921875,-0.5733706951141357,-0.12549066543579102,-0.15433889627456665
1772536710231603200,7.953603271484375,-0.5608752965927124,-0.14036159217357635,-0.16327233612537384
1772536710241652200,7.96365234375,-0.552374541759491,-0.16334573924541473,-0.17167434096336365
1772536710251700200,7.9737001953125,-0.5457726120948792,-0.1846812516450882,-0.17869862914085388
1772536710261749200,7.983749267578125,-0.5514611005783081,-0.19567690789699554,-0.18520766496658325
1772536710271798000,7.993798095703125,-0.5671150088310242,-0.19541794061660767,-0.18472251296043396
1772536710281847300,8.003847412109375,-0.5721888542175293,-0.20723971724510193,-0.18730178475379944
1772536710291896000,8.01389599609375,-0.5854912996292114,-0.22989124059677124,-0.18770557641983032
1772536710301944300,8.0239443359375,-0.6035752296447754,-0.2540431618690491,-0.19641117751598358
1772536710311993000,8.0339931640625,-0.608917772769928,-0.26774686574935913,-0.20836369693279266
1772536710322042000,8.0440419921875,-0.602932333946228,-0.26500993967056274,-0.21233659982681274
1772536710332091100,8.054091064453125,-0.5995702743530273,-0.2503129541873932,-0.20753967761993408
1772536710342140200,8.06414013671875,-0.5997335314750671,-0.245567187666893,-0.20774421095848083
1772536710352188200,8.074188232421875,-0.5978104472160339,-0.2630217373371124,-0.20847727358341217
1772536710362237200,8.0842373046875,-0.5884702205657959,-0.28095731139183044,-0.20630547404289246
1772536710372286200,8.0942861328125,-0.5851935744285583,-0.29114672541618347,-0.1920594871044159
1772536710382335200,8.104335205078126,-0.5815051198005676,-0.27009257674217224,-0.161660835146904
1772536710392384000,8.114384033203125,-0.5666369199752808,-0.2501671314239502,-0.12408321350812912
1772536710402433300,8.124433349609374,-0.5566943287849426,-0.24751034379005432,-0.07878124713897705
1772536710412484400,8.134484375,-0.5464688539505005,-0.2541545331478119,-0.047830432653427124
1772536710422533600,8.14453369140625,-0.5544705986976624,-0.2942095398902893,-0.02066325768828392
1772536710432582700,8.154582763671876,-0.5781703591346741,-0.35527265071868896,-0.00919884443283081
1772536710442631400,8.16463134765625,-0.6010112762451172,-0.43374934792518616,-0.006492806598544121
1772536710452680700,8.1746806640625,-0.6253852844238281,-0.49983954429626465,-0.006772490218281746
1772536710462728400,8.184728515625,-0.6429216265678406,-0.5397288799285889,-0.010794130153954029
1772536710472777700,8.19477783203125,-0.6597756147384644,-0.5157666206359863,-0.011841370724141598
1772536710482826500,8.204826416015624,-0.652718186378479,-0.4483388662338257,-0.009681014344096184
1772536710492875500,8.21487548828125,-0.635206401348114,-0.3543473780155182,0.007002233527600765
1772536710502924500,8.224924560546874,-0.6073204278945923,-0.22863124310970306,0.032307855784893036
1772536710512972500,8.23497265625,-0.5826951861381531,-0.10283404588699341,0.07627388089895248
1772536710523021600,8.245021484375,-0.5637127161026001,-0.010871094651520252,0.11786287277936935
1772536710533070600,8.255070556640625,-0.5547837018966675,0.04710575193166733,0.1594683676958084
1772536710543119400,8.265119384765624,-0.5371530652046204,0.06970693171024323,0.1978093683719635
1772536710553168600,8.275168701171875,-0.5149711966514587,0.05044160038232803,0.24164216220378876
1772536710563216400,8.28521630859375,-0.49391064047813416,0.005559345241636038,0.27535244822502136
1772536710573265700,8.295265625,-0.4760773479938507,-0.1101800799369812,0.28380993008613586
1772536710583314400,8.305314453125,-0.47590184211730957,-0.2687963545322418,0.2663656771183014
1772536710593363500,8.315363525390625,-0.4831054210662842,-0.3939160704612732,0.23663878440856934
1772536710603412500,8.32541259765625,-0.48063480854034424,-0.4590788185596466,0.21094754338264465
1772536710613461500,8.33546142578125,-0.47148409485816956,-0.451693594455719,0.19976124167442322
1772536710623509500,8.345509521484376,-0.45814645290374756,-0.40377986431121826,0.18495087325572968
1772536710633558500,8.35555859375,-0.4354848861694336,-0.35312747955322266,0.14717452228069305
1772536710643607600,8.365607666015626,-0.4299153983592987,-0.3199777901172638,0.0725141316652298
1772536710653656600,8.375656494140625,-0.4467226266860962,-0.2951837480068207,-0.03403974324464798
1772536710663705600,8.38570556640625,-0.47716227173805237,-0.2614082098007202,-0.15029577910900116
1772536710673753600,8.395753662109374,-0.5062049031257629,-0.20518758893013,-0.23156599700450897
1772536710683802600,8.405802734375,-0.5278263092041016,-0.12255103886127472,-0.25468435883522034
1772536710693851400,8.415851318359374,-0.5394421815872192,-0.08737526088953018,-0.22407378256320953
1772536710703900700,8.425900634765625,-0.53183513879776,-0.069270558655262,-0.15802446007728577
1772536710713949400,8.435949462890624,-0.5054817199707031,-0.09670311957597733,-0.06542444229125977
1772536710723997700,8.445997802734375,-0.4637551009654999,-0.10642365366220474,0.04922064021229744
1772536710734046500,8.45604638671875,-0.4201579689979553,-0.09602314233779907,0.16975413262844086
1772536710744095500,8.466095458984375,-0.38456588983535767,-0.08200293034315109,0.2831893563270569
1772536710754144500,8.47614453125,-0.37380826473236084,-0.09414531290531158,0.3762819766998291
1772536710764193500,8.486193603515625,-0.3857911229133606,-0.14584100246429443,0.42037591338157654
1772536710774242300,8.4962421875,-0.4110705554485321,-0.2029564529657364,0.42289605736732483
1772536710784290600,8.50629052734375,-0.443133145570755,-0.21628530323505402,0.39077433943748474
1772536710794339300,8.51633935546875,-0.48433440923690796,-0.17422108352184296,0.3170531690120697
1772536710804388600,8.526388671875,-0.5380886793136597,-0.10392880439758301,0.21015307307243347
1772536710814437400,8.536437255859376,-0.5820762515068054,-0.03061334416270256,0.07248790562152863
1772536710824486400,8.546486328125,-0.6198552846908569,0.06257625669240952,-0.0594906322658062
1772536710834534400,8.556534423828126,-0.6451157927513123,0.14308710396289825,-0.18189413845539093
1772536710844583400,8.56658349609375,-0.6546714901924133,0.15758349001407623,-0.2908283472061157
1772536710854632700,8.5766328125,-0.658094584941864,0.11209134757518768,-0.3710666298866272
1772536710864681500,8.586681396484375,-0.6567318439483643,0.03688793629407883,-0.41528603434562683
1772536710874730500,8.59673046875,-0.6432299613952637,-0.03012205846607685,-0.40884631872177124
1772536710884779500,8.606779541015625,-0.6118571758270264,-0.04791410639882088,-0.3624527156352997
1772536710894827500,8.61682763671875,-0.5690540075302124,-0.02807409130036831,-0.298481285572052
1772536710904876500,8.62687646484375,-0.528282642364502,-0.0056723784655332565,-0.2378741055727005
1772536710914925600,8.636925537109375,-0.4865027368068695,0.004598071798682213,-0.18648332357406616
1772536710924974300,8.646974365234374,-0.4554004967212677,-0.013807566836476326,-0.15746179223060608
1772536710935023600,8.657023681640625,-0.42865413427352905,-0.043588362634181976,-0.14185772836208344
1772536710945071400,8.6670712890625,-0.4124615788459778,-0.09781990945339203,-0.13786353170871735
1772536710955120600,8.67712060546875,-0.3950406014919281,-0.14878277480602264,-0.1342354565858841
1772536710965169400,8.68716943359375,-0.37186017632484436,-0.16885875165462494,-0.12131886184215546
1772536710975218400,8.697218505859375,-0.3525259494781494,-0.1519751399755478,-0.0921972393989563
1772536710985267500,8.707267333984374,-0.33329179883003235,-0.12527801096439362,-0.05996286869049072
1772536710995315500,8.7173154296875,-0.3163101375102997,-0.10810989886522293,-0.039591968059539795
1772536711005364500,8.727364501953126,-0.2966919541358948,-0.09196075797080994,-0.04635399952530861
1772536711015413500,8.73741357421875,-0.2764909267425537,-0.07264984399080276,-0.06884724646806717
1772536711025462300,8.747462158203126,-0.25271716713905334,-0.06131463125348091,-0.09865786880254745
1772536711035511600,8.757511474609375,-0.22688262164592743,-0.055815961211919785,-0.12962040305137634
1772536711045560600,8.767560546875,-0.20716963708400726,-0.054676927626132965,-0.152340367436409
1772536711055608600,8.777608642578125,-0.19278690218925476,-0.051400940865278244,-0.1518375128507614
1772536711065657600,8.78765771484375,-0.17266780138015747,-0.034750327467918396,-0.12070251256227493
1772536711075706400,8.797706298828125,-0.15338680148124695,-0.009909329935908318,-0.08378762751817703
1772536711085755600,8.807755615234376,-0.1308404803276062,0.02371121570467949,-0.04287721589207649
1772536711095804400,8.817804443359375,-0.0930209755897522,0.07602564990520477,-0.00012010824866592884
1772536711105852700,8.827852783203125,-0.050248485058546066,0.13545702397823334,0.04122413694858551
1772536711115901400,8.8379013671875,-0.0016415314748883247,0.17869582772254944,0.08313030749559402
1772536711125950500,8.847950439453125,0.04422023147344589,0.18096432089805603,0.12755955755710602
1772536711135999500,8.85799951171875,0.08981703221797943,0.13925552368164062,0.17622952163219452
1772536711146048500,8.868048583984375,0.1169397383928299,0.06980827450752258,0.23292262852191925
1772536711156097500,8.87809765625,0.13043826818466187,0.003956995438784361,0.282087504863739
1772536711166145500,8.8881455078125,0.13478507101535797,-0.04229731857776642,0.3252736032009125
1772536711176194300,8.8981943359375,0.12817025184631348,-0.08172203600406647,0.34126776456832886
1772536711186243600,8.90824365234375,0.10445772856473923,-0.11799002438783646,0.32415562868118286
1772536711196292400,8.918292236328124,0.08310098946094513,-0.1333637833595276,0.28091147541999817
1772536711206341600,8.928341552734375,0.07392959296703339,-0.11334985494613647,0.22727301716804504
1772536711216389400,8.938389404296874,0.07993048429489136,-0.02260921336710453,0.1799216866493225
1772536711226438400,8.9484384765625,0.13370956480503082,0.12821997702121735,0.15908564627170563
1772536711236487400,8.9584873046875,0.1829015016555786,0.21339845657348633,0.12077619135379791
1772536711246536400,8.968536376953125,0.1936952918767929,0.1375042200088501,0.048571500927209854
1772536711256585500,8.97858544921875,0.18143141269683838,-0.025704003870487213,-0.03424111753702164
1772536711266634500,8.988634521484375,0.16098178923130035,-0.14361093938350677,-0.08070315420627594
1772536711276682500,8.9986826171875,0.13101795315742493,-0.18719452619552612,-0.08637077361345291
1772536711286731500,9.0087314453125,0.0963827446103096,-0.20776505768299103,-0.06379568576812744
1772536711296780500,9.018780517578126,0.06147298589348793,-0.21514387428760529,-0.030373085290193558
1772536711306829600,9.02882958984375,0.06375478953123093,-0.17095111310482025,0.01878460682928562
1772536711316878600,9.038878662109376,0.08580050617456436,-0.06471820920705795,0.07618994265794754
1772536711326927400,9.04892724609375,0.13258932530879974,0.05794592574238777,0.13252858817577362
1772536711336975600,9.0589755859375,0.1912725418806076,0.1601051390171051,0.16403543949127197
1772536711347024400,9.0690244140625,0.26359254121780396,0.19855213165283203,0.1654200255870819
1772536711357073700,9.07907373046875,0.3082790970802307,0.17051610350608826,0.1518385261297226
1772536711367122400,9.089122314453125,0.3192284107208252,0.12017703801393509,0.1299193799495697
1772536711377171500,9.09917138671875,0.3106406331062317,0.07134196162223816,0.10698234289884567
1772536711387219500,9.109219482421874,0.29005226492881775,0.042927101254463196,0.09051841497421265
1772536711397268500,9.1192685546875,0.2660737931728363,0.061298906803131104,0.09082850813865662
1772536711407317500,9.1293173828125,0.24508380889892578,0.1199483722448349,0.10420875996351242
1772536711417363500,9.139363525390625,0.22288213670253754,0.15579667687416077,0.10813169926404953
1772536711427412200,9.149412109375,0.2186833918094635,0.1449189931154251,0.10494709014892578
1772536711437461500,9.15946142578125,0.22237050533294678,0.11526599526405334,0.09168923646211624
1772536711447509200,9.16950927734375,0.22629548609256744,0.08643461763858795,0.07770977169275284
1772536711457558300,9.179558349609374,0.2559729516506195,0.0655813068151474,0.06297279894351959
1772536711467607300,9.189607177734375,0.2900089621543884,0.09132421761751175,0.06689377129077911
1772536711477656300,9.19965625,0.30975162982940674,0.12484852224588394,0.08913619071245193
1772536711487705300,9.209705322265625,0.3135186731815338,0.060700424015522,0.0700618252158165
1772536711497754400,9.21975439453125,0.3148110806941986,-0.03978610038757324,0.047635577619075775
1772536711507802400,9.22980224609375,0.2884969115257263,-0.1593513786792755,0.022043665871024132
1772536711517851400,9.239851318359374,0.25039660930633545,-0.29138079285621643,-0.008434329181909561
1772536711527900400,9.249900390625,0.22274285554885864,-0.35932523012161255,-0.03058011084794998
1772536711537949400,9.259949462890624,0.19120478630065918,-0.36328810453414917,-0.05675933137536049
1772536711547998500,9.26999853515625,0.14528203010559082,-0.3417327404022217,-0.08825813978910446
1772536711558046500,9.28004638671875,0.129603773355484,-0.2723289132118225,-0.1187480017542839
1772536711568095500,9.290095458984375,0.1479702591896057,-0.13774125277996063,-0.1307726949453354
