time,seconds_elapsed,z,y,x
1772536702328284200,0.0502841796875,-0.08121415972709656,-0.049367550760507584,0.1186281144618988
1772536702338333400,0.06033349609375,-0.11566774547100067,-0.0839119479060173,0.005875998642295599
1772536702348381200,0.070381103515625,-0.14878308773040771,-0.11050201207399368,-0.11330685019493103
1772536702358430500,0.080430419921875,-0.17333637177944183,-0.110825315117836,-0.21337085962295532
1772536702368479500,0.0904794921875,-0.20262686908245087,-0.09391983598470688,-0.28724268078804016
1772536702378527500,0.100527587890625,-0.2156401425600052,-0.09694119542837143,-0.3333337604999542
1772536702388576300,0.110576171875,-0.209059476852417,-0.12253789603710175,-0.3509271442890167
1772536702398625300,0.120625244140625,-0.18896539509296417,-0.14672605693340302,-0.33947500586509705
1772536702408673000,0.130673095703125,-0.15083132684230804,-0.16457189619541168,-0.31325697898864746
1772536702418721800,0.1407216796875,-0.09898197650909424,-0.15290433168411255,-0.2694421112537384
1772536702428770000,0.15077001953125,-0.047017041593790054,-0.10073992609977722,-0.21349257230758667
1772536702438818800,0.16081884765625,-0.01047421246767044,-0.05089886859059334,-0.1669117510318756
1772536702448868000,0.1708681640625,0.016262326389551163,-0.026084598153829575,-0.15063850581645966
1772536702458915800,0.180915771484375,0.037219539284706116,-0.0272073857486248,-0.15531422197818756
1772536702468965000,0.190965087890625,0.04645165428519249,-0.05582518130540848,-0.1839197725057602
1772536702479014000,0.201013916015625,0.03632818162441254,-0.11955969035625458,-0.2232906073331833
1772536702489062100,0.211062255859375,0.01525591779500246,-0.21782153844833374,-0.2617748975753784
1772536702499111000,0.22111083984375,-0.011152253486216068,-0.30857595801353455,-0.2682974934577942
1772536702509159200,0.2311591796875,-0.0385173000395298,-0.3615153133869171,-0.2563715875148773
1772536702519208000,0.2412080078125,-0.06416540592908859,-0.3713189661502838,-0.23498187959194183
1772536702529257000,0.251257080078125,-0.08130710572004318,-0.34979742765426636,-0.21732352674007416
1772536702539305000,0.261304931640625,-0.0896712988615036,-0.30039578676223755,-0.20054136216640472
1772536702549354000,0.27135400390625,-0.08622383326292038,-0.2311818152666092,-0.19158434867858887
1772536702559403000,0.281403076171875,-0.0901128500699997,-0.1552726775407791,-0.19758684933185577
1772536702569451000,0.291450927734375,-0.09467244893312454,-0.09916573017835617,-0.2084067314863205
1772536702579500000,0.3015,-0.1012246236205101,-0.055802278220653534,-0.22469009459018707
1772536702589548000,0.311548095703125,-0.1021769717335701,-0.012223110534250736,-0.2418999820947647
1772536702599597000,0.32159716796875,-0.10120224952697754,0.020130302757024765,-0.2563692033290863
1772536702609646000,0.33164599609375,-0.1009545773267746,0.02045893669128418,-0.257882684469223
1772536702619694000,0.341694091796875,-0.0981537327170372,0.0014623417519032955,-0.25646933913230896
1772536702629743000,0.3517431640625,-0.11179390549659729,-0.039690688252449036,-0.2500750720500946
1772536702639791900,0.3617919921875,-0.08380435407161713,-0.06603734195232391,-0.22312922775745392
1772536702649840000,0.371840087890625,-0.0404379703104496,-0.06902540475130081,-0.1731044054031372
1772536702659889000,0.381888916015625,-0.027994882315397263,-0.061398379504680634,-0.11975649744272232
1772536702669937000,0.39193701171875,-0.020441092550754547,-0.03061969392001629,-0.052745770663022995
1772536702679986000,0.40198583984375,0.0041614556685090065,0.02901593968272209,0.016922790557146072
1772536702690035200,0.41203515625,0.032528650015592575,0.09059248119592667,0.08014517277479172
1772536702700083000,0.4220830078125,0.06571695953607559,0.13444969058036804,0.13536395132541656
1772536702710132000,0.432132080078125,0.1034206673502922,0.16510054469108582,0.18330511450767517
1772536702720181000,0.442180908203125,0.15070216357707977,0.1752525120973587,0.22701478004455566
1772536702730229000,0.45222900390625,0.1985407918691635,0.16932910680770874,0.26534271240234375
1772536702740278000,0.462278076171875,0.23878434300422668,0.15706472098827362,0.3031651973724365
1772536702750327000,0.4723271484375,0.2645304501056671,0.11575616151094437,0.3345188498497009
1772536702760375000,0.482375,0.2829246520996094,0.03368792310357094,0.36192598938941956
1772536702770423800,0.492423828125,0.2889029085636139,-0.048460476100444794,0.3927760422229767
1772536702780472000,0.50247216796875,0.2748022675514221,-0.08713756501674652,0.4248780608177185
1772536702790520800,0.512520751953125,0.26110216975212097,-0.08100377023220062,0.4554396867752075
1772536702800570000,0.522570068359375,0.2594960033893585,-0.09560056030750275,0.45248252153396606
1772536702810617900,0.532617919921875,0.25898414850234985,-0.10997763276100159,0.4216327369213104
1772536702820667100,0.542667236328125,0.23253284394741058,-0.11865900456905365,0.3694142699241638
1772536702830716000,0.5527158203125,0.19348371028900146,-0.1409403383731842,0.30422061681747437
1772536702840764200,0.56276416015625,0.1650877594947815,-0.18571554124355316,0.22154437005519867
1772536702850813000,0.57281298828125,0.1471332609653473,-0.2317192405462265,0.15472646057605743
1772536702860861200,0.582861083984375,0.1373107135295868,-0.25718945264816284,0.1186629980802536
1772536702870910000,0.592909912109375,0.12665700912475586,-0.26163506507873535,0.10771074891090393
1772536702880959000,0.602958984375,0.132639542222023,-0.26209765672683716,0.11775246262550354
1772536702891007000,0.613007080078125,0.1489010602235794,-0.2426307499408722,0.14801768958568573
1772536702901056000,0.623055908203125,0.18216633796691895,-0.18648040294647217,0.20456326007843018
1772536702911105000,0.63310498046875,0.23577551543712616,-0.11106313765048981,0.26725009083747864
1772536702921153000,0.643153076171875,0.2816244959831238,-0.050340402871370316,0.3296857476234436
1772536702931202000,0.6532021484375,0.3203202188014984,-0.009675797075033188,0.365402489900589
1772536702941251000,0.6632509765625,0.361293762922287,0.013111807405948639,0.37744954228401184
1772536702951299000,0.673299072265625,0.3932090699672699,0.03338192403316498,0.36756789684295654
1772536702961348000,0.68334814453125,0.42115840315818787,0.042991142719984055,0.33439236879348755
1772536702971396000,0.69339599609375,0.42559871077537537,0.03416436165571213,0.2866072654724121
1772536702981445000,0.703445068359375,0.41679057478904724,0.03412388265132904,0.23826342821121216
1772536702991494000,0.713493896484375,0.40759041905403137,0.05673038959503174,0.19540438055992126
1772536703001542100,0.723542236328125,0.3962077796459198,0.08592396229505539,0.15439170598983765
1772536703011591000,0.7335908203125,0.3812216520309448,0.11894290149211884,0.12096983194351196
1772536703021640000,0.743639892578125,0.3658003509044647,0.16005970537662506,0.09384366869926453
1772536703031688000,0.75368798828125,0.3496725261211395,0.2164902240037918,0.0744052603840828
1772536703041737000,0.763737060546875,0.33633461594581604,0.2637181878089905,0.06525596976280212
1772536703051785000,0.773784912109375,0.3340373635292053,0.3055324852466583,0.06256245076656342
1772536703061834000,0.783833984375,0.32893848419189453,0.31183671951293945,0.059353604912757874
1772536703071883000,0.793883056640625,0.3163965940475464,0.27323126792907715,0.053045641630887985
1772536703081931000,0.803930908203125,0.30646005272865295,0.21695362031459808,0.04097379744052887
1772536703091980000,0.81397998046875,0.29288381338119507,0.1677194982767105,0.02208985574543476
1772536703102029000,0.824029052734375,0.2852482497692108,0.14189694821834564,0.0014807175612077117
1772536703112077000,0.8340771484375,0.2665105164051056,0.12415763735771179,-0.009019860066473484
1772536703122126000,0.8441259765625,0.24963699281215668,0.10983994603157043,-0.016408268362283707
1772536703132174800,0.8541748046875,0.2225465178489685,0.1153034195303917,-0.01001907791942358
1772536703142223000,0.86422314453125,0.205119326710701,0.16545873880386353,-0.001094559207558632
1772536703152272000,0.87427197265625,0.20584850013256073,0.2359379678964615,0.0038064562249928713
1772536703162321200,0.884321044921875,0.21920984983444214,0.32385876774787903,-0.00464721629396081
1772536703172369000,0.894368896484375,0.2403753250837326,0.43599915504455566,-0.02304859459400177
1772536703182418200,0.904418212890625,0.2484297901391983,0.5525894165039062,-0.0546342171728611
1772536703192466000,0.9144658203125,0.24330267310142517,0.6204387545585632,-0.09608578681945801
1772536703202515000,0.924514892578125,0.2250586748123169,0.6259056925773621,-0.13633839786052704
1772536703212564000,0.93456396484375,0.19621051847934723,0.5876200795173645,-0.17017652094364166
1772536703222612000,0.944612060546875,0.1527908742427826,0.513380229473114,-0.19798073172569275
1772536703232661000,0.954660888671875,0.1101592630147934,0.41717061400413513,-0.21444810926914215
1772536703242710000,0.9647099609375,0.07012848556041718,0.3175761103630066,-0.22458596527576447
1772536703252758000,0.974758056640625,0.03244795277714729,0.22349700331687927,-0.23521678149700165
1772536703262806800,0.984806884765625,0.004569185432046652,0.14638490974903107,-0.23967677354812622
1772536703272856000,0.99485595703125,-0.008577775210142136,0.08752825111150742,-0.24307070672512054
1772536703282903800,1.00490380859375,-0.008647816255688667,0.041977543383836746,-0.24255351722240448
1772536703292953000,1.014953125,-0.003319630166515708,-0.0012980246683582664,-0.23604661226272583
1772536703303002000,1.025002197265625,-0.00430153775960207,-0.020786771550774574,-0.22273613512516022
1772536703313050000,1.035050048828125,-0.015303588472306728,-0.02436632663011551,-0.20076052844524384
1772536703323099000,1.045098876953125,-0.0317227765917778,-0.02828277088701725,-0.18027177453041077
1772536703333147100,1.055147216796875,-0.05724198371171951,-0.04683088883757591,-0.15918458998203278
1772536703343196000,1.06519580078125,-0.11051026731729507,-0.081721231341362,-0.14198456704616547
1772536703353245000,1.075244873046875,-0.10766254365444183,-0.021872807294130325,-0.08339289575815201
1772536703363293000,1.08529296875,-0.10830916464328766,0.04038231074810028,-0.013309413567185402
1772536703373342000,1.095342041015625,-0.14126019179821014,0.04065395146608353,0.03612871095538139
1772536703383391000,1.105390869140625,-0.1729866862297058,0.01980646140873432,0.06988294422626495
1772536703393439000,1.11543896484375,-0.18695257604122162,-0.001249821507371962,0.10218069702386856
1772536703403487700,1.12548779296875,-0.19097208976745605,-0.014879346825182438,0.12789751589298248
1772536703413536800,1.135536865234375,-0.1892426311969757,-0.01480238139629364,0.15484391152858734
1772536703423584800,1.145584716796875,-0.17921395599842072,0.020265057682991028,0.19646698236465454
1772536703433633800,1.1556337890625,-0.17285487055778503,0.08077181130647659,0.23119939863681793
1772536703443682600,1.1656826171875,-0.16958557069301605,0.13448616862297058,0.25065964460372925
1772536703453730800,1.175730712890625,-0.17785735428333282,0.1808195859193802,0.24435807764530182
1772536703463779600,1.185779541015625,-0.18682074546813965,0.20288333296775818,0.2050359696149826
1772536703473828900,1.195828857421875,-0.1975351721048355,0.2041454166173935,0.1515202820301056
1772536703483876600,1.205876708984375,-0.22170177102088928,0.19439557194709778,0.09742242842912674
1772536703493926000,1.21592578125,-0.2455572932958603,0.17230331897735596,0.05487363412976265
1772536703503973600,1.2259736328125,-0.26450756192207336,0.1589781939983368,0.04397544637322426
1772536703514023000,1.23602294921875,-0.2747993469238281,0.16751763224601746,0.053876280784606934
1772536703524071700,1.24607177734375,-0.2697339951992035,0.1739179939031601,0.07010691612958908
1772536703534120000,1.256119873046875,-0.2505616545677185,0.17326632142066956,0.09736943244934082
1772536703544168700,1.266168701171875,-0.23687991499900818,0.15010108053684235,0.12221139669418335
1772536703554217700,1.2762177734375,-0.2151746302843094,0.1066817045211792,0.1543637365102768
1772536703564265700,1.286265625,-0.20197919011116028,0.04897952824831009,0.18896299600601196
1772536703574314800,1.296314697265625,-0.19278383255004883,0.0075513930059969425,0.22168391942977905
1772536703584363800,1.30636376953125,-0.1747789978981018,-0.020973458886146545,0.24588780105113983
1772536703594411800,1.316411865234375,-0.1447976678609848,-0.05555646866559982,0.25731781125068665
1772536703604460800,1.326460693359375,-0.1245291456580162,-0.10939386487007141,0.2531486451625824
1772536703614509800,1.336509765625,-0.11635137349367142,-0.18533922731876373,0.24251329898834229
1772536703624557800,1.346557861328125,-0.11308448016643524,-0.2472659796476364,0.22360433638095856
1772536703634606800,1.35660693359375,-0.10980425775051117,-0.29072609543800354,0.20082977414131165
1772536703644655600,1.366655517578125,-0.13409149646759033,-0.29304227232933044,0.16654956340789795
1772536703654703900,1.376703857421875,-0.17944060266017914,-0.27440518140792847,0.12230034917593002
1772536703664752600,1.386752685546875,-0.22098352015018463,-0.2190612405538559,0.06909837573766708
1772536703674802000,1.396802001953125,-0.24295911192893982,-0.11251801997423172,0.01444312185049057
1772536703684849700,1.406849609375,-0.24998053908348083,0.018630675971508026,-0.03184980899095535
1772536703694899000,1.41689892578125,-0.2503003776073456,0.14119574427604675,-0.0663159042596817
1772536703704947700,1.42694775390625,-0.23790603876113892,0.24208374321460724,-0.09541679918766022
1772536703714996000,1.436995849609375,-0.21011435985565186,0.3032669425010681,-0.1092551201581955
1772536703725044700,1.447044677734375,-0.19109351933002472,0.31856971979141235,-0.10963728278875351
1772536703735092700,1.4570927734375,-0.178668811917305,0.27691203355789185,-0.09683280438184738
1772536703745141800,1.467141845703125,-0.1720695048570633,0.17772045731544495,-0.0758604109287262
1772536703755190800,1.477190673828125,-0.1530553251504898,0.04661517217755318,-0.039265647530555725
1772536703765238800,1.48723876953125,-0.12810443341732025,-0.046900928020477295,0.028059065341949463
1772536703775287800,1.497287841796875,-0.10456289350986481,-0.08736526221036911,0.10615333169698715
1772536703785336800,1.5073369140625,-0.08890936523675919,-0.08225253224372864,0.17692683637142181
1772536703795384600,1.517384521484375,-0.06935643404722214,-0.04826074093580246,0.2162361592054367
1772536703805433900,1.527433837890625,-0.06526901572942734,0.013315805234014988,0.21971851587295532
1772536703815483000,1.53748291015625,-0.06807918846607208,0.09249851107597351,0.18699252605438232
1772536703825531000,1.54753076171875,-0.07685483247041702,0.18522311747074127,0.12985627353191376
1772536703835579600,1.55757958984375,-0.09943391382694244,0.2719111442565918,0.053225405514240265
1772536703845628700,1.567628662109375,-0.13286110758781433,0.32930999994277954,-0.02973286248743534
1772536703855676700,1.5776767578125,-0.17273342609405518,0.3453265130519867,-0.12226545810699463
1772536703865725700,1.5877255859375,-0.21244914829730988,0.31663069128990173,-0.2077702432870865
1772536703875775000,1.59777490234375,-0.24975045025348663,0.2540844678878784,-0.2669014632701874
1772536703885822700,1.60782275390625,-0.27275723218917847,0.18326888978481293,-0.2973587214946747
1772536703895871700,1.617871826171875,-0.2920244038105011,0.101363904774189,-0.3015694320201874
1772536703905920800,1.627920654296875,-0.30606937408447266,0.023031815886497498,-0.2885953187942505
1772536703915968800,1.63796875,-0.30424776673316956,-0.023608922958374023,-0.2663818895816803
1772536703926017800,1.648017822265625,-0.297153115272522,-0.034936945885419846,-0.22050228714942932
1772536703936066800,1.65806689453125,-0.29659757018089294,-0.03404372185468674,-0.16759885847568512
1772536703946114800,1.66811474609375,-0.2955954372882843,-0.04615604504942894,-0.12395390123128891
1772536703956163600,1.67816357421875,-0.2924198806285858,-0.08458998799324036,-0.10209067910909653
1772536703966212900,1.688212890625,-0.28460562229156494,-0.13409069180488586,-0.11454921215772629
1772536703976260600,1.698260498046875,-0.2702256143093109,-0.17781154811382294,-0.14402295649051666
1772536703986310000,1.708309814453125,-0.25578996539115906,-0.218697190284729,-0.1887717843055725
1772536703996358700,1.718358642578125,-0.2475152611732483,-0.25761663913726807,-0.23088115453720093
1772536704006407000,1.728406982421875,-0.24455514550209045,-0.28201863169670105,-0.2641781270503998
1772536704016455700,1.73845556640625,-0.2492401897907257,-0.2955959737300873,-0.2826386094093323
1772536704026504700,1.748504638671875,-0.24592535197734833,-0.27171221375465393,-0.2900342047214508
1772536704036552700,1.758552734375,-0.22729147970676422,-0.20038023591041565,-0.28873538970947266
1772536704046601700,1.768601806640625,-0.19981324672698975,-0.09602746367454529,-0.27684223651885986
1772536704056650800,1.778650634765625,-0.15439437329769135,0.016275109723210335,-0.2671422064304352
1772536704066698800,1.78869873046875,-0.09149529784917831,0.11515748500823975,-0.24834083020687103
1772536704076747800,1.798747802734375,-0.03945792838931084,0.18738454580307007,-0.22591595351696014
1772536704086796800,1.808796875,0.0022977753542363644,0.20097199082374573,-0.19739562273025513
1772536704096844800,1.8188447265625,0.04150936007499695,0.1918479949235916,-0.16378147900104523
1772536704106893800,1.828893798828125,0.07436797022819519,0.18205022811889648,-0.11166448146104813
1772536704116942600,1.838942626953125,0.10036175698041916,0.16087809205055237,-0.04987674579024315
1772536704126990800,1.848990966796875,0.12434565275907516,0.12194747477769852,0.005376921966671944
1772536704137039600,1.85903955078125,0.15957048535346985,0.07708093523979187,0.06684268265962601
1772536704147088600,1.869088623046875,0.20230703055858612,0.05269996449351311,0.12667112052440643
1772536704157136600,1.87913671875,0.2436600625514984,0.04952414333820343,0.1838177740573883
1772536704167185700,1.889185546875,0.2910400927066803,0.045161087065935135,0.226973757147789
1772536704177234700,1.899234619140625,0.33165544271469116,0.02815067768096924,0.2524746060371399
1772536704187282700,1.90928271484375,0.36697399616241455,0.01062334980815649,0.2673153281211853
1772536704197331700,1.919331787109375,0.40687134861946106,-0.0041313618421554565,0.27993232011795044
1772536704207380700,1.929380615234375,0.44517800211906433,-0.002930542454123497,0.29134583473205566
1772536704217428700,1.9394287109375,0.4817991256713867,0.022609705105423927,0.30256038904190063
1772536704227477800,1.949477783203125,0.5230845212936401,0.0671345591545105,0.321695476770401
1772536704237526500,1.959526611328125,0.5598044395446777,0.09567326307296753,0.3434463143348694
1772536704247574800,1.96957470703125,0.5843744874000549,0.09277734160423279,0.36362534761428833
1772536704257623600,1.97962353515625,0.6023867726325989,0.05290955305099487,0.36032676696777344
1772536704267672800,1.9896728515625,0.6047316789627075,0.0036189695820212364,0.32803434133529663
1772536704277720600,1.999720458984375,0.5909807682037354,-0.016451677307486534,0.28180983662605286
1772536704287769900,2.009769775390625,0.5634902715682983,-0.0080885523930192,0.22850987315177917
1772536704297818600,2.019818603515625,0.5197939276695251,-0.0005600627628155053,0.16737034916877747
1772536704307867000,2.029866943359375,0.4569379985332489,-0.012259596027433872,0.09323487430810928
1772536704317915600,2.03991552734375,0.38030287623405457,-0.040167659521102905,0.016930779442191124
1772536704327964700,2.049964599609375,0.31813642382621765,-0.0464513897895813,-0.04999126121401787
1772536704338012700,2.0600126953125,0.27973631024360657,-0.02213193289935589,-0.10446808487176895
1772536704348061700,2.070061767578125,0.27181074023246765,0.0054243262857198715,-0.1333351582288742
1772536704358110700,2.08011083984375,0.27946946024894714,0.041005223989486694,-0.13248081505298615
1772536704368158700,2.09015869140625,0.30250367522239685,0.10592003911733627,-0.09504049271345139
1772536704378207700,2.100207763671875,0.32529687881469727,0.18714725971221924,-0.04066593572497368
1772536704388256800,2.1102568359375,0.34685835242271423,0.25046125054359436,0.019345734268426895
1772536704398304800,2.1203046875,0.3517194092273712,0.28000450134277344,0.07809746265411377
1772536704408353800,2.130353759765625,0.32364678382873535,0.2548895478248596,0.11917885392904282
1772536704418402800,2.14040283203125,0.2831241190433502,0.1948736160993576,0.14694523811340332
1772536704428450800,2.150450927734375,0.23028592765331268,0.14546504616737366,0.15667296946048737
1772536704438499800,2.160499755859375,0.1691237837076187,0.10881543159484863,0.1562894731760025
1772536704448548900,2.170548828125,0.09159862250089645,0.08620412647724152,0.14544348418712616
1772536704458596900,2.180596923828125,0.033359821885824203,0.055745553225278854,0.12140685319900513
1772536704468646000,2.19064599609375,-0.004765193909406662,0.03670475259423256,0.09988158941268921
1772536704478695000,2.20069482421875,-0.03662858530879021,0.046968042850494385,0.08459318429231644
1772536704488743000,2.210742919921875,-0.06099357828497887,0.04416026920080185,0.07189922034740448
1772536704498792000,2.2207919921875,-0.07534002512693405,0.029583457857370377,0.05492530018091202
1772536704508840700,2.2308408203125,-0.07984050363302231,0.01853320375084877,0.03693218529224396
1772536704518889000,2.240888916015625,-0.07663485407829285,0.027277959510684013,0.018100440502166748
1772536704528937700,2.250937744140625,-0.08826940506696701,0.03316567465662956,0.00024314661277458072
1772536704538987000,2.260987060546875,-0.1092441976070404,0.014157896861433983,-0.028983181342482567
1772536704549034800,2.27103466796875,-0.12928688526153564,-0.01176291611045599,-0.06037040054798126
1772536704559084000,2.281083984375,-0.14230814576148987,-0.027219636365771294,-0.08260779082775116
1772536704569132800,2.2911328125,-0.15908180177211761,-0.02628832869231701,-0.09514622390270233
1772536704579181000,2.30118115234375,-0.1743137389421463,-0.025886191055178642,-0.11187619715929031
1772536704589229800,2.311229736328125,-0.18456292152404785,-0.028720328584313393,-0.13939811289310455
1772536704599278800,2.32127880859375,-0.18072077631950378,-0.019591810181736946,-0.16735969483852386
1772536704609327900,2.331327880859375,-0.18109442293643951,-0.0015840481501072645,-0.19902761280536652
1772536704619375900,2.3413759765625,-0.17522189021110535,0.005201153457164764,-0.23368385434150696
1772536704629425000,2.3514248046875,-0.1758384108543396,-0.013215404003858566,-0.2726901173591614
1772536704639473000,2.361472900390625,-0.17372198402881622,-0.03839106485247612,-0.31216108798980713
1772536704649522000,2.37152197265625,-0.1772882342338562,-0.07340683788061142,-0.3322410583496094
1772536704659571000,2.381571044921875,-0.17916922271251678,-0.11640676856040955,-0.34176105260849
1772536704669619700,2.39161962890625,-0.18459807336330414,-0.15942774713039398,-0.33560118079185486
1772536704679668000,2.40166796875,-0.19694316387176514,-0.21168296039104462,-0.33778390288352966
1772536704689716700,2.411716796875,-0.20356936752796173,-0.2504172921180725,-0.3437587022781372
1772536704699766000,2.42176611328125,-0.2057694047689438,-0.2594885528087616,-0.34259703755378723
1772536704709813800,2.431813720703125,-0.21507476270198822,-0.24822498857975006,-0.33831173181533813
1772536704719863000,2.441863037109375,-0.22228766977787018,-0.22111853957176208,-0.3228270411491394
1772536704729911800,2.451911865234375,-0.20924696326255798,-0.18078681826591492,-0.29293733835220337
1772536704739960000,2.4619599609375,-0.18264757096767426,-0.125786691904068,-0.24327151477336884
1772536704750008800,2.4720087890625,-0.14287912845611572,-0.0721713975071907,-0.19731253385543823
1772536704760057900,2.482057861328125,-0.10241825133562088,-0.048323854804039,-0.15057672560214996
1772536704770105900,2.49210595703125,-0.06166762486100197,-0.05526299029588699,-0.10982583463191986
1772536704780155000,2.50215478515625,-0.019605126231908798,-0.07315463572740555,-0.06310413777828217
1772536704790204000,2.512203857421875,0.013913685455918312,-0.07628252357244492,-0.00042983421008102596
1772536704800252000,2.522251953125,0.022902386263012886,-0.07444600760936737,0.06430522352457047
1772536704810301000,2.532301025390625,0.01960938796401024,-0.08160138875246048,0.12161458283662796
1772536704820350000,2.542349853515625,0.0019829897210001945,-0.06448951363563538,0.18127284944057465
1772536704830398000,2.55239794921875,-0.013142433948814869,-0.02317829057574272,0.2395193874835968
1772536704840447000,2.562447021484375,-0.03134433925151825,0.02538924664258957,0.27727022767066956
1772536704850495700,2.572495849609375,-0.047322776168584824,0.08723130822181702,0.2972037196159363
1772536704860545000,2.582544921875,-0.060072124004364014,0.13998720049858093,0.30177634954452515
1772536704870592800,2.5925927734375,-0.06463757902383804,0.16756077110767365,0.2906011939048767
1772536704880642000,2.60264208984375,-0.06988827139139175,0.16129648685455322,0.2624979317188263
1772536704890690800,2.61269091796875,-0.07709904760122299,0.12483087927103043,0.22920122742652893
1772536704900739000,2.622739013671875,-0.09298000484704971,0.08135637640953064,0.19989420473575592
1772536704910787800,2.632787841796875,-0.13070128858089447,0.034009899944067,0.17386260628700256
1772536704920836900,2.6428369140625,-0.1628914475440979,-0.0076089175418019295,0.16288718581199646
1772536704930884900,2.652884765625,-0.19370049238204956,-0.016516393050551414,0.17413239181041718
1772536704940934000,2.662933837890625,-0.2082490772008896,-0.005568403284996748,0.21653950214385986
1772536704950983000,2.67298291015625,-0.20911966264247894,0.026387931779026985,0.2661967873573303
1772536704961031000,2.683031005859375,-0.18360604345798492,0.090530164539814,0.32749342918395996
1772536704971080000,2.693079833984375,-0.12672971189022064,0.18454721570014954,0.391889750957489
1772536704981129000,2.70312890625,-0.04439622536301613,0.27462995052337646,0.458087682723999
1772536704991177000,2.713177001953125,0.02803483046591282,0.3178972899913788,0.5153770446777344
1772536705001226000,2.72322607421875,0.07413521409034729,0.2992021441459656,0.5410366058349609
1772536705011274800,2.733274658203125,0.09156586974859238,0.26149898767471313,0.5298222899436951
1772536705021324000,2.743323974609375,0.0842142105102539,0.22461099922657013,0.4903787672519684
1772536705031371800,2.753371826171875,0.031322769820690155,0.1835583746433258,0.4316011965274811
1772536705041421000,2.763421142578125,-0.07571553438901901,0.108602374792099,0.3457787036895752
1772536705051469800,2.7734697265625,-0.2112206369638443,-0.021350029855966568,0.23991645872592926
1772536705061518000,2.78351806640625,-0.35001206398010254,-0.14171239733695984,0.11753541976213455
1772536705071566800,2.79356689453125,-0.46971794962882996,-0.2258075624704361,-0.016892164945602417
1772536705081616000,2.803615966796875,-0.5560083985328674,-0.26801812648773193,-0.15788203477859497
1772536705091664000,2.813663818359375,-0.6109248995780945,-0.2573513686656952,-0.3026171326637268
1772536705101713000,2.823712890625,-0.6461973786354065,-0.20669378340244293,-0.42438456416130066
1772536705111762000,2.833761962890625,-0.6767624616622925,-0.16799353063106537,-0.5140502452850342
1772536705121811000,2.84381103515625,-0.6866774559020996,-0.17791832983493805,-0.5638329982757568
1772536705131859000,2.85385888671875,-0.6589558124542236,-0.194956973195076,-0.5720568299293518
1772536705141908000,2.863907958984375,-0.6102069020271301,-0.21926070749759674,-0.5369651913642883
1772536705151956700,2.873956787109375,-0.5401465892791748,-0.24411146342754364,-0.46474504470825195
1772536705162005000,2.8840048828125,-0.4596536159515381,-0.2571825385093689,-0.3695889711380005
1772536705172053800,2.8940537109375,-0.3686451315879822,-0.2702306807041168,-0.2620563805103302
1772536705182103000,2.90410302734375,-0.2764638066291809,-0.28445011377334595,-0.1522981971502304
1772536705192150800,2.91415087890625,-0.19544219970703125,-0.261654257774353,-0.03681740164756775
1772536705202199800,2.92419970703125,-0.12939368188381195,-0.19144372642040253,0.06599179655313492
1772536705212248800,2.934248779296875,-0.08045835793018341,-0.11543577909469604,0.1420583426952362
1772536705222296800,2.944296875,-0.04598001018166542,-0.041558895260095596,0.17487886548042297
1772536705232345900,2.954345947265625,-0.03355822712182999,0.03917669877409935,0.17863446474075317
1772536705242395000,2.964394775390625,-0.04833530634641647,0.10805775970220566,0.16077716648578644
1772536705252444000,2.97444384765625,-0.08968114852905273,0.1352289319038391,0.10666066408157349
1772536705262492000,2.984491943359375,-0.14060264825820923,0.11250470578670502,0.021648570895195007
1772536705272541000,2.994541015625,-0.1759478598833084,0.07716775685548782,-0.07756456732749939
1772536705282590000,3.00458984375,-0.21164780855178833,0.04397997632622719,-0.17687223851680756
1772536705292638000,3.014637939453125,-0.24576476216316223,-0.0027355989441275597,-0.25870877504348755
1772536705302687000,3.02468701171875,-0.2736682891845703,-0.07468196004629135,-0.3145725727081299
1772536705312735700,3.03473583984375,-0.28571590781211853,-0.14464639127254486,-0.3284846842288971
1772536705322784000,3.044783935546875,-0.2970399260520935,-0.2011789083480835,-0.30875492095947266
1772536705332832800,3.054832763671875,-0.29786258935928345,-0.24275138974189758,-0.2637176513671875
1772536705342881800,3.0648818359375,-0.28190305829048157,-0.2817499339580536,-0.19713623821735382
1772536705352929800,3.0749296875,-0.2498718798160553,-0.2947235107421875,-0.12585780024528503
1772536705362978800,3.084978759765625,-0.22103971242904663,-0.294979453086853,-0.05161152780056
1772536705373027800,3.09502783203125,-0.206536665558815,-0.27051112055778503,0.007964183576405048
1772536705383076900,3.105076904296875,-0.20481014251708984,-0.2299003154039383,0.04976809024810791
1772536705393124900,3.115124755859375,-0.2124882936477661,-0.17998148500919342,0.06820275634527206
1772536705403173600,3.125173583984375,-0.21281133592128754,-0.13626275956630707,0.07027975469827652
1772536705413222700,3.13522265625,-0.209880530834198,-0.07629317045211792,0.06420321762561798
1772536705423270700,3.145270751953125,-0.19991977512836456,-0.010892595164477825,0.058394066989421844
1772536705433319700,3.155319580078125,-0.1750626266002655,0.04321671277284622,0.05571040138602257
1772536705443368700,3.16536865234375,-0.13913019001483917,0.08980391919612885,0.05806995928287506
1772536705453417500,3.17541748046875,-0.09829061478376389,0.1239435151219368,0.07888495922088623
1772536705463465700,3.1854658203125,-0.05741056054830551,0.14732447266578674,0.1078428402543068
1772536705473514500,3.195514404296875,-0.005804892163723707,0.15984265506267548,0.14705203473567963
1772536705483563800,3.205563720703125,0.051412589848041534,0.16197159886360168,0.18880747258663177
1772536705493611500,3.215611572265625,0.10019610822200775,0.15440954267978668,0.23068355023860931
1772536705503660800,3.225660888671875,0.13187973201274872,0.13173486292362213,0.2645206153392792
1772536705513709600,3.23570947265625,0.15161775052547455,0.080675408244133,0.28353503346443176
1772536705523757800,3.2457578125,0.16665689647197723,0.018906844779849052,0.28532227873802185
1772536705533806600,3.255806640625,0.17991118133068085,-0.03468181565403938,0.27815014123916626
1772536705543855600,3.265855712890625,0.18626680970191956,-0.08037393540143967,0.26561781764030457
1772536705553904600,3.275904541015625,0.1946730762720108,-0.10835470259189606,0.25147485733032227
1772536705563952600,3.28595263671875,0.20117545127868652,-0.11789281666278839,0.2369515597820282
1772536705574001700,3.296001708984375,0.20305165648460388,-0.10860130935907364,0.22860229015350342
1772536705584050700,3.30605078125,0.20666316151618958,-0.0778908059000969,0.22902892529964447
1772536705594098700,3.3160986328125,0.22964997589588165,-0.0023584954906255007,0.24287736415863037
1772536705604147700,3.326147705078125,0.27814480662345886,0.10113220661878586,0.2567593455314636
1772536705614196500,3.336196533203125,0.33814528584480286,0.16954882442951202,0.25720489025115967
1772536705624245800,3.346245849609375,0.3755752146244049,0.17995351552963257,0.21853899955749512
1772536705634293500,3.35629345703125,0.39139705896377563,0.13956668972969055,0.1571829617023468
1772536705644342800,3.3663427734375,0.3874284029006958,0.08662064373493195,0.0881519615650177
1772536705654391600,3.3763916015625,0.36030784249305725,0.03582191467285156,0.020386232063174248
1772536705664439600,3.386439453125,0.311832994222641,-0.019727366045117378,-0.0383220873773098
1772536705674488600,3.396488525390625,0.24997201561927795,-0.08310633897781372,-0.07740078121423721
1772536705684537600,3.40653759765625,0.1845591962337494,-0.1218998059630394,-0.1031612753868103
1772536705694585600,3.416585693359375,0.13010181486606598,-0.12289449572563171,-0.10955925285816193
1772536705704634600,3.426634521484375,0.10272291302680969,-0.11774580925703049,-0.1007670909166336
1772536705714683600,3.43668359375,0.11647681146860123,-0.09953591227531433,-0.06497420370578766
1772536705724732700,3.446732666015625,0.1502121388912201,-0.051662661135196686,-0.010981544852256775
1772536705734780700,3.45678076171875,0.20801392197608948,0.0002836266648955643,0.05168769508600235
1772536705744829700,3.46682958984375,0.27999329566955566,0.04609399288892746,0.11724193394184113
1772536705754878500,3.47687841796875,0.34492436051368713,0.08489571511745453,0.18707720935344696
1772536705764926700,3.4869267578125,0.38095906376838684,0.12089712917804718,0.25408419966697693
1772536705774975500,3.4969755859375,0.39858946204185486,0.15724287927150726,0.3101317584514618
1772536705785024800,3.507024658203125,0.403251588344574,0.1805809587240219,0.340709924697876
1772536705795073500,3.517073486328125,0.39013633131980896,0.16354632377624512,0.34581440687179565
1772536705805121500,3.52712158203125,0.34727486968040466,0.09673187136650085,0.32999467849731445
1772536705815170600,3.537170654296875,0.2998248040676117,0.008767658844590187,0.301258385181427
1772536705825219600,3.547219482421875,0.2601522207260132,-0.05585101619362831,0.26780614256858826
1772536705835267600,3.557267578125,0.2215648740530014,-0.0839763954281807,0.22959856688976288
1772536705845316600,3.567316650390625,0.19402380287647247,-0.08491009473800659,0.1833551824092865
1772536705855365600,3.57736572265625,0.17318056523799896,-0.055510662496089935,0.1360824704170227
1772536705865414700,3.58741455078125,0.16697753965854645,-0.017001086845993996,0.08284401893615723
1772536705875462700,3.597462646484375,0.1682734340429306,-0.0027079021092504263,0.02484116703271866
1772536705885511700,3.60751171875,0.17098745703697205,-0.012438027188181877,-0.03205966576933861
1772536705895560700,3.617560791015625,0.1671154946088791,-0.03879746422171593,-0.07731103152036667
1772536705905608700,3.627608642578125,0.1618935614824295,-0.07167631387710571,-0.10150159150362015
1772536705915657500,3.637657470703125,0.1517343968153,-0.1059836894273758,-0.10561218112707138
1772536705925706800,3.647706787109375,0.14608557522296906,-0.12828047573566437,-0.0913538783788681
1772536705935755800,3.657755859375,0.1333055943250656,-0.12510491907596588,-0.06903792172670364
1772536705945803500,3.667803466796875,0.12256666272878647,-0.09878143668174744,-0.047212254256010056
1772536705955852500,3.6778525390625,0.11266902089118958,-0.06314781308174133,-0.039199866354465485
1772536705965901600,3.687901611328125,0.10467448085546494,-0.01255067903548479,-0.048112668097019196
1772536705975949600,3.697949462890625,0.10401641577482224,0.039974845945835114,-0.055033955723047256
1772536705985998600,3.70799853515625,0.10822048038244247,0.09352435916662216,-0.0596417598426342
1772536705996047600,3.718047607421875,0.11926327645778656,0.14601446688175201,-0.05341368913650513
1772536706006096600,3.7280966796875,0.13452105224132538,0.181806281208992,-0.05837276205420494
1772536706016144600,3.73814453125,0.1397685557603836,0.18973290920257568,-0.06477925926446915
1772536706026193700,3.748193603515625,0.1389259248971939,0.17894072830677032,-0.07885513454675674
1772536706036242700,3.75824267578125,0.1323292851448059,0.14735163748264313,-0.0886656865477562
1772536706046290700,3.768290771484375,0.12226705998182297,0.09942618757486343,-0.0985737144947052
1772536706056339700,3.778339599609375,0.11308740824460983,0.04923732206225395,-0.10250453650951385
1772536706066388500,3.788388427734375,0.09916919469833374,-0.011837750673294067,-0.10947615653276443
1772536706076437800,3.798437744140625,0.07943303883075714,-0.07745537906885147,-0.12206998467445374
1772536706086485500,3.808485595703125,0.04914970323443413,-0.13764654099941254,-0.13466407358646393
1772536706096534800,3.81853466796875,0.022546853870153427,-0.17523093521595,-0.14401070773601532
1772536706106583600,3.82858349609375,-0.0028072381392121315,-0.18401724100112915,-0.1461460292339325
1772536706116632600,3.838632568359375,-0.021756960079073906,-0.16678045690059662,-0.1361226886510849
1772536706126680600,3.8486806640625,-0.03489832952618599,-0.12114613503217697,-0.1214129775762558
1772536706136729600,3.8587294921875,-0.0343736857175827,-0.057371146976947784,-0.10252051800489426
1772536706146778600,3.868778564453125,-0.025559155270457268,0.011769574135541916,-0.09011337906122208
1772536706156826600,3.87882666015625,-0.014817029237747192,0.05976559594273567,-0.09426764398813248
1772536706166875600,3.888875732421875,-0.004001133143901825,0.07555787265300751,-0.10481030493974686
1772536706176924700,3.898924560546875,-0.007396130822598934,0.06571296602487564,-0.1129571795463562
1772536706186973700,3.9089736328125,-0.01907116360962391,0.0442846417427063,-0.10070663690567017
1772536706197021700,3.919021728515625,-0.02461107075214386,0.03729597106575966,-0.05403953418135643
1772536706207070500,3.929070556640625,-0.02972567081451416,0.05977065488696098,0.009049154818058014
1772536706217119700,3.93911962890625,-0.03978070244193077,0.08702331781387329,0.0789901539683342
1772536706227167500,3.94916748046875,-0.04176022857427597,0.09781577438116074,0.11476386338472366
1772536706237216800,3.959216796875,-0.0478530079126358,0.07535067945718765,0.11212733387947083
1772536706247265500,3.969265625,-0.07239031046628952,0.035522572696208954,0.08003225177526474
1772536706257314600,3.979314453125,-0.11493244767189026,0.003210440743714571,0.028251877054572105
1772536706267362600,3.989362548828125,-0.16939061880111694,-0.0001560612436151132,-0.026463298127055168
1772536706277411600,3.99941162109375,-0.22222641110420227,0.028493959456682205,-0.06491002440452576
1772536706287460600,4.009460693359375,-0.2645682692527771,0.08959619700908661,-0.08840975910425186
1772536706297508600,4.019508544921875,-0.2854847311973572,0.17065642774105072,-0.09291262924671173
1772536706307557600,4.0295576171875,-0.28855642676353455,0.25498276948928833,-0.07623165100812912
1772536706317606700,4.039606689453125,-0.26884371042251587,0.36208152770996094,-0.05813014879822731
1772536706327655700,4.04965576171875,-0.2370881736278534,0.4049072861671448,-0.07428168505430222
1772536706337703700,4.05970361328125,-0.21781834959983826,0.337240606546402,-0.14356622099876404
1772536706347752400,4.06975244140625,-0.22772423923015594,0.1811673939228058,-0.2488716095685959
1772536706357801700,4.0798017578125,-0.2559646666049957,0.0010303769959136844,-0.3697815239429474
1772536706367850500,4.0898505859375,-0.3025694489479065,-0.15255305171012878,-0.47266101837158203
1772536706377898800,4.099898681640625,-0.37675392627716064,-0.2979182302951813,-0.5541015267372131
1772536706387947500,4.109947509765625,-0.4385043978691101,-0.3665103614330292,-0.5946532487869263
1772536706397996500,4.11999658203125,-0.4905249774456024,-0.3310104012489319,-0.5832200050354004
1772536706408044500,4.13004443359375,-0.502328634262085,-0.15342125296592712,-0.5044748783111572
1772536706418093600,4.140093505859375,-0.4445979595184326,0.13523505628108978,-0.37355467677116394
1772536706428142600,4.150142578125,-0.33851945400238037,0.4536372721195221,-0.22891201078891754
1772536706438191600,4.160191650390625,-0.22079655528068542,0.6906178593635559,-0.09138264507055283
1772536706448239600,4.170239501953125,-0.11854662001132965,0.7747601866722107,-0.0037230991292744875
1772536706458288400,4.180288330078125,-0.03792288154363632,0.7053261995315552,0.028790103271603584
1772536706468337400,4.19033740234375,0.018496718257665634,0.5477115511894226,0.03586585447192192
1772536706478386700,4.20038671875,0.040757015347480774,0.35517486929893494,0.05107623338699341
1772536706488434400,4.210434326171875,0.02449042908847332,0.1313212662935257,0.0984426811337471
1772536706498483700,4.220483642578125,-0.026546388864517212,-0.09351556748151779,0.16910140216350555
1772536706508532500,4.230532470703125,-0.08990219235420227,-0.27009379863739014,0.25779959559440613
1772536706518581500,4.24058154296875,-0.1341215819120407,-0.3947499692440033,0.34226518869400024
1772536706528629500,4.25062939453125,-0.1589374542236328,-0.443229615688324,0.3954187035560608
1772536706538678500,4.260678466796875,-0.16382195055484772,-0.4400191903114319,0.42081326246261597
1772536706548727600,4.2707275390625,-0.16778074204921722,-0.4011780619621277,0.39972981810569763
1772536706558775600,4.280775634765625,-0.16803188621997833,-0.32800769805908203,0.34966158866882324
1772536706568824600,4.290824462890625,-0.1715046465396881,-0.2328106164932251,0.2609027028083801
1772536706578873600,4.30087353515625,-0.1722298264503479,-0.12684503197669983,0.14147989451885223
1772536706588922600,4.310922607421875,-0.18268752098083496,-0.01720188930630684,0.00675217853859067
1772536706598970600,4.320970703125,-0.19305387139320374,0.0748864933848381,-0.11422457545995712
1772536706609019400,4.331019287109375,-0.21622523665428162,0.13778316974639893,-0.21415570378303528
1772536706619068700,4.341068603515625,-0.2298041731119156,0.15675446391105652,-0.26849350333213806
1772536706629117400,4.351117431640625,-0.22456759214401245,0.15922534465789795,-0.2705633044242859
1772536706639165700,4.361165771484375,-0.20763175189495087,0.15206995606422424,-0.22636257112026215
1772536706649214500,4.37121435546875,-0.1830505132675171,0.14058054983615875,-0.15789642930030823
1772536706659263500,4.381263427734375,-0.15208619832992554,0.11133983731269836,-0.08043332397937775
1772536706669312500,4.3913125,-0.11746271699666977,0.07182598859071732,-0.01053120382130146
1772536706679360500,4.401360595703125,-0.092621810734272,0.04434296488761902,0.04988926276564598
1772536706689409500,4.411409423828125,-0.08164479583501816,0.03604695200920105,0.0908297747373581
1772536706699458600,4.42145849609375,-0.07850519567728043,0.041183389723300934,0.11603685468435287
1772536706709506600,4.431506591796875,-0.07557971030473709,0.07097404450178146,0.126329705119133
1772536706719555600,4.4415556640625,-0.07940773665904999,0.09873216599225998,0.11618386209011078
1772536706729604600,4.4516044921875,-0.09327668696641922,0.10901569575071335,0.09097384661436081
1772536706739653600,4.461653564453125,-0.1048092395067215,0.1075190007686615,0.0653822049498558
1772536706749701400,4.471701416015625,-0.10864978283643723,0.11720332503318787,0.03328898176550865
1772536706759750700,4.481750732421875,-0.10436342656612396,0.13093218207359314,0.001919073867611587
1772536706769799400,4.49179931640625,-0.09221114963293076,0.1314277946949005,-0.02948598749935627
1772536706779848400,4.501848388671875,-0.06678009778261185,0.13288268446922302,-0.04811932519078255
1772536706789896400,4.511896484375,-0.03850531578063965,0.11974477767944336,-0.0576648935675621
1772536706799945500,4.521945556640625,-0.007486944552510977,0.09533131122589111,-0.057376205921173096
1772536706809994500,4.531994384765625,0.017231184989213943,0.05728645995259285,-0.03835271671414375
1772536706820043500,4.54204345703125,0.022420087829232216,0.0039007319137454033,-0.007533550262451172
1772536706830091500,4.552091552734375,0.016559002920985222,-0.06417366117238998,0.035355858504772186
1772536706840140500,4.562140625,-0.008800149895250797,-0.14161492884159088,0.06867333501577377
1772536706850189600,4.572189453125,-0.02870834432542324,-0.19732345640659332,0.09473050385713577
1772536706860238600,4.582238525390625,-0.026019083335995674,-0.20318055152893066,0.12216958403587341
1772536706870286600,4.59228662109375,-0.004344680812209845,-0.16286668181419373,0.15155890583992004
1772536706880335600,4.602335693359375,0.030009031295776367,-0.104996457695961,0.18100573122501373
1772536706890384400,4.61238427734375,0.07261721044778824,-0.06078718230128288,0.20093762874603271
1772536706900432600,4.6224326171875,0.1253102570772171,-0.04674912989139557,0.20366869866847992
1772536706910481400,4.6324814453125,0.17741499841213226,-0.06107906624674797,0.20650683343410492
1772536706920530400,4.642530517578125,0.21850676834583282,-0.08175212144851685,0.22294174134731293
1772536706930579500,4.652579345703125,0.24406273663043976,-0.11331270635128021,0.23616406321525574
1772536706940627500,4.66262744140625,0.24608007073402405,-0.16176173090934753,0.24483531713485718
1772536706950676500,4.672676513671875,0.232874795794487,-0.1916237622499466,0.24644626677036285
1772536706960725500,4.6827255859375,0.2164422869682312,-0.196973517537117,0.24164031445980072
1772536706970774500,4.6927744140625,0.18638505041599274,-0.18308699131011963,0.23104679584503174
1772536706980822500,4.702822509765625,0.16339771449565887,-0.1568647176027298,0.22258061170578003
1772536706990871600,4.71287158203125,0.1584506332874298,-0.1222366988658905,0.2256043702363968
1772536707000920600,4.722920654296875,0.17115098237991333,-0.05905213579535484,0.23405830562114716
1772536707010969600,4.732969482421875,0.2030218243598938,0.035047199577093124,0.24114631116390228
1772536707021017600,4.743017578125,0.24856534600257874,0.08356759697198868,0.24110715091228485
1772536707031066600,4.753066650390625,0.2778521180152893,0.03983316570520401,0.2210780531167984
1772536707041115600,4.76311572265625,0.2761719226837158,-0.04087552800774574,0.19798019528388977
1772536707051164700,4.77316455078125,0.266590416431427,-0.10008957982063293,0.181509867310524
1772536707061212400,4.78321240234375,0.25118348002433777,-0.14835378527641296,0.16548269987106323
1772536707071261700,4.79326171875,0.22626402974128723,-0.2055044174194336,0.13767237961292267
1772536707081310500,4.803310546875,0.19554206728935242,-0.24878264963626862,0.10936510562896729
1772536707091359500,4.813359375,0.15891721844673157,-0.24569179117679596,0.07757867872714996
1772536707101407500,4.823407470703125,0.13363689184188843,-0.1891361027956009,0.0540136992931366
1772536707111456500,4.83345654296875,0.12207291275262833,-0.09096319228410721,0.04921894520521164
1772536707121505500,4.843505615234375,0.12074239552021027,0.01702425628900528,0.0497228167951107
1772536707131554600,4.853554443359375,0.1296679824590683,0.10087335109710693,0.038660045713186264
1772536707141602600,4.8636025390625,0.14500166475772858,0.15530143678188324,0.02003735676407814
1772536707151651600,4.873651611328125,0.16757169365882874,0.18368540704250336,0.0071766865439713
1772536707161700600,4.88370068359375,0.19525018334388733,0.1857064813375473,0.014042316004633904
1772536707171749600,4.89374951171875,0.21679702401161194,0.16134175658226013,0.03544187918305397
1772536707181797600,4.903797607421875,0.24043656885623932,0.12765783071517944,0.06878252327442169
1772536707191846700,4.9138466796875,0.25415903329849243,0.09403541684150696,0.10692724585533142
1772536707201895400,4.9238955078125,0.2488710731267929,0.0766923800110817,0.13100221753120422
1772536707211944700,4.93394482421875,0.22463257610797882,0.06899265199899673,0.13986682891845703
1772536707221992400,4.943992431640625,0.19648616015911102,0.06698888540267944,0.12988156080245972
1772536707232041500,4.95404150390625,0.15978220105171204,0.06882939487695694,0.09813615679740906
1772536707242090500,4.964090576171875,0.12287852168083191,0.06106708198785782,0.043410059064626694
1772536707252139500,4.974139404296875,0.10186218470335007,0.04294693470001221,-0.03350815922021866
1772536707262187500,4.9841875,0.09133470803499222,0.026443058624863625,-0.10134419798851013
1772536707272236500,4.994236572265625,0.08740068227052689,0.0029672940727323294,-0.15797924995422363
1772536707282285600,5.00428564453125,0.09024707227945328,-0.020169982686638832,-0.18910335004329681
1772536707292334600,5.01433447265625,0.10780129581689835,-0.030466295778751373,-0.18600529432296753
1772536707302382600,5.024382568359375,0.12452355027198792,-0.029525401070713997,-0.16526591777801514
1772536707312431600,5.034431640625,0.1406085193157196,-0.040108803659677505,-0.1409296840429306
1772536707322480400,5.04448046875,0.16538682579994202,-0.0434553325176239,-0.11494975537061691
1772536707332529700,5.05452978515625,0.17816387116909027,-0.03208177164196968,-0.08915943652391434
1772536707342577400,5.064577392578125,0.17294195294380188,-0.00478330347687006,-0.07751289755105972
1772536707352626700,5.074626708984375,0.1462927609682083,-0.0024919197894632816,-0.09303487092256546
1772536707362675500,5.084675537109375,0.11628959327936172,-0.010494719259440899,-0.12659496068954468
1772536707372724500,5.094724365234375,0.08780495077371597,-0.009362875483930111,-0.1587720662355423
1772536707382772500,5.1047724609375,0.07154156267642975,0.014302772469818592,-0.18175195157527924
1772536707392821500,5.114821533203125,0.0696089044213295,0.06514358520507812,-0.18922744691371918
1772536707402871000,5.12487109375,0.07143689692020416,0.10294236242771149,-0.1933971643447876
1772536707412920000,5.134920166015625,0.07540793716907501,0.11409514397382736,-0.20766690373420715
1772536707422968000,5.144968017578125,0.08260513097047806,0.11991974711418152,-0.2236219048500061
1772536707433017000,5.15501708984375,0.07885167002677917,0.10974700003862381,-0.2336423099040985
1772536707443066000,5.165066162109375,0.06466900557279587,0.06300319731235504,-0.24017025530338287
1772536707453115000,5.175114990234375,0.04982348158955574,-0.008489358238875866,-0.23222924768924713
1772536707463163100,5.1851630859375,0.03225434198975563,-0.07712461054325104,-0.21354609727859497
1772536707473212000,5.1952119140625,0.008076302707195282,-0.14260615408420563,-0.1863861232995987
1772536707483261200,5.20526123046875,-0.017735587432980537,-0.18880906701087952,-0.15084676444530487
1772536707493310000,5.21531005859375,-0.040056340396404266,-0.18937258422374725,-0.11135049164295197
1772536707503358200,5.225358154296875,-0.050938814878463745,-0.16084906458854675,-0.0711711123585701
1772536707513407000,5.235406982421875,-0.05309517681598663,-0.11427117884159088,-0.029578931629657745
1772536707523456000,5.2454560546875,-0.058216169476509094,-0.05658391863107681,0.0041460092179477215
1772536707533505000,5.255505126953125,-0.0646655485033989,-0.02353328838944435,0.028848160058259964
1772536707543553000,5.265552978515625,-0.08158513903617859,-0.025176459923386574,0.04701331630349159
1772536707553602000,5.27560205078125,-0.09637713432312012,-0.05536844953894615,0.06951889395713806
1772536707563651000,5.285651123046875,-0.10632430762052536,-0.09884002804756165,0.10456209629774094
1772536707573699800,5.295699951171875,-0.12069925665855408,-0.13749368488788605,0.16095346212387085
1772536707583748000,5.305748046875,-0.13929636776447296,-0.170129656791687,0.22310525178909302
1772536707593796900,5.315796875,-0.155636727809906,-0.1803053319454193,0.28288042545318604
1772536707603846100,5.32584619140625,-0.1718979924917221,-0.17369988560676575,0.32714882493019104
1772536707613894000,5.335893798828125,-0.19690454006195068,-0.1765422821044922,0.3372637927532196
1772536707623943200,5.345943115234375,-0.22225011885166168,-0.1877770870923996,0.31922778487205505
1772536707633992000,5.355991943359375,-0.2542855441570282,-0.18003182113170624,0.27950114011764526
1772536707644041000,5.366041015625,-0.29416370391845703,-0.15465348958969116,0.22476360201835632
1772536707654089000,5.3760888671875,-0.33377504348754883,-0.11426079273223877,0.16621480882167816
1772536707664138000,5.386137939453125,-0.36187776923179626,-0.05115719512104988,0.11350845545530319
1772536707674187000,5.39618701171875,-0.3760519325733185,-0.0009941579774022102,0.07750624418258667
1772536707684236000,5.406236083984375,-0.38143816590309143,0.034213896840810776,0.0703015923500061
1772536707694284000,5.416283935546875,-0.3762761652469635,0.048830121755599976,0.09768687933683395
1772536707704333000,5.4263330078125,-0.36130601167678833,0.06486048549413681,0.15556642413139343
1772536707714381800,5.4363818359375,-0.3417261838912964,0.07343773543834686,0.2277817577123642
1772536707724431000,5.44643115234375,-0.3174211084842682,0.06081541255116463,0.29950547218322754
1772536707734480100,5.456480224609375,-0.3064667284488678,0.003492203075438738,0.3500288426876068
1772536707744528100,5.466528076171875,-0.32143449783325195,-0.09565861523151398,0.3700723350048065
1772536707754577200,5.4765771484375,-0.34754571318626404,-0.19701692461967468,0.3642788827419281
1772536707764626000,5.4866259765625,-0.37067341804504395,-0.28695666790008545,0.3301424980163574
1772536707774675200,5.49667529296875,-0.3916553854942322,-0.3614777624607086,0.2780665159225464
1772536707784723000,5.506722900390625,-0.4244442284107208,-0.4534468352794647,0.21047495305538177
1772536707794772200,5.516772216796875,-0.4535656273365021,-0.5079516172409058,0.13621670007705688
1772536707804821000,5.526821044921875,-0.48609453439712524,-0.504115641117096,0.06373263895511627
1772536707814870000,5.5368701171875,-0.5175491571426392,-0.43239375948905945,0.0031140341889113188
1772536707824918000,5.54691796875,-0.5546184778213501,-0.3107331097126007,-0.040777791291475296
1772536707834967000,5.556967041015625,-0.5858211517333984,-0.1432061642408371,-0.06451986730098724
1772536707845016000,5.56701611328125,-0.5952463150024414,0.024528512731194496,-0.07997366040945053
1772536707855065000,5.577065185546875,-0.5772649049758911,0.1342984139919281,-0.0936918705701828
1772536707865113000,5.587113037109375,-0.5492333173751831,0.1543637365102768,-0.11418303102254868
1772536707875162000,5.597162109375,-0.5091410279273987,0.14563283324241638,-0.11265277862548828
1772536707885211000,5.6072109375,-0.46240732073783875,0.1439550369977951,-0.0895402655005455
1772536707895260200,5.61726025390625,-0.4163873493671417,0.12948955595493317,-0.04952973499894142
1772536707905308000,5.627307861328125,-0.37614884972572327,0.10459858179092407,-0.017371533438563347
1772536707915357200,5.637357177734375,-0.34687700867652893,0.08454976975917816,0.011113637126982212
1772536707925406000,5.647406005859375,-0.31999850273132324,0.062374163419008255,0.021709023043513298
1772536707935455000,5.657455078125,-0.30149221420288086,0.0424095094203949,0.017296165227890015
1772536707945504000,5.66750390625,-0.29162704944610596,0.03483814001083374,-0.0016460998449474573
1772536707955552000,5.677552001953125,-0.2874107360839844,0.03810104727745056,-0.04119723662734032
1772536707965601000,5.68760107421875,-0.3002716898918152,0.026130404323339462,-0.08755088597536087
1772536707975650000,5.697650146484375,-0.3362392783164978,0.006843258626759052,-0.15030215680599213
1772536707985698800,5.70769873046875,-0.390847384929657,-0.01122256089001894,-0.21787746250629425
1772536707995747000,5.7177470703125,-0.4537842571735382,-0.018248511478304863,-0.27131858468055725
1772536708005795800,5.7277958984375,-0.49569442868232727,0.006451507564634085,-0.2965579032897949
1772536708015845000,5.73784521484375,-0.5114515423774719,0.04168672487139702,-0.3056052029132843
1772536708025894000,5.747893798828125,-0.5061436295509338,0.08050230145454407,-0.3051370084285736
1772536708035942100,5.757942138671875,-0.4805263876914978,0.13595277070999146,-0.302120178937912
1772536708045991000,5.767990966796875,-0.442889541387558,0.1997559815645218,-0.3030083477497101
1772536708056040000,5.7780400390625,-0.4181772768497467,0.25354278087615967,-0.3193524181842804
1772536708066089200,5.788089111328125,-0.3898678719997406,0.27225521206855774,-0.34262579679489136
1772536708076138000,5.798137939453125,-0.3525141179561615,0.26558640599250793,-0.3654901087284088
1772536708086186000,5.80818603515625,-0.33327728509902954,0.2178415209054947,-0.38602012395858765
1772536708096235000,5.818235107421875,-0.33639052510261536,0.11739480495452881,-0.3786120116710663
1772536708106284000,5.828283935546875,-0.36055073142051697,-0.017122261226177216,-0.35043925046920776
1772536708116333000,5.8383330078125,-0.3880723714828491,-0.13811978697776794,-0.2988881766796112
1772536708126381000,5.848381103515625,-0.40655285120010376,-0.20696276426315308,-0.2284528762102127
1772536708136430000,5.85843017578125,-0.4207983613014221,-0.2258131504058838,-0.15822133421897888
1772536708146479000,5.86847900390625,-0.41893282532691956,-0.24280518293380737,-0.09630735963582993
1772536708156527900,5.87852783203125,-0.4069483280181885,-0.2314116507768631,-0.046305179595947266
1772536708166576000,5.888576171875,-0.3856121301651001,-0.197907492518425,-0.015678562223911285
1772536708176625000,5.898625,-0.34984534978866577,-0.16011670231819153,-0.002614957746118307
1772536708186674200,5.908674072265625,-0.30642572045326233,-0.09811511635780334,-0.0012239888310432434
1772536708196723000,5.918722900390625,-0.26752492785453796,-0.029200762510299683,-0.020053869113326073
1772536708206772000,5.92877197265625,-0.24087785184383392,0.008167915046215057,-0.04770014435052872
1772536708216820000,5.938820068359375,-0.22550582885742188,0.02533837966620922,-0.06941769272089005
1772536708226869000,5.948868896484375,-0.20743441581726074,0.05794479325413704,-0.07572884857654572
1772536708236918000,5.95891796875,-0.18561939895153046,0.10358897596597672,-0.06655798852443695
1772536708246967000,5.968967041015625,-0.16373993456363678,0.1562817543745041,-0.057738132774829865
1772536708257016000,5.97901611328125,-0.1424916386604309,0.21875125169754028,-0.03232118859887123
1772536708267064000,5.98906396484375,-0.12764371931552887,0.2609937787055969,-0.003436543047428131
1772536708277113000,5.999113037109375,-0.117828369140625,0.26998114585876465,0.02496686950325966
1772536708287162000,6.009162109375,-0.10391707718372345,0.24825161695480347,0.05642092972993851
1772536708297211000,6.0192109375,-0.07660529762506485,0.2082272320985794,0.10029704123735428
1772536708307259100,6.029259033203125,-0.03718411922454834,0.15298821032047272,0.1454213708639145
1772536708317308000,6.039307861328125,0.002585396869108081,0.09132405370473862,0.18706336617469788
1772536708327357000,6.04935693359375,0.03861716762185097,0.022529277950525284,0.22308315336704254
1772536708337406200,6.05940625,0.06868159025907516,-0.04524284601211548,0.24215884506702423
1772536708347454000,6.069453857421875,0.08851974457502365,-0.10738105326890945,0.2529614269733429
1772536708357503000,6.0795029296875,0.10280227661132812,-0.14145086705684662,0.2638894319534302
1772536708367552000,6.089552001953125,0.11027271300554276,-0.16043148934841156,0.2860671877861023
1772536708377601000,6.09960107421875,0.10672830790281296,-0.1534271091222763,0.31029021739959717
1772536708387650000,6.109650146484375,0.09972499310970306,-0.0948101356625557,0.32762980461120605
1772536708397698000,6.119697998046875,0.1176145151257515,0.02058197371661663,0.331405907869339
1772536708407748000,6.129748046875,0.1421278417110443,0.1265033483505249,0.3156122863292694
1772536708417797000,6.139797119140625,0.16082030534744263,0.1337447464466095,0.26486656069755554
1772536708427846100,6.14984619140625,0.15308968722820282,0.060141898691654205,0.193614199757576
1772536708437894100,6.15989404296875,0.1397877335548401,-0.012223909609019756,0.12799657881259918
1772536708447943200,6.169943115234375,0.12652279436588287,-0.06343729794025421,0.07823222130537033
1772536708457992200,6.1799921875,0.09450812637805939,-0.09903337061405182,0.031095068901777267
1772536708468041200,6.190041259765625,0.03332946076989174,-0.1402473896741867,-0.014167483896017075
1772536708478090000,6.200090087890625,-0.044746432453393936,-0.16361981630325317,-0.05690935626626015
1772536708488138200,6.21013818359375,-0.11887844651937485,-0.16000084578990936,-0.08839830756187439
1772536708498187000,6.22018701171875,-0.15475282073020935,-0.12725329399108887,-0.07826337963342667
1772536708508236300,6.230236328125,-0.15386520326137543,-0.0677497535943985,-0.03748852014541626
1772536708518285000,6.24028515625,-0.13543745875358582,-0.019330289214849472,0.02479216456413269
1772536708528333300,6.250333251953125,-0.12326068431138992,0.005627259146422148,0.09305297583341599
1772536708538382000,6.260382080078125,-0.1040654182434082,0.01477521751075983,0.16975441575050354
1772536708548431000,6.27043115234375,-0.08107541501522064,0.023554062470793724,0.23491983115673065
1772536708558480100,6.280480224609375,-0.07130187749862671,0.016753146424889565,0.2773951292037964
1772536708568529200,6.290529052734375,-0.081863172352314,-0.02117479406297207,0.2775871455669403
1772536708578577200,6.3005771484375,-0.10884339362382889,-0.09484368562698364,0.2462521195411682
1772536708588626200,6.310626220703125,-0.1507575511932373,-0.16419799625873566,0.1944834589958191
1772536708598675000,6.320675048828125,-0.20065747201442719,-0.20201115310192108,0.13812537491321564
1772536708608724200,6.33072412109375,-0.24105149507522583,-0.18364226818084717,0.08124691992998123
1772536708618772000,6.34077197265625,-0.27588218450546265,-0.132623553276062,0.028419923037290573
1772536708628821200,6.3508212890625,-0.3016203045845032,-0.09508071094751358,-0.030729416757822037
1772536708638870300,6.360870361328125,-0.3087218999862671,-0.09679339081048965,-0.09434247761964798
1772536708648919000,6.3709189453125,-0.3134828209877014,-0.11912905424833298,-0.15589718520641327
1772536708658968300,6.38096826171875,-0.32004618644714355,-0.149492546916008,-0.19918793439865112
1772536708669016000,6.39101611328125,-0.319451242685318,-0.18272560834884644,-0.20729166269302368
1772536708679065300,6.4010654296875,-0.3173784911632538,-0.22183439135551453,-0.19555804133415222
1772536708689114000,6.411114013671875,-0.31747037172317505,-0.25507038831710815,-0.16606087982654572
1772536708699163100,6.4211630859375,-0.31926026940345764,-0.2664276957511902,-0.13297376036643982
1772536708709211100,6.431211181640625,-0.32091331481933594,-0.25722140073776245,-0.0987233817577362
1772536708719260200,6.44126025390625,-0.3267863690853119,-0.2406909018754959,-0.08855436742305756
1772536708729309200,6.45130908203125,-0.3283903896808624,-0.2080450803041458,-0.09912152588367462
1772536708739358200,6.461358154296875,-0.3261232376098633,-0.18008267879486084,-0.1273462325334549
1772536708749407000,6.471406982421875,-0.33295345306396484,-0.16948862373828888,-0.16839194297790527
1772536708759455200,6.481455322265625,-0.33984172344207764,-0.18355438113212585,-0.21713604032993317
1772536708769504000,6.49150390625,-0.35652217268943787,-0.19490396976470947,-0.2676871120929718
1772536708779553300,6.50155322265625,-0.385469913482666,-0.1850268393754959,-0.3079974949359894
1772536708789602000,6.51160205078125,-0.4202372431755066,-0.1713099628686905,-0.3365103602409363
1772536708799650300,6.521650390625,-0.4513258934020996,-0.15398503839969635,-0.3436726927757263
1772536708809699000,6.531698974609375,-0.4706452786922455,-0.14206233620643616,-0.3315180242061615
1772536708819748000,6.541748046875,-0.4860000014305115,-0.12909673154354095,-0.30110976099967957
1772536708829797000,6.551797119140625,-0.49765264987945557,-0.13611257076263428,-0.27172231674194336
1772536708839846100,6.56184619140625,-0.5080299377441406,-0.16339638829231262,-0.24523106217384338
1772536708849894100,6.57189404296875,-0.5170681476593018,-0.19745661318302155,-0.2138398438692093
1772536708859943200,6.581943115234375,-0.5316588282585144,-0.22362536191940308,-0.1828174889087677
1772536708869992000,6.591991943359375,-0.5456023216247559,-0.26060014963150024,-0.15950123965740204
1772536708880041200,6.602041259765625,-0.5620535016059875,-0.29417622089385986,-0.13216522336006165
1772536708890089000,6.6120888671875,-0.5791059732437134,-0.30008232593536377,-0.10713497549295425
1772536708900138200,6.62213818359375,-0.5977587699890137,-0.2902222275733948,-0.07865779101848602
1772536708910187300,6.632187255859375,-0.6240721344947815,-0.2780201733112335,-0.06161489337682724
1772536708920236000,6.642236083984375,-0.6502973437309265,-0.2716000974178314,-0.05470878630876541
1772536708930285300,6.652285400390625,-0.6818102598190308,-0.26211124658584595,-0.04650651663541794
1772536708940333000,6.6623330078125,-0.711911678314209,-0.25428953766822815,-0.02467924728989601
1772536708950382300,6.67238232421875,-0.7309341430664062,-0.23811297118663788,0.013197827152907848
1772536708960431000,6.68243115234375,-0.7440482974052429,-0.21523641049861908,0.0675572082400322
1772536708970480000,6.692480224609375,-0.7517009377479553,-0.19769896566867828,0.12505991756916046
1772536708980529200,6.702529052734375,-0.7595412731170654,-0.20413395762443542,0.16423527896404266
1772536708990577200,6.7125771484375,-0.7752933502197266,-0.24428537487983704,0.19054065644741058
1772536709000626200,6.722626220703125,-0.7996056079864502,-0.28960224986076355,0.1989099085330963
1772536709010675200,6.73267529296875,-0.830487072467804,-0.33067086338996887,0.1936355084180832
1772536709020724000,6.742723876953125,-0.8604995608329773,-0.33367836475372314,0.17224234342575073
1772536709030773200,6.752773193359375,-0.8897472023963928,-0.3214254379272461,0.13451546430587769
1772536709040821000,6.762821044921875,-0.9163239598274231,-0.2896485924720764,0.08365601301193237
1772536709050870300,6.772870361328125,-0.9357080459594727,-0.2532391846179962,0.02594371698796749
1772536709060919000,6.7829189453125,-0.9465817213058472,-0.20418375730514526,-0.022174810990691185
1772536709070968000,6.792968017578125,-0.9537602663040161,-0.15760481357574463,-0.053585462272167206
1772536709081016000,6.80301611328125,-0.9536287188529968,-0.12875398993492126,-0.05367734283208847
1772536709091065000,6.813065185546875,-0.9543117880821228,-0.12412354350090027,-0.0177566260099411
1772536709101114000,6.823114013671875,-0.9519610404968262,-0.14856204390525818,0.05426323786377907
1772536709111163100,6.8331630859375,-0.9417014718055725,-0.19962389767169952,0.14754311740398407
1772536709121212200,6.843212158203125,-0.9211117625236511,-0.2296781986951828,0.24567368626594543
1772536709131260200,6.85326025390625,-0.8900015354156494,-0.2828649878501892,0.32911983132362366
1772536709141309000,6.863308837890625,-0.8851263523101807,-0.375348836183548,0.349453866481781
1772536709151358200,6.873358154296875,-0.8906121850013733,-0.47552525997161865,0.28914764523506165
1772536709161407200,6.8834072265625,-0.8953712582588196,-0.5432278513908386,0.17887760698795319
1772536709171456000,6.8934560546875,-0.9245102405548096,-0.588245689868927,0.03876816853880882
1772536709181504000,6.90350390625,-1.0027318000793457,-0.6224750280380249,-0.10177989304065704
1772536709191553000,6.913552978515625,-1.0871833562850952,-0.6129786968231201,-0.2142835259437561
1772536709201602300,6.923602294921875,-1.1545591354370117,-0.5159608125686646,-0.26017752289772034
1772536709211651000,6.933651123046875,-1.1764987707138062,-0.35485342144966125,-0.24631629884243011
1772536709221700000,6.9437001953125,-1.1556835174560547,-0.1589728742837906,-0.17390760779380798
1772536709231748000,6.953748046875,-1.1013984680175781,0.01703064888715744,-0.08839350938796997
1772536709241797000,6.963797119140625,-1.0322524309158325,0.11933278292417526,-0.012403406202793121
1772536709251846100,6.97384619140625,-0.9664289355278015,0.1362803429365158,0.04451713338494301
1772536709261895200,6.983895263671875,-0.9185892343521118,0.07253092527389526,0.09954017400741577
1772536709271943200,6.993943115234375,-0.8928404450416565,-0.05073241889476776,0.15291684865951538
1772536709281992200,7.0039921875,-0.8903765082359314,-0.22499556839466095,0.19663263857364655
1772536709292041000,7.014041015625,-0.9088646769523621,-0.40606334805488586,0.22614791989326477
1772536709302090200,7.02409033203125,-0.9140304327011108,-0.5414038896560669,0.23313604295253754
1772536709312139000,7.034138916015625,-0.9014030694961548,-0.5865449905395508,0.21890544891357422
1772536709322187300,7.044187255859375,-0.8884097337722778,-0.5418909788131714,0.17426447570323944
1772536709332236000,7.054236083984375,-0.8745759725570679,-0.44274386763572693,0.09598831087350845
1772536709342285000,7.06428515625,-0.8749232292175293,-0.3416476249694824,-0.0025534387677907944
1772536709352334000,7.074333984375,-0.8852983713150024,-0.23020310699939728,-0.1034528911113739
1772536709362383000,7.084383056640625,-0.9031953811645508,-0.15967994928359985,-0.2001461386680603
1772536709372431000,7.09443115234375,-0.9169689416885376,-0.13806812465190887,-0.2783235013484955
1772536709382480100,7.104480224609375,-0.9286258816719055,-0.14772048592567444,-0.3404049873352051
1772536709392529000,7.11452880859375,-0.9334880113601685,-0.1647825539112091,-0.3736012876033783
1772536709402578200,7.124578125,-0.9280109405517578,-0.19027140736579895,-0.37550225853919983
1772536709412626200,7.134626220703125,-0.9024480581283569,-0.2126547396183014,-0.3443989157676697
1772536709422674200,7.144674072265625,-0.8702880144119263,-0.21704070270061493,-0.27948009967803955
1772536709432723200,7.15472314453125,-0.8241702914237976,-0.2123279720544815,-0.20136506855487823
1772536709442772200,7.164772216796875,-0.7739273905754089,-0.1873973160982132,-0.12406202405691147
1772536709452821200,7.1748212890625,-0.7183434963226318,-0.15399888157844543,-0.05348213389515877
1772536709462870000,7.1848701171875,-0.6659447550773621,-0.13885055482387543,-0.009101619012653828
1772536709472918300,7.194918212890625,-0.6281321048736572,-0.14587996900081635,0.019874637946486473
1772536709482967000,7.204967041015625,-0.6060488820075989,-0.1698249876499176,0.022585736587643623
1772536709493016300,7.215016357421875,-0.607611358165741,-0.21255940198898315,0.012968795374035835
1772536709503065000,7.225065185546875,-0.6191971898078918,-0.2725045084953308,-0.01318344660103321
1772536709513114000,7.235114013671875,-0.6396803855895996,-0.3399386703968048,-0.03732633218169212
1772536709523162000,7.245162109375,-0.6691573262214661,-0.3903046250343323,-0.059367984533309937
1772536709533211100,7.255211181640625,-0.6959798336029053,-0.40140414237976074,-0.07055938988924026
1772536709543260200,7.26526025390625,-0.7175629138946533,-0.366634726524353,-0.07238684594631195
1772536709553309200,7.27530908203125,-0.7268831729888916,-0.3239498436450958,-0.07044859975576401
1772536709563357200,7.285357177734375,-0.7278112769126892,-0.27441132068634033,-0.08387519419193268
1772536709573406200,7.29540625,-0.7197262048721313,-0.2209307849407196,-0.10343557596206665
1772536709583455000,7.305455078125,-0.7041081190109253,-0.16649390757083893,-0.1366473287343979
1772536709593504300,7.315504150390625,-0.6790807843208313,-0.11876393109560013,-0.15149365365505219
1772536709603553000,7.325552978515625,-0.6529024243354797,-0.08533993363380432,-0.15810175240039825
1772536709613601300,7.335601318359375,-0.626052975654602,-0.06778224557638168,-0.15057778358459473
1772536709623650000,7.345650146484375,-0.5970317125320435,-0.06262210011482239,-0.135611891746521
1772536709633699000,7.355698974609375,-0.5783533453941345,-0.07234477251768112,-0.10982982814311981
1772536709643748400,7.365748291015625,-0.5604223012924194,-0.07470007240772247,-0.07877470552921295
1772536709653797000,7.375797119140625,-0.5381262898445129,-0.07501965016126633,-0.04282975569367409
1772536709663845000,7.38584521484375,-0.5161770582199097,-0.1011631041765213,-0.0036389431916177273
1772536709673894100,7.39589404296875,-0.49176308512687683,-0.1474376618862152,0.03727147355675697
1772536709683943200,7.405943115234375,-0.4644662141799927,-0.19237370789051056,0.08154066652059555
1772536709693992200,7.4159921875,-0.43777069449424744,-0.22648534178733826,0.12347506731748581
1772536709704041200,7.426041259765625,-0.409900963306427,-0.23579014837741852,0.17189772427082062
1772536709714089200,7.436089111328125,-0.3870049715042114,-0.22404853999614716,0.2160540074110031
1772536709724138200,7.44613818359375,-0.36864328384399414,-0.20286816358566284,0.2642577588558197
1772536709734187000,7.45618701171875,-0.35598739981651306,-0.1730298399925232,0.2869787812232971
1772536709744236300,7.466236328125,-0.3438551127910614,-0.13284273445606232,0.29547879099845886
1772536709754285000,7.47628515625,-0.33163970708847046,-0.08351700007915497,0.29527905583381653
1772536709764333300,7.486333251953125,-0.32097163796424866,-0.029438583180308342,0.2948686480522156
1772536709774382000,7.496382080078125,-0.3136245012283325,0.00717508839443326,0.2955392301082611
1772536709784431000,7.50643115234375,-0.3117150068283081,0.022120214998722076,0.2941722273826599
1772536709794480000,7.516480224609375,-0.3114737272262573,-0.008201204240322113,0.28144311904907227
1772536709804529200,7.526529052734375,-0.3162549138069153,-0.06240984797477722,0.266324907541275
1772536709814577200,7.5365771484375,-0.323003888130188,-0.07600581645965576,0.256765216588974
1772536709824626200,7.546626220703125,-0.32215967774391174,-0.04141614958643913,0.2557137906551361
1772536709834675200,7.55667529296875,-0.3208818733692169,-0.011627893894910812,0.24695545434951782
1772536709844724200,7.56672412109375,-0.3235815167427063,-0.014684404246509075,0.20462797582149506
1772536709854773200,7.576773193359375,-0.32532989978790283,-0.05338865518569946,0.126179501414299
1772536709864821200,7.5868212890625,-0.30837300419807434,-0.10568009316921234,0.04001026600599289
1772536709874870000,7.5968701171875,-0.29421883821487427,-0.16639989614486694,-0.04164385050535202
1772536709884919000,7.6069189453125,-0.28634387254714966,-0.23550227284431458,-0.1031133383512497
1772536709894968300,7.61696826171875,-0.29256340861320496,-0.2926715612411499,-0.14529381692409515
1772536709905017000,7.62701708984375,-0.3157140016555786,-0.3420571982860565,-0.18003953993320465
1772536709915065000,7.637065185546875,-0.3593778610229492,-0.37665459513664246,-0.19824810326099396
1772536709925114000,7.647114013671875,-0.411543607711792,-0.3683735132217407,-0.19236917793750763
1772536709935163100,7.6571630859375,-0.45855772495269775,-0.3320445120334625,-0.15823224186897278
1772536709945212200,7.667212158203125,-0.4853975772857666,-0.27495381236076355,-0.09655237197875977
1772536709955261200,7.67726123046875,-0.4825834333896637,-0.18750225007534027,-0.021931663155555725
1772536709965309200,7.68730908203125,-0.47224849462509155,-0.06740167737007141,0.05299743637442589
1772536709975358200,7.697358154296875,-0.4301801323890686,0.021024592220783234,0.12453500181436539
1772536709985407200,7.7074072265625,-0.37077194452285767,0.08843345940113068,0.1802842915058136
1772536709995456300,7.717456298828125,-0.3135257065296173,0.11393828690052032,0.22133877873420715
1772536710005505000,7.727505126953125,-0.2785341441631317,0.10601538419723511,0.24529817700386047
1772536710015553300,7.73755322265625,-0.2782936692237854,0.045153629034757614,0.24761086702346802
1772536710025602000,7.74760205078125,-0.3069596588611603,-0.02881753258407116,0.2125716507434845
1772536710035651300,7.7576513671875,-0.3549692630767822,-0.0950266495347023,0.15934304893016815
1772536710045700000,7.7677001953125,-0.417294979095459,-0.1531520038843155,0.11005726456642151
1772536710055749000,7.7777490234375,-0.49274659156799316,-0.21634162962436676,0.06144045665860176
1772536710065797000,7.787797119140625,-0.5558898448944092,-0.2719162106513977,0.02894456684589386
1772536710075846100,7.79784619140625,-0.5984498262405396,-0.31294751167297363,0.015075888484716415
1772536710085895200,7.807895263671875,-0.6220443844795227,-0.33510661125183105,0.0057319216430187225
1772536710095944200,7.817944091796875,-0.6262534856796265,-0.34424498677253723,0.00857484620064497
1772536710105993200,7.8279931640625,-0.6189497709274292,-0.3609326183795929,0.005286374595016241
1772536710116042200,7.838042236328125,-0.6105115413665771,-0.3886265754699707,-0.007507983595132828
1772536710126090000,7.848090087890625,-0.6123526096343994,-0.40822798013687134,-0.0306955948472023
1772536710136139300,7.85813916015625,-0.6227504014968872,-0.41328665614128113,-0.0534464456140995
1772536710146188300,7.868188232421875,-0.635252058506012,-0.3869168162345886,-0.07574216276407242
1772536710156237000,7.878237060546875,-0.6504818797111511,-0.34728285670280457,-0.09526952356100082
1772536710166286300,7.888286376953125,-0.6668110489845276,-0.3113003671169281,-0.10831288993358612
1772536710176334000,7.898333984375,-0.6819040179252625,-0.2823464870452881,-0.12602344155311584
1772536710186383400,7.90838330078125,-0.6737725734710693,-0.23998622596263885,-0.1354188174009323
1772536710196432100,7.91843212890625,-0.6502839922904968,-0.17106841504573822,-0.13568486273288727
1772536710206481200,7.928481201171875,-0.6178797483444214,-0.12466603517532349,-0.13896667957305908
1772536710216530200,7.9385302734375,-0.5933922529220581,-0.11361977458000183,-0.1489465981721878
1772536710226578200,7.948578125,-0.5744422674179077,-0.12218450009822845,-0.15631742775440216
1772536710236627200,7.958627197265625,-0.563520610332489,-0.14397980272769928,-0.16283312439918518
1772536710246676200,7.96867626953125,-0.5585439801216125,-0.1659700572490692,-0.17193607985973358
1772536710256725000,7.97872509765625,-0.5560895800590515,-0.18563884496688843,-0.1829996407032013
1772536710266774300,7.988774169921875,-0.5653682947158813,-0.18975688517093658,-0.1817985624074936
1772536710276822000,7.998822021484375,-0.5752987265586853,-0.19174599647521973,-0.1862279325723648
1772536710286871300,8.008871337890625,-0.5858959555625916,-0.21235832571983337,-0.18313467502593994
1772536710296920000,8.018920166015626,-0.6026856303215027,-0.23388493061065674,-0.19114093482494354
1772536710306969000,8.028968994140625,-0.6162048578262329,-0.25548768043518066,-0.19565178453922272
1772536710317018400,8.039018310546876,-0.6160927414894104,-0.257254421710968,-0.20952099561691284
1772536710327066000,8.049066162109375,-0.6086377501487732,-0.2489674836397171,-0.20752044022083282
1772536710337115100,8.059115234375,-0.6080713272094727,-0.23859739303588867,-0.2048197239637375
1772536710347164200,8.0691640625,-0.6091229915618896,-0.24526754021644592,-0.2069377303123474
1772536710357213200,8.079213134765626,-0.604016900062561,-0.26201269030570984,-0.20697927474975586
1772536710367262200,8.08926220703125,-0.5943325757980347,-0.283253014087677,-0.19718657433986664
1772536710377310200,8.099310302734375,-0.5897245407104492,-0.27550747990608215,-0.1711251437664032
1772536710387359200,8.109359130859374,-0.5830466747283936,-0.25269216299057007,-0.1386127471923828
1772536710397408300,8.119408203125,-0.5725429058074951,-0.2428789585828781,-0.0995955690741539
1772536710407457000,8.12945703125,-0.5603584051132202,-0.23495924472808838,-0.06077147275209427
1772536710417509600,8.139509521484374,-0.5585530400276184,-0.2621203064918518,-0.03508608043193817
1772536710427558400,8.149558349609375,-0.5748816728591919,-0.31174030900001526,-0.013063870370388031
1772536710437606700,8.159606689453126,-0.595879077911377,-0.38951846957206726,-0.005101018585264683
1772536710447655400,8.169655517578125,-0.6227400302886963,-0.4585617184638977,-0.0025475798174738884
1772536710457704400,8.179704345703126,-0.6408287286758423,-0.5223034024238586,-0.010575146414339542
1772536710467753500,8.18975341796875,-0.6601598262786865,-0.5280928611755371,-0.0073511237278580666
1772536710477802500,8.199802490234376,-0.6674065589904785,-0.4796246588230133,-0.011887818574905396
1772536710487850500,8.2098505859375,-0.6512858867645264,-0.40055033564567566,-0.0013076120521873236
1772536710497899500,8.2198994140625,-0.631293535232544,-0.2875005006790161,0.021094366908073425
1772536710507948300,8.2299482421875,-0.6025668382644653,-0.15791559219360352,0.05462942272424698
1772536710517997600,8.23999755859375,-0.5811212062835693,-0.04265105724334717,0.09702455252408981
1772536710528046600,8.250046630859375,-0.5681007504463196,0.02869636006653309,0.14082582294940948
1772536710538094600,8.260094482421875,-0.5537045001983643,0.07598504424095154,0.18148377537727356
1772536710548143400,8.270143310546874,-0.5347185134887695,0.07326915115118027,0.2228115051984787
1772536710558192400,8.2801923828125,-0.513533353805542,0.03652498871088028,0.2625296115875244
1772536710568241700,8.29024169921875,-0.49433648586273193,-0.03560726344585419,0.28616997599601746
1772536710578290400,8.30029052734375,-0.4817346930503845,-0.18680743873119354,0.2846005856990814
1772536710588338700,8.310338623046874,-0.48879364132881165,-0.33019015192985535,0.25660809874534607
1772536710598387500,8.320387451171875,-0.49360278248786926,-0.4254700839519501,0.2270592451095581
1772536710608436500,8.3304365234375,-0.48593875765800476,-0.4600120782852173,0.20599204301834106
1772536710618485500,8.340485595703125,-0.4729515612125397,-0.42422905564308167,0.19573675096035004
1772536710628534500,8.350534423828124,-0.4529653489589691,-0.36786511540412903,0.17074058949947357
1772536710638583300,8.360583251953125,-0.4368276596069336,-0.325623095035553,0.11557240039110184
1772536710648631600,8.370631591796876,-0.44222959876060486,-0.3016248345375061,0.02100355178117752
1772536710658680300,8.380680419921875,-0.4683815836906433,-0.2712187170982361,-0.09150754660367966
1772536710668729600,8.3907294921875,-0.5002502799034119,-0.2286960333585739,-0.19710108637809753
1772536710678778400,8.4007783203125,-0.525859534740448,-0.1558268815279007,-0.24682842195034027
1772536710688827400,8.410827392578126,-0.5445669293403625,-0.09141140431165695,-0.24230824410915375
1772536710698875400,8.42087548828125,-0.5464302897453308,-0.06584745645523071,-0.1953631043434143
1772536710708924400,8.43092431640625,-0.5311099290847778,-0.0746433436870575,-0.11509276926517487
1772536710718973400,8.440973388671875,-0.49566808342933655,-0.09895134717226028,-0.009372728876769543
1772536710729022500,8.4510224609375,-0.45007580518722534,-0.09691110253334045,0.11350472271442413
1772536710739071500,8.461071533203125,-0.4092407822608948,-0.08102507889270782,0.2317029982805252
1772536710749120500,8.47112060546875,-0.38464462757110596,-0.07634536921977997,0.33642035722732544
1772536710759168500,8.48116845703125,-0.3871879279613495,-0.11317715793848038,0.40852463245391846
1772536710769217500,8.491217529296875,-0.40490248799324036,-0.1703384518623352,0.4340031147003174
1772536710779266600,8.5012666015625,-0.4308246374130249,-0.21181903779506683,0.4141303300857544
1772536710789315600,8.511315673828125,-0.47044020891189575,-0.19333083927631378,0.3605336844921112
1772536710799364600,8.521364501953125,-0.5177429914474487,-0.12979581952095032,0.2712964713573456
1772536710809412400,8.531412353515625,-0.5686141848564148,-0.06065535917878151,0.14874127507209778
1772536710819461600,8.541461669921874,-0.611262857913971,0.020908210426568985,0.00968325324356556
1772536710829510400,8.551510498046875,-0.641757607460022,0.11638227105140686,-0.12023905664682388
1772536710839559700,8.5615595703125,-0.6595683097839355,0.1675328016281128,-0.23175573348999023
1772536710849608400,8.5716083984375,-0.6677019000053406,0.14637824892997742,-0.33197689056396484
1772536710859657500,8.581657470703124,-0.6675266623497009,0.0849367305636406,-0.3965905010700226
1772536710869705500,8.59170556640625,-0.6606658101081848,0.004141747951507568,-0.41615381836891174
1772536710879754500,8.60175439453125,-0.6357409954071045,-0.03614788502454758,-0.3878670334815979
1772536710889803500,8.611803466796875,-0.5972263813018799,-0.03067801706492901,-0.32857656478881836
1772536710899852500,8.6218525390625,-0.5553982257843018,-0.008778844028711319,-0.26411235332489014
1772536710909901600,8.631901611328125,-0.5133517384529114,0.013760553672909737,-0.2119988054037094
1772536710919949600,8.641949462890626,-0.47670531272888184,0.009444634430110455,-0.17067161202430725
1772536710929998300,8.651998291015625,-0.44751811027526855,-0.02046452835202217,-0.1451295018196106
1772536710940047600,8.662047607421876,-0.42907679080963135,-0.06099517643451691,-0.13566994667053223
1772536710950096600,8.6720966796875,-0.41124454140663147,-0.12048060446977615,-0.13478924334049225
1772536710960145400,8.6821455078125,-0.3923978805541992,-0.15753184258937836,-0.12825384736061096
1772536710970193400,8.692193359375,-0.37136608362197876,-0.15656563639640808,-0.11074941605329514
1772536710980242400,8.702242431640625,-0.3539319634437561,-0.12856251001358032,-0.0737418681383133
1772536710990291700,8.712291748046875,-0.3341015577316284,-0.10935445129871368,-0.043602872639894485
1772536711000340500,8.722340576171876,-0.3145699203014374,-0.0941225066781044,-0.03900918364524841
1772536711010389500,8.732389404296875,-0.2947314977645874,-0.07527424395084381,-0.054904792457818985
1772536711020438500,8.7424384765625,-0.2721923589706421,-0.05651600658893585,-0.08049856871366501
1772536711030486500,8.752486572265624,-0.24808090925216675,-0.051421646028757095,-0.11444854736328125
1772536711040535600,8.76253564453125,-0.2247398942708969,-0.04598613455891609,-0.14100612699985504
1772536711050584600,8.77258447265625,-0.20711749792099,-0.04797285050153732,-0.1530257612466812
1772536711060633300,8.78263330078125,-0.18865114450454712,-0.03749624267220497,-0.1367005854845047
1772536711070682600,8.7926826171875,-0.1714433878660202,-0.011562380008399487,-0.10159347206354141
1772536711080730400,8.80273046875,-0.15134185552597046,0.011257181875407696,-0.06234273687005043
1772536711090779600,8.812779541015624,-0.12027607858181,0.0566084198653698,-0.02003815583884716
1772536711100828400,8.822828369140625,-0.08203068375587463,0.11401178687810898,0.023320235311985016
1772536711110877400,8.83287744140625,-0.03723045811057091,0.1692683845758438,0.0632048025727272
1772536711120926700,8.8429267578125,0.011740545742213726,0.196733295917511,0.10702924430370331
1772536711130975500,8.8529755859375,0.05908515676856041,0.17064045369625092,0.15575949847698212
1772536711141023500,8.8630234375,0.09758168458938599,0.11315345019102097,0.20933112502098083
1772536711151072500,8.873072509765626,0.11525202542543411,0.04351791739463806,0.26065075397491455
1772536711161121500,8.88312158203125,0.12646979093551636,-0.015487080439925194,0.30753064155578613
1772536711171170600,8.893170654296876,0.12607404589653015,-0.05602598562836647,0.3395674228668213
1772536711181219600,8.903219482421875,0.11090920865535736,-0.095489501953125,0.3396395742893219
1772536711191267600,8.913267578125,0.08430316299200058,-0.11845314502716064,0.30764704942703247
1772536711201316600,8.923316650390625,0.06827253103256226,-0.12650680541992188,0.25660356879234314
1772536711211365400,8.933365478515626,0.06438804417848587,-0.07394266873598099,0.20365005731582642
1772536711221414700,8.94341455078125,0.09604796767234802,0.05784226208925247,0.1714891940355301
1772536711231463400,8.95346337890625,0.15407052636146545,0.19575218856334686,0.14614149928092957
1772536711241512400,8.963512451171875,0.18280230462551117,0.2004939466714859,0.0922367200255394
1772536711251560400,8.973560546875,0.17894098162651062,0.06509458273649216,0.009359147399663925
1772536711261609500,8.983609375,0.16095106303691864,-0.0876970961689949,-0.061520885676145554
1772536711271658500,8.993658447265625,0.13799834251403809,-0.16529974341392517,-0.08614873141050339
1772536711281707500,9.00370751953125,0.10711313784122467,-0.18851211667060852,-0.0716472864151001
1772536711291756300,9.01375634765625,0.06532946974039078,-0.21003739535808563,-0.0455901212990284
1772536711301804500,9.023804443359374,0.05303259193897247,-0.1942182183265686,-0.007186274044215679
1772536711311853300,9.033853271484375,0.06337843835353851,-0.11611488461494446,0.049427736550569534
1772536711321902600,9.043902587890624,0.09907598048448563,0.0030429279431700706,0.11218778789043427
1772536711331951600,9.05395166015625,0.14883342385292053,0.12293577939271927,0.15496109426021576
1772536711342000400,9.06400048828125,0.21947190165519714,0.19782227277755737,0.1693192571401596
1772536711352049700,9.074049560546875,0.2809387147426605,0.19881562888622284,0.16340704262256622
1772536711362097400,9.084097412109376,0.3112417757511139,0.150594562292099,0.14398406445980072
1772536711372146700,9.094146728515625,0.3094550669193268,0.1065773069858551,0.1218113899230957
1772536711382195500,9.104195556640626,0.29379114508628845,0.058031611144542694,0.10064192116260529
1772536711392244500,9.114244384765625,0.27058330178260803,0.049790993332862854,0.09319145977497101
1772536711402293500,9.12429345703125,0.24452745914459229,0.09612653404474258,0.10120917856693268
1772536711412339500,9.13433935546875,0.22117578983306885,0.14911144971847534,0.10854831337928772
1772536711422387500,9.144387451171875,0.21083633601665497,0.16226640343666077,0.11271482706069946
1772536711432436500,9.1544365234375,0.20950742065906525,0.14013074338436127,0.10128054767847061
1772536711442485200,9.1644853515625,0.2137429118156433,0.10996751487255096,0.0877668708562851
1772536711452534500,9.174534423828124,0.2314998060464859,0.07873129844665527,0.0727785974740982
1772536711462583300,9.184583251953125,0.2640686631202698,0.07672487199306488,0.060685183852910995
1772536711472631600,9.194631591796876,0.2931724786758423,0.12489506602287292,0.08237077295780182
1772536711482680300,9.204680419921875,0.3042312562465668,0.11197260767221451,0.08333484083414078
1772536711492729300,9.214729248046876,0.30533382296562195,0.021752966567873955,0.059672918170690536
1772536711502778400,9.2247783203125,0.2953927516937256,-0.08785342425107956,0.040105607360601425
1772536711512827400,9.234827392578126,0.2575188875198364,-0.22503577172756195,0.009967146441340446
1772536711522876200,9.244876220703125,0.2286992222070694,-0.3262489438056946,-0.019423233345150948
1772536711532924400,9.25492431640625,0.20248493552207947,-0.35896721482276917,-0.04061347246170044
1772536711542973200,9.26497314453125,0.1608716994524002,-0.3484083116054535,-0.0717756524682045
1772536711553022500,9.2750224609375,0.1249118447303772,-0.30969101190567017,-0.09978464990854263
1772536711563071500,9.285071533203125,0.12533794343471527,-0.20637448132038116,-0.12229475378990173
1772536711573120300,9.295120361328125,0.15553952753543854,-0.03969947621226311,-0.12983869016170502
