time,seconds_elapsed,z,y,x
1772462342943204000,0.0822041015625,-0.01314823538661003,-0.054785231992905026,-0.024715229463763533
1772462342953252000,0.092252197265625,0.014085223975777625,-0.06586920549320056,-0.029826544595509766
1772462342963301000,0.102301025390625,-0.03469546580612659,-0.054725007971958256,-0.04324968793336302
1772462342973349000,0.11234912109375,-0.07973053931891917,-0.045923112960276194,-0.046345169730670745
1772462342983397000,0.122397216796875,-0.04276595953702926,-0.036294356936705297,-0.05100274974554777
1772462342993445000,0.132445068359375,0.012148118433356284,-0.02759626935936976,-0.05183452439457178
1772462343003494100,0.142494140625,-0.020175357544422148,-0.027939986496814524,-0.05906655800733715
1772462343013542100,0.152542236328125,-0.08346972584724426,-0.026750041493307796,-0.04880527623388916
1772462343023590100,0.162590087890625,-0.07837211044728755,-0.04518971608523279,-0.03699373281113803
1772462343033639200,0.17263916015625,0.001236263796687126,-0.05445351125393062,-0.04264412325564772
1772462343043687200,0.182687255859375,0.024433599510788915,-0.0539775049397489,-0.036423970099166036
1772462343053735000,0.19273486328125,-0.02659574598073959,-0.04773572447334882,-0.03173146490138024
1772462343063783200,0.202783203125,-0.08509586574435234,-0.0457516151511576,-0.04687544068247079
1772462343073832000,0.21283203125,-0.04903320323824882,-0.04713197729338426,-0.057514250531420105
1772462343083880200,0.222880126953125,0.014268763849139212,-0.0482457152555231,-0.0534717702075839
1772462343093928200,0.23292822265625,0.0009568623334169388,-0.03138677051640115,-0.04131174214072525
1772462343103977200,0.242977294921875,-0.052012511309981344,-0.03780965230390429,-0.042588374480418856
1772462343114025200,0.253025146484375,-0.07310790630877018,-0.0380205094424542,-0.04607837202064693
1772462343124073000,0.263072998046875,-0.025371757143735883,-0.034793158593517726,-0.03781392662022263
1772462343134121200,0.273121337890625,0.01009352399110794,-0.03980931082167662,-0.03704064069278538
1772462343144170000,0.283169921875,-0.025371172621846197,-0.04547130037243478,-0.03899546455498785
1772462343154218200,0.29321826171875,-0.05335165095925331,-0.056182536136778066,-0.042363954607397315
1772462343164266000,0.303265869140625,-0.03494213404357433,-0.048660310238669624,-0.04749718931000679
1772462343174314000,0.31331396484375,-0.007104279047250747,-0.04346585600127,-0.04361044753715396
1772462343184363000,0.323363037109375,-0.01039630632996559,-0.048695002526137975,-0.04166088437195867
1772462343194411000,0.333410888671875,-0.03448854505717754,-0.04455600302526727,-0.05006802617870271
1772462343204459300,0.343459228515625,-0.04212298545837402,-0.03651397277044598,-0.03862951731942594
1772462343214508000,0.353508056640625,-0.023567922592163084,-0.032882219538814386,-0.040157640202157195
1772462343224556300,0.363556396484375,-0.00920037454366684,-0.03973415865965653,-0.05818856959640979
1772462343234604000,0.37360400390625,-0.024315526089072226,-0.04745205326033756,-0.05688526844549924
1772462343244653300,0.3836533203125,-0.03688566932678222,-0.04721112064393237,-0.03772814803291112
1772462343254701000,0.393701171875,-0.027151626297831535,-0.03448787377031985,-0.03628353871516883
1772462343264749000,0.4037490234375,-0.028196751436591148,-0.042016346746124325,-0.04141779633108526
1772462343274797300,0.41379736328125,-0.032228783431649206,-0.04348679375802166,-0.039909656790457666
1772462343284846000,0.42384619140625,-0.03371931425035,-0.042539375106384975,-0.04042882182635367
1772462343294894300,0.433894287109375,-0.02383212648630142,-0.03197218288865406,-0.047671048039570445
1772462343304942000,0.443942138671875,-0.02187105554640293,-0.034233227722393345,-0.05657963656242936
1772462343314990000,0.453989990234375,-0.028142975422739983,-0.03203818819641601,-0.058673467036522924
1772462343325039000,0.4640390625,-0.02379939326047897,-0.034745752954948694,-0.06012826895471662
1772462343335087000,0.474087158203125,-0.025292846688628197,-0.04688148226418998,-0.041881322189606725
1772462343345135000,0.484135009765625,-0.026634908947348594,-0.04892190205061342,-0.034212504594773055
1772462343355184000,0.49418408203125,-0.034708909809589385,-0.04156929253179114,-0.0318648820227012
1772462343365231900,0.50423193359375,-0.02886369091272354,-0.043090592948091214,-0.023764468077570197
1772462343375280000,0.514280029296875,-0.02810381245613098,-0.037115701523260214,-0.027998963842168448
1772462343385328000,0.524328125,-0.030780922710895536,-0.03598318579541519,-0.04289663671199232
1772462343395377200,0.534377197265625,-0.02687339387834072,-0.02360348252931144,-0.04520031054448336
1772462343405425200,0.544425048828125,-0.03105097182393074,-0.021778148531983604,-0.053022528602741655
1772462343415473200,0.55447314453125,-0.0338888255983591,-0.033654359255358576,-0.036346959340199825
1772462343425522200,0.564522216796875,-0.042857729473710054,-0.03869024366387166,-0.04347794373128563
1772462343435570000,0.57456982421875,-0.025794366469979284,-0.03818421210418455,-0.04491422361209988
1772462343445618200,0.5846181640625,-0.02459200494289398,-0.03820485303341411,-0.025417532514221963
1772462343455666200,0.594666259765625,-0.026087211936712262,-0.03794624776300043,-0.037607517327927054
1772462343465715200,0.604715087890625,-0.03595744856595993,-0.03128588569150306,-0.03020787206329405
1772462343475763200,0.61476318359375,-0.031310499542951585,-0.03978770177806727,-0.05191829368788749
1772462343485811000,0.62481103515625,-0.02800795086622238,-0.02357231563949026,-0.044825851208902895
1772462343495860200,0.634860107421875,-0.022467852395772932,-0.027769621198857203,-0.03956972077898681
1772462343505908000,0.644907958984375,-0.0263514158308506,-0.03694334063103888,-0.049470827470533545
1772462343515956200,0.654956298828125,-0.030085341662168502,-0.034784418164636004,-0.04529219007901847
1772462343526004000,0.66500390625,-0.04609422717690467,-0.04004869080181234,-0.02587674752380699
1772462343536053200,0.67505322265625,-0.04608662839233875,-0.03585227115843445,-0.031749146688543256
1772462343546101000,0.68510107421875,-0.02109013430178165,-0.035473190446663645,-0.038218963757157325
1772462343556149000,0.69514892578125,-0.021080781951546668,-0.03214152527330443,-0.0434365522749722
1772462343566198000,0.705197998046875,-0.029597265884280202,-0.028764386123558503,-0.03882200768422335
1772462343576246000,0.71524609375,-0.03677577921152115,-0.028106662000343202,-0.037451340385526416
1772462343586294300,0.725294189453125,-0.051582887721061704,-0.033759495563688686,-0.0470435637909919
1772462343596342000,0.735342041015625,-0.02269756949841976,-0.02679590362876188,-0.0316974530339241
1772462343606391300,0.745391357421875,-0.015516133561730384,-0.025638413289864544,-0.028866723120026288
1772462343616439000,0.75543896484375,-0.026136311775445936,-0.033005982915800994,-0.0287270589210093
1772462343626487000,0.765487060546875,-0.04662964922785759,-0.035928638030006545,-0.03911916399989277
1772462343636536000,0.7755361328125,-0.03779343182146549,-0.03712629598251078,-0.038696079749614
1772462343646584000,0.785583984375,-0.016840075641870497,-0.03181336189801805,-0.04214274960476905
1772462343656632000,0.795632080078125,-0.018031331253051758,-0.03145444719144143,-0.044319545654579996
1772462343666680000,0.80568017578125,-0.030444238102436065,-0.029800400940678082,-0.03435019603241235
1772462343676729000,0.81572900390625,-0.042265608799457545,-0.030242610016535033,-0.037731472501158714
1772462343686777000,0.825777099609375,-0.028647417813539505,-0.03284130757311359,-0.033334881510026754
1772462343696824600,0.835824462890625,-0.017572481569647788,-0.03187574134343304,-0.029655900736339388
1772462343706872600,0.84587255859375,-0.015025135174393653,-0.030618137931195086,-0.02757003437299281
1772462343716921600,0.855921630859375,-0.03208148391544818,-0.023699759677750988,-0.030441607753932474
1772462343726969600,0.865969482421875,-0.04853577511012554,-0.02979240943046752,-0.031881723559647794
1772462343737017600,0.876017578125,-0.03880173208117485,-0.025261465169675645,-0.032954650020785625
1772462343747066600,0.886066650390625,-0.017545009040832518,-0.023882742428686467,-0.03700001642145216
1772462343757114600,0.896114501953125,-0.02741583019196987,-0.028630028287321328,-0.03936356721501797
1772462343767162600,0.90616259765625,-0.03862929812371731,-0.026775427096313795,-0.02769026321917772
1772462343777211600,0.916211669921875,-0.0345820685595274,-0.02536397112950217,-0.028031295209191738
1772462343787259600,0.926259765625,-0.017967033845186234,-0.03483991121153813,-0.025439817411266264
1772462343797307400,0.936307373046875,-0.02484510292112827,-0.027975153708318247,-0.02734736806564033
1772462343807355600,0.946355712890625,-0.0326209976196289,-0.032596644063084386,-0.03055843906663358
1772462343817404400,0.956404296875,-0.04473346021771431,-0.03295828044970985,-0.03265603240039199
1772462343827452700,0.96645263671875,-0.027072131320834157,-0.03261643560894299,-0.03249802882708609
1772462343837500700,0.976500732421875,-0.015841127732396126,-0.036190152210136876,-0.03113232996445149
1772462343847548700,0.986548583984375,-0.0342418768197298,-0.025734845701931044,-0.027483232872374353
1772462343857597700,0.99659765625,-0.029150106638669966,-0.029355223589600063,-0.027184432588890195
1772462343867645400,1.0066455078125,-0.01837444560229778,-0.02043854765840806,-0.029917328151501714
1772462343877693700,1.016693603515625,-0.01777063449025154,-0.020413682645210065,-0.034961971255205566
1772462343887742500,1.026742431640625,-0.02854337291717529,-0.01800598674924113,-0.03129208710342646
1772462343897790700,1.036790771484375,-0.0397667777210474,-0.02673413153812289,-0.03141918408181518
1772462343907838500,1.04683837890625,-0.0333271000623703,-0.02834790971057955,-0.03524546437170356
1772462343917886500,1.056886474609375,-0.031079028874635695,-0.02496140451086685,-0.01970226013995707
1772462343927935500,1.066935546875,-0.016260229927301407,-0.025768318713270125,-0.02178969740588218
1772462343937983500,1.0769833984375,-0.036758243554830546,-0.034251946122595106,-0.0236578293653205
1772462343948031700,1.08703173828125,-0.03570551963150501,-0.022649889865214934,-0.02223634519483894
1772462343958080500,1.09708056640625,-0.026872809356451033,-0.018084582110517656,-0.030463344661705194
1772462343968128800,1.107128662109375,-0.019684359157085416,-0.017639957315288484,-0.03847779735643416
1772462343978176500,1.117176513671875,-0.03269932355284691,-0.021838066592253742,-0.02518237205147743
1772462343988225800,1.127225830078125,-0.03942775502502918,-0.02337968371079769,-0.03049140171241015
1772462343998273500,1.1372734375,-0.030150808113813397,-0.030361646986054255,-0.02900350124221295
1772462344008321500,1.147321533203125,-0.027454993158578873,-0.029469849245483053,-0.02785707115344703
1772462344018369800,1.157369873046875,-0.030296938586235046,-0.030083446532604283,-0.03255136644951999
1772462344028418600,1.16741845703125,-0.04017535852193832,-0.020745028924848884,-0.020465645727887748
1772462344038466800,1.177466796875,-0.03044306905865669,-0.022926108424132688,-0.02145001712273806
1772462344048514600,1.1875146484375,-0.026547815185785292,-0.022834032526775263,-0.03340257645137608
1772462344058563600,1.1975634765625,-0.023702947148680684,-0.015354111400432883,-0.03631594314742833
1772462344068611600,1.207611572265625,-0.037915596896409984,-0.017646642784401773,-0.03439597140289843
1772462344078659600,1.21765966796875,-0.0328261648029089,-0.020098739511100572,-0.033242855845019216
1772462344088707600,1.22770751953125,-0.02998421937525272,-0.025679124326165766,-0.03326230946416035
1772462344098756600,1.237756591796875,-0.015917700099945066,-0.02027659856234677,-0.023035003025550393
1772462344108804600,1.2478046875,-0.018308979150652886,-0.02090368095212616,-0.022616375754680482
1772462344118852600,1.2578525390625,-0.020405074647068977,-0.03174363026320934,-0.02545360847460106
1772462344128901600,1.267901611328125,0.07700140661597252,-0.011502682969556189,-0.043579248681291934
1772462344138949600,1.27794970703125,0.1250245560288429,-0.012575212138472125,-0.044340113518573344
1772462344148997600,1.28799755859375,-0.2719587460488081,-0.03518590707103721,-0.0024630656452849504
1772462344159045600,1.298045654296875,-0.38253041383326053,-0.043241518326639194,0.0235960344417952
1772462344169094700,1.3080947265625,0.10738485444188117,-0.05343542938572354,-0.00419034609561786
1772462344179142700,1.318142578125,0.36669571584165095,-0.01688845852797385,-0.015428163017332554
1772462344189190700,1.328190673828125,0.0026227497190237045,-0.0063421675343764946,-0.037400852307304736
1772462344199239400,1.338239501953125,-0.34482758290469645,-0.012216219800082034,-0.06290096680475399
1772462344209287700,1.34828759765625,-0.16780337504744527,0.0022799961293814702,-0.06370419121272862
1772462344219335700,1.358335693359375,0.19162088848650455,0.000953738794568926,-0.04097600738033652
1772462344229383700,1.3683837890625,0.15060791009664534,-0.029984265041025353,-0.003611906886845827
1772462344239432400,1.378432373046875,-0.1571972253590822,-0.05923698723737616,0.0023592034120112656
1772462344249480700,1.388480712890625,-0.21749416541159153,-0.05499674671858083,-0.005503163993544876
1772462344259528700,1.39852880859375,0.019379238730669022,-0.019463674744265153,-0.017269699230790136
1772462344269577500,1.408577392578125,0.1565875690281391,0.00010507694282568991,-0.04461619051359594
1772462344279625700,1.418625732421875,-0.0032288989186286922,-0.017970961101632564,-0.04875588413421064
1772462344289673500,1.428673583984375,-0.17620529268980026,-0.02498617362594232,-0.04068981085009873
1772462344299721700,1.4387216796875,-0.09196049081683158,-0.017952187902503646,-0.01932685095630586
1772462344309770500,1.4487705078125,0.09074234719872475,-0.017202054521790706,-0.008665062090568243
1772462344319818500,1.458818603515625,0.10450199248194694,-0.03494209751095623,0.002859627214819193
1772462344329866800,1.46886669921875,-0.06892915931940079,-0.05255026231533847,-0.013745507160015404
1772462344339915500,1.47891552734375,-0.1796539718389511,-0.048282868928136304,-0.02580404761377722
1772462344349963800,1.4889638671875,-0.09809797065854071,-0.016700036983517928,-0.04293313279747963
1772462344360011500,1.499011474609375,0.03029284693300724,0.0007665456593967974,-0.05858995347153395
1772462344370059500,1.5090595703125,0.045099955442547794,-0.007283690734766424,-0.05592815038375556
1772462344380108500,1.519108642578125,-0.02029460000991821,-0.023187047215527855,-0.025477957464568317
1772462344390156500,1.529156494140625,-0.04110299476087093,-0.03477332594846375,-0.009280855901353061
1772462344400204500,1.53920458984375,-0.009385667982697486,-0.033577298264042474,-0.01841338937319815
1772462344410253600,1.549253662109375,-0.016276012018322943,-0.024456784023554064,-0.02130114670395851
1772462344420301600,1.559301513671875,-0.06610650311410426,-0.02026528258388862,-0.020738653982989488
1772462344430349600,1.569349609375,-0.06940203752815723,-0.031101131108589468,-0.037293702138401566
1772462344440397600,1.5793974609375,-0.014935118803381919,-0.03414613852740731,-0.0440461720732972
1772462344450446600,1.589446533203125,0.010053191980719566,-0.02168607263462618,-0.03461388846989721
1772462344460494600,1.59949462890625,-0.027362054178118704,-0.02224614963622298,-0.014294884671084583
1772462344470542600,1.60954248046875,-0.06522270601689815,-0.03845070385353174,-0.020175649805366992
1772462344480591600,1.619591552734375,-0.05146364525556564,-0.03659050860537681,-0.026203604857996103
1772462344490639600,1.6296396484375,-0.02184007588624954,-0.012558393434411846,-0.019439882876724005
1772462344500687600,1.6396875,-0.021392332118749618,-0.002591112471744418,-0.028021358337067065
1772462344510736600,1.649736572265625,-0.040697921091318125,-0.010027226422401144,-0.0397229020467028
1772462344520784600,1.65978466796875,-0.05820552073121071,-0.028010905441711656,-0.04466876095104962
1772462344530832600,1.66983251953125,-0.038459786775708195,-0.03196795880468562,-0.023004808816686272
1772462344540880600,1.679880615234375,-0.016015315255522727,-0.02684902662206441,-0.0005574512196704745
1772462344550929700,1.6899296875,-0.01945581109821796,-0.03279535867269151,-0.014914112547971307
1772462344560977700,1.699977783203125,-0.0444417837947607,-0.034454090231726874,-0.01962130385823548
1772462344571025700,1.710025634765625,-0.03636076866984367,-0.02490052290279418,-0.022302067374810577
1772462344581074700,1.72007470703125,-0.01615735407471657,-0.016123725799750535,-0.033142098884284495
1772462344591122700,1.730122802734375,-0.02214110465943813,-0.01678300255923532,-0.040089397271536285
1772462344601170400,1.74017041015625,-0.044884266865253444,-0.009652703154738991,-0.028187143358029423
1772462344611218700,1.75021875,-0.04981880065798759,-0.019140877097263,-0.0274369460452348
1772462344621267500,1.760267333984375,-0.033061727124452586,-0.031072859428753142,-0.032066469009406864
1772462344631315700,1.770315673828125,-0.01689969687461853,-0.020781187083618716,-0.021948577762022612
1772462344641363700,1.78036376953125,-0.0183954883903265,-0.021037673462182282,-0.018569237522035837
1772462344651412700,1.790412841796875,-0.03276362096071243,-0.03276870812778361,-0.02593779352866113
1772462344661460700,1.800460693359375,-0.03411035939455032,-0.02906811374390963,-0.033686471426673234
1772462344671508500,1.810508544921875,-0.04323299252688884,-0.019130675363657063,-0.030221535262465474
1772462344681556700,1.820556640625,-0.027668928170204162,-0.017837315651448443,-0.02880859972462058
1772462344691605500,1.83060546875,-0.022878186762332914,-0.017326927577052266,-0.022282558956742287
1772462344701657000,1.840656982421875,-0.03739420337080955,-0.027735399268846956,-0.023606610634736715
1772462344711705000,1.850705078125,-0.027070962277054786,-0.03000965064403135,-0.018554624474793672
1772462344721754000,1.860754150390625,-0.03140577661097049,-0.02147156680084299,-0.0203417636198923
1772462344731802000,1.870802001953125,-0.022424597775936125,-0.02722885168592911,-0.02319693385530263
1772462344741850000,1.88085009765625,-0.023617022430896757,-0.027656050422322002,-0.02092040375806391
1772462344751899000,1.89089892578125,-0.04231821576952934,-0.024990411409642546,-0.02002308959215879
1772462344761947100,1.900947021484375,-0.03647416591644287,-0.021670660436362957,-0.023649609526246784
1772462344771995100,1.9109951171875,-0.02659282337129116,-0.02107251644670032,-0.021042678430862723
1772462344782043100,1.921043212890625,-0.017315876460075378,-0.02192976803027559,-0.014318923133797942
1772462344792092200,1.931092041015625,-0.017165654334425927,-0.021754973152372986,-0.026396972005628048
1772462344802140000,1.941139892578125,-0.02420212884247303,-0.018594842320750465,-0.025330256089568137
1772462344812188200,1.951188232421875,-0.039461072772741315,-0.023126339137391184,-0.028769217562302947
1772462344822237000,1.96123681640625,-0.0354185193836689,-0.01978865064862184,-0.02445515375547111
1772462344832285200,1.97128515625,-0.03048223202526569,-0.019503961088880896,-0.027297592373471704
1772462344842333200,1.981333251953125,-0.01462006150484085,-0.032164335326733996,-0.020219635077565908
1772462344852381000,1.991380859375,-0.01985971572399139,-0.03904574713723268,-0.027593890172615647
1772462344862430200,2.00143017578125,-0.01761632071137428,-0.02352652656927239,-0.016535576269961893
1772462344872478000,2.01147802734375,-0.03602057693004608,-0.02403448522456456,-0.018129530930519104
1772462344882526200,2.021526123046875,-0.03631751405000686,-0.020884483061311767,-0.02209242494581267
1772462344892575000,2.031574951171875,-0.03512099774181843,-0.022143867438682352,-0.021937928503844885
1772462344902623200,2.041623291015625,-0.033173955327272416,-0.023305970020615494,-0.0159233261231333
1772462344912671000,2.0516708984375,-0.024493805265426636,-0.01588258312079124,-0.02080605666339397
1772462344922720300,2.06172021484375,-0.017463760498166083,-0.026363179333880542,-0.027420926492195574
1772462344932768000,2.07176806640625,-0.035865094107389445,-0.021626031276769934,-0.022883611856121568
1772462344942816000,2.08181591796875,-0.03630991526544094,-0.023568109821830874,-0.019019976964220402
1772462344952864300,2.0918642578125,-0.031816110977530475,-0.017042059920798054,-0.020675635216757655
1772462344962913000,2.1019130859375,-0.027625089028477667,-0.019132415229594333,-0.02986884936727583
1772462344972961300,2.111961181640625,-0.02582768421769142,-0.01852844428734388,-0.027833471082150934
1772462344983009000,2.122009033203125,-0.02597498373389244,-0.015751723282737655,-0.019352642984688282
1772462344993058300,2.132058349609375,-0.03823942202329635,-0.02153277720247861,-0.026163711239024997
1772462345003106000,2.14210595703125,-0.03733867379128933,-0.028184038085490463,-0.02050871768463403
1772462345013154000,2.152154052734375,-0.03434124554097652,-0.029030416648602113,-0.014805720270052551
1772462345023202300,2.162202392578125,-0.02730652459859848,-0.033293257158272895,-0.02024186517568305
1772462345033251000,2.1722509765625,-0.02296294243633747,-0.03172073801138904,-0.028504374347347764
1772462345043299000,2.182299072265625,-0.027744916015863416,-0.02286094336658716,-0.021406616372428834
1772462345053347000,2.19234716796875,-0.0353746802419424,-0.016018397695175372,-0.027942959338612853
1772462345063396000,2.20239599609375,-0.025195816054940222,-0.013115922285895793,-0.03214353456730023
1772462345073444000,2.212444091796875,-0.02653963187932968,-0.015242339855339378,-0.0229324194339104
1772462345083492000,2.2224921875,-0.02563420747220516,-0.014902248580241575,-0.023137075160536914
1772462345093541000,2.232541015625,-0.023982933133840558,-0.021204992853105068,-0.005901296465657651
1772462345103589000,2.242589111328125,-0.03190846543610096,-0.023229749279515818,-0.01488766293246299
1772462345113637000,2.25263720703125,-0.044023850643634795,-0.02539266750102397,-0.021878106341697276
1772462345123685000,2.26268505859375,-0.038034254840016365,-0.021143371459515763,-0.023683420464303342
1772462345133734100,2.272734130859375,-0.026209961533546447,-0.01843942343017552,-0.020733283688127994
1772462345143782100,2.2827822265625,-0.02769990783035755,-0.02213471601784695,-0.028152601767610756
1772462345153830100,2.292830078125,-0.0357756622582674,-0.019592630319599992,-0.017228015513531862
1772462345163879200,2.302879150390625,-0.032331074762344356,-0.018940696616354398,-0.016069346997700632
1772462345173927200,2.31292724609375,-0.015868600261211393,-0.01939400247496087,-0.013561327965836971
1772462345183975200,2.32297509765625,-0.027683541217446327,-0.025318017662502825,-0.02426242592865601
1772462345194024200,2.333024169921875,-0.025881460231542586,-0.021539197810110634,-0.02225594494445249
1772462345204072000,2.343072021484375,-0.029472178199887275,-0.018291804253566076,-0.019178217999543994
1772462345214120200,2.3531201171875,-0.027227029621601104,-0.024606042601400986,-0.004882730540260672
1772462345224168000,2.36316796875,-0.03680091365277767,-0.023645714235841296,-0.010411924024205654
1772462345234217200,2.37321728515625,-0.03275894478559494,-0.026973698747926392,-0.016010712145641447
1772462345244265000,2.383264892578125,-0.03156125943362713,-0.022632797166518864,-0.010118530568201094
1772462345254313000,2.39331298828125,-0.0278197348177433,-0.010026582535007036,-0.020132322120293974
1772462345264362000,2.403362060546875,-0.02721533918380737,-0.014919998866063542,-0.013979790839925408
1772462345274410000,2.413409912109375,-0.041277182283997536,-0.022093388493615203,-0.021323522932548074
1772462345284458200,2.423458251953125,-0.03244564105272293,-0.013870224951650014,-0.01938813442317769
1772462345294507000,2.433507080078125,-0.04186988748013973,-0.021071890825615263,-0.009092493722401559
1772462345304555300,2.44355517578125,-0.037080315116047854,-0.026185247217398136,-0.010079477199446409
1772462345314603000,2.45360302734375,-0.02914250785410404,-0.01878683036204893,-0.01729941851561889
1772462345324651000,2.463651123046875,-0.01956394764780998,-0.02114889701800421,-0.018291297363489865
1772462345334700000,2.473699951171875,-0.021506898409128186,-0.023150962121994235,-0.01763588392836973
1772462345344748000,2.483748046875,-0.025845804396271703,-0.018692690371768548,-0.012229001649841666
1772462345354796300,2.49379638671875,-0.027639702075719832,-0.01777232869041618,-0.013506784767005592
1772462345364845000,2.503844970703125,-0.019857377636432645,-0.015473490863246842,-0.020199304675590245
1772462345374893300,2.513893310546875,-0.02733750425875187,-0.025135952793597243,-0.01339336925409734
1772462345384941000,2.523941162109375,-0.0247960030823946,-0.014606466804328373,-0.021384221877530217
1772462345394990000,2.533989990234375,-0.027635610422492025,-0.01795706957359798,-0.01409242090154439
1772462345405038000,2.5440380859375,-0.008779518783092499,-0.019907495821896007,-0.006384604736883193
1772462345415086000,2.554086181640625,-0.025239070674777028,-0.014374183285259641,-0.007847005439642816
1772462345425134000,2.564134033203125,-0.031522096467018125,-0.013645608715806156,-0.006015698359254747
1772462345435183000,2.57418310546875,-0.04289572339653969,-0.02066326892552897,-0.00932385479286313
1772462345445231000,2.584231201171875,-0.03885024739801884,-0.01472626182567328,-0.021860150559898466
1772462345455279000,2.594279052734375,-0.018504209461808203,-0.015557821845565922,-0.017921605534572154
1772462345465328000,2.604328125,-0.014762684845924377,-0.01876911660884507,-0.01696936457734555
1772462345475376000,2.614376220703125,-0.0505243185788393,-0.02189855547468178,-0.02466127078682184
1772462345485424000,2.624424072265625,-0.044535307297110555,-0.017433758085547015,-0.023352562808431683
1772462345495472000,2.63447216796875,-0.021938860085606575,-0.020763966520759274,-0.016133388677239416
1772462345505521200,2.644521240234375,-0.026724340796470642,-0.0189905864729546,-0.011417940995283425
1772462345515569200,2.654569091796875,-0.02597323016822338,-0.017430547781731,-0.010445351369772106
1772462345525617200,2.6646171875,-0.02986439238786697,-0.022933871605480088,-0.01299147392231971
1772462345535666200,2.674666259765625,-0.021185995891690252,-0.01790788753647357,-0.011057199657801537
1772462345545714200,2.684714111328125,-0.0258241770863533,-0.01210225173132494,-0.01731850680857897
1772462345555762200,2.69476220703125,-0.03210603383481502,-0.020861613642377777,-0.01530581527929753
1772462345565811200,2.704811279296875,-0.031655951979756354,-0.02416473770784214,-0.017020583307929337
1772462345575859000,2.71485888671875,-0.026119360640645024,-0.02041488365503028,-0.014132424118369817
1772462345585907200,2.7249072265625,-0.018185645031929015,-0.017987469278438948,-0.01299119992768392
1772462345595956000,2.7349560546875,-0.03434416815042496,-0.014883539313194341,-0.014836590332351624
1772462345606004000,2.74500390625,-0.025211013624072073,-0.016501619201432914,-0.02149962841812521
1772462345616052200,2.75505224609375,-0.02685468917787075,-0.01612143337796442,-0.014847330922074615
1772462345626100000,2.765099853515625,-0.03613105156719684,-0.008886860748240724,-0.015097762019187212
1772462345636149200,2.775149169921875,-0.04061842611432075,-0.019741213044011965,-0.013221903411019593
1772462345646197000,2.785197021484375,-0.03582943827211857,-0.020063375936774534,-0.011686419205740093
1772462345656245000,2.795244873046875,-0.023560908329486846,-0.020192916033999062,-0.014878036587592213
1772462345666294000,2.8052939453125,-0.03299275354146957,-0.02317112812718842,-0.02010543411336839
1772462345676342000,2.815342041015625,-0.026409868019819257,-0.012652282262942753,-0.01815941461212933
1772462345686390300,2.825390380859375,-0.028803485158085822,-0.01607490908880718,-0.021116949243471024
1772462345696439000,2.83543896484375,-0.031495792981982226,-0.012550548054673708,-0.010173767886776477
1772462345706483700,2.845483642578125,-0.028655016598105428,-0.01870778747620061,-0.016128639436885715
1772462345716531700,2.85553173828125,-0.03074994305074215,-0.019806355268671177,-0.01958351086480543
1772462345726579700,2.865579833984375,-0.025063129585981368,-0.019755008673924022,-0.012040584671963006
1772462345736628500,2.87562841796875,-0.03014730098247528,-0.01412002129452303,-0.017929533112701027
1772462345746676700,2.8856767578125,-0.03253799551129341,-0.012352765026828274,-0.021076562434155493
1772462345756724500,2.895724365234375,-0.026102994027733802,-0.02458425546127837,-0.022121870236005634
1772462345766773800,2.905773681640625,-0.03208206843733787,-0.025626106364140287,-0.012488383238390088
1772462345776821500,2.915821533203125,-0.03656476680934429,-0.022322699170885606,-0.019155129384901375
1772462345786869800,2.925869873046875,-0.029679683470726012,-0.019508226272044703,-0.00787679778970778
1772462345796918500,2.93591845703125,-0.02758300345242023,-0.019150786569924094,-0.018575648996513337
1772462345806966500,2.945966552734375,-0.022790508478879926,-0.016904094488522967,-0.020086565016116945
1772462345817014800,2.956014892578125,-0.02802373295724392,-0.013847328133252448,-0.012764734228048472
1772462345827063600,2.9660634765625,-0.025628362253308296,-0.012442338439845478,-0.013200276101101189
1772462345837111800,2.97611181640625,-0.0202384859085083,-0.018056260198331436,-0.011252028110157698
1772462345847159600,2.98615966796875,-0.027871172744035718,-0.022442827552370724,-0.013210505234170705
1772462345857207600,2.99620751953125,-0.03939093014597893,-0.024001601301692425,-0.016576182274986057
1772462345867256600,3.006256591796875,-0.030562311524152754,-0.01831614411037881,-0.01673807657212019
1772462345877304600,3.0163046875,-0.02053133137524128,-0.01860597563611809,-0.018497450927458702
1772462345887352800,3.026352783203125,-0.016787468671798707,-0.015594080469035543,-0.013019750168733298
1772462345897401600,3.036401611328125,-0.02232289096713066,-0.020553712170408106,-0.0038961306557059286
1772462345907449600,3.04644970703125,-0.032494156369566915,-0.016864671227009968,-0.007804791999422013
1772462345917497600,3.05649755859375,-0.041917233753204344,-0.011443915686756371,-0.010205259003583341
1772462345927546600,3.066546630859375,-0.033386136773228645,-0.016633479119907132,-0.01582826825082302
1772462345937594600,3.0765947265625,-0.02410918986201286,-0.016369791248999534,-0.012828812440205365
1772462345947642600,3.086642578125,-0.023510054925084112,-0.017658086627023294,-0.008601458802446723
1772462345957690600,3.096690673828125,-0.03203647572994232,-0.015798384569212794,-0.015528846912831067
1772462345967739600,3.10673974609375,-0.03966331734657287,-0.015934377240110188,-0.013114734975807368
1772462345977787600,3.11678759765625,-0.019461656317114828,-0.014245108978915958,-0.005304371752124279
1772462345987835600,3.126835693359375,-0.02410100655555725,-0.023243430744996293,-0.011728431716561316
1772462345997884700,3.136884765625,-0.033086277043819425,-0.02221749436389655,-0.011318261746782809
1772462346007932700,3.1469326171875,-0.04700140514969826,-0.01940971606732346,-0.008011566617898643
1772462346017980700,3.156980712890625,-0.045507367199659345,-0.014357437646435572,-0.018673300684709102
1772462346028029700,3.16702978515625,-0.026349077743291854,-0.013057570561626925,-0.018829769888054577
1772462346038077700,3.17707763671875,-0.010931143859028816,-0.022547055111825465,-0.021483280071523038
1772462346048125700,3.187125732421875,-0.02813654568195343,-0.025489830565452575,-0.014344678629562258
1772462346058174700,3.1971748046875,-0.042647301593422886,-0.019410008328268304,-0.008044318110030145
1772462346068222700,3.20722265625,-0.03696165717244148,-0.01992933776094578,-0.011185009022243321
1772462346078270700,3.217270751953125,-0.020351298633217812,-0.013758430573670193,-0.012658168581034987
1772462346088318500,3.227318359375,-0.022445056042075157,-0.015183869400061665,-0.012299801863729953
1772462346098367700,3.23736767578125,-0.03620996202230453,-0.0221278889848385,-0.013705430877953766
1772462346108415500,3.24741552734375,-0.049371641412377355,-0.014633085383195429,-0.007212123335897922
1772462346118463700,3.257463623046875,-0.021685177585482596,-0.010094957896368578,-0.010256075875367969
1772462346128512500,3.267512451171875,-0.0162953012406826,-0.01322931953249499,-0.007766578880883753
1772462346138560500,3.277560546875,-0.024074703070521352,-0.02435889030676335,-0.004584131186176091
1772462346148608800,3.28760888671875,-0.04023381071090698,-0.02448202349608764,-0.004672905448172241
1772462346158657500,3.297657470703125,-0.017786416581273078,-0.02167560603953898,-0.011657247910182923
1772462346168705800,3.307705810546875,-0.019281039053201676,-0.016862698465632275,-0.0153373429287225
1772462346178753500,3.31775341796875,-0.03334522024095058,-0.015221132670529186,-0.00925486294357106
1772462346188801800,3.3278017578125,-0.04097673803269863,-0.01610005266321823,-0.01523399215210229
1772462346198850600,3.3378505859375,-0.03588613689541816,-0.021576666576554996,-0.010034067155141383
1772462346208898600,3.347898681640625,-0.02376373742520809,-0.02585669111646712,-0.012805997820198535
1772462346218946800,3.35794677734375,-0.019722353079915045,-0.017058750760694966,-0.016622944026160984
1772462346228995600,3.36799560546875,-0.03543371695280075,-0.010705454477528109,-0.011158961265534163
1772462346239043800,3.3780439453125,-0.032139936104416844,-0.0161693915723823,-0.011829827998112887
1772462346249091600,3.388091552734375,-0.028549218136072158,-0.018959981272136793,-0.0169217991085723
1772462346259140600,3.398140625,-0.025704934620857236,-0.009504572521476075,-0.01568434800179675
1772462346269188600,3.408188720703125,-0.024955577558279037,-0.014447919808328151,-0.005163465444091707
1772462346279236600,3.418236572265625,-0.03617956688404083,-0.01748388083758764,-0.01565031786803156
1772462346289285600,3.42828564453125,-0.04111585424244404,-0.013782432503765448,-0.0073318224591203025
1772462346299333600,3.438333740234375,-0.0280985517591238,-0.013861050697928293,-0.00020288389464840292
1772462346309381600,3.448381591796875,-0.021212883898615836,-0.01119014185508713,-0.008356635462213307
1772462346319429600,3.4584296875,-0.03333528336882591,-0.020360048195254058,-0.008095299378596247
1772462346329478700,3.468478759765625,-0.04560322878956794,-0.014361310103954746,-0.017035214621480554
1772462346339526700,3.478526611328125,-0.024653964263200757,-0.011106372561771423,-0.02706519012339413
1772462346349574700,3.48857470703125,-0.024355273577570915,-0.01676332061123103,-0.010029043920151888
1772462346359623700,3.498623779296875,-0.029887773263454435,-0.0238664306147024,-0.008961414688639343
1772462346369671700,3.508671630859375,-0.02629647077322006,-0.009815492501016706,-0.007034282550960779
1772462346379719700,3.5187197265625,-0.023908114331960675,-0.009986501686368138,-0.009469455542322248
1772462346389768700,3.528768798828125,-0.034085809475183484,-0.01783621967290528,-0.01475426407745108
1772462346399816700,3.538816650390625,-0.03872282162606716,-0.017431310400133952,-0.013524338690005243
1772462346409864700,3.54886474609375,-0.04096738568246364,-0.018468151767738163,-0.013065306343510746
1772462346419913700,3.558913818359375,-0.019265841484069825,-0.008289168849727139,-0.015578439941909163
1772462346429961700,3.568961669921875,-0.012384265276789664,-0.013098459694441407,-0.013362060800381005
1772462346440009500,3.579009521484375,-0.030490415331721303,-0.01773624816345982,-0.006473853922914713
1772462346450057700,3.5890576171875,-0.02869417956471443,-0.018621378701226786,-0.018583941900823263
1772462346460106500,3.5991064453125,-0.03332651554048061,-0.015310281391860915,-0.008228753032535315
1772462346470154800,3.60915478515625,-0.024043723410367965,-0.010616862878622487,-0.007444781314302235
1772462346480202800,3.61920263671875,-0.030334347987174985,-0.015299221141729503,-0.009578925532475113
1772462346490251500,3.62925146484375,-0.03317629341483116,-0.009269567322358488,-0.0023484080233611166
1772462346500299800,3.6392998046875,-0.031980946150422095,-0.012131194698018953,-0.009743925102148205
1772462346510347500,3.649347412109375,-0.02300268992483616,-0.014219609211478381,-0.00851631953595206
1772462346520396800,3.659396728515625,-0.027342764955759047,-0.021885632061026988,-0.005850351729709655
1772462346530444500,3.669444580078125,-0.029285715717077252,-0.019642072651628404,-0.0037092663140967487
1772462346540492500,3.679492431640625,-0.03691898707449436,-0.0172038035208825,-0.010650390688888728
1772462346550541600,3.68954150390625,-0.0430564669162035,-0.015132358408533036,-0.007892050157766789
1772462346560589600,3.699589599609375,-0.03916588921844959,-0.017338672813773156,-0.004125208437535911
1772462346570637800,3.709637939453125,-0.018664952981472013,-0.012037808192986995,-0.016413356396090237
1772462346580685600,3.719685546875,-0.011931260812282561,-0.017293801625585182,-0.021496724074985832
1772462346590734800,3.72973486328125,-0.03213233731985092,-0.007607397130643948,-0.010699380929768085
1772462346600782600,3.739782470703125,-0.04200725012421608,-0.013059999980730935,-0.009729896576795726
1772462346610830600,3.74983056640625,-0.035270050823688504,-0.021721518407342953,-0.00796942624291405
1772462346620879600,3.759879638671875,-0.022850714233517644,-0.025927390865655615,-0.01460986890438944
1772462346630927600,3.769927734375,-0.029136078113317487,-0.01901550171850249,-0.005943016715534031
1772462346640975600,3.7799755859375,-0.030483401069045065,-0.01917487526498735,-0.012100242437329142
1772462346651024600,3.790024658203125,-0.027038229051232335,-0.013476243498269468,-0.011398724838159978
1772462346661072600,3.80007275390625,-0.02165185983777046,-0.009862382116355001,-0.004073533049225807
1772462346671120600,3.81012060546875,-0.026434417939186095,-0.012597022111481055,-0.007629234503116459
1772462346681169700,3.820169677734375,-0.026132804644107818,-0.015638673096010462,-0.010406663327198475
1772462346691217700,3.8302177734375,-0.030769232273101806,-0.012661812709691002,-0.0019085918339900672
1772462346701265700,3.840265625,-0.02657762580215931,-0.023757545146439223,-0.013640256687253712
1772462346711314400,3.850314453125,-0.038249943417310715,-0.0143566156625282,-0.009924871159624309
1772462346721362700,3.86036279296875,-0.03196107240617275,-0.006766699389647692,-0.020543003546725957
1772462346731410400,3.870410400390625,-0.031362521991133686,-0.011544626981718466,-0.010173603489995003
1772462346741458400,3.88045849609375,-0.041533202871680254,-0.021216966418689115,-0.00808264082642272
1772462346751507500,3.890507568359375,-0.033301965621113774,-0.016496504634898154,-0.011615618991851807
1772462346761555500,3.900555419921875,-0.028363340175151824,-0.01660161811034195,-0.013078914743755011
1772462346771603700,3.910603759765625,-0.034947979262471195,-0.021503071617381644,-0.0030625111094675955
1772462346781652500,3.920652587890625,-0.027017770785093306,-0.01141707334560342,-0.002627626823540777
1772462346791700500,3.930700439453125,-0.019532967987656594,-0.01581469638319686,-0.011068451704178004
1772462346801748500,3.94074853515625,-0.03793313255310058,-0.018691904920479282,-0.006268321413453668
1772462346811797500,3.950797607421875,-0.0379325480312109,-0.012935414619836955,-0.01235675621535629
1772462346821845500,3.960845458984375,-0.02626023041605949,-0.012290979236457496,-0.013645133791770785
1772462346831893500,3.9708935546875,-0.015936989322304723,-0.01455825744816102,0.0015985760367475449
1772462346841942500,3.980942626953125,-0.02416939561665058,-0.012967992582032456,-0.0023505269152112305
1772462346851990500,3.990990478515625,-0.02716273221373558,-0.02020076598031446,-0.00791899296361953
1772462346862038500,4.00103857421875,-0.01743862605690956,-0.01939213474486023,-0.0038942309595644473
1772462346872086500,4.01108642578125,-0.013545125749707222,-0.017356655995035542,-0.014430840809363871
1772462346882135600,4.021135498046875,-0.0371872826218605,-0.021032787224510685,-0.013802680707350372
1772462346892183600,4.03118359375,-0.036135727742314334,-0.009166298744129017,-0.0021803397137671707
1772462346902231600,4.0412314453125,-0.038082185634970664,-0.004814889468438923,-0.009379841030109673
1772462346912280600,4.051280517578125,-0.029555764830112456,-0.01460851719751954,-0.019947357474826274
1772462346922328600,4.06132861328125,-0.02312251691222191,-0.01308710718336515,-0.01155320301381871
1772462346932376600,4.07137646484375,-0.022524551019072532,-0.016788802112359554,-0.014358908084314316
1772462346942425600,4.081425537109375,-0.03239946382343769,-0.004671078817266971,-0.012220343419350682
1772462346952473600,4.0914736328125,-0.035540099936723704,-0.011940238703181966,-0.004672960247099399
1772462346962521600,4.101521484375,-0.026709727749228477,-0.02045299630886875,-0.002628375742211938
1772462346972569300,4.1115693359375,-0.023864275190234183,-0.025668557266378775,-0.009167349056899548
1772462346982618600,4.12161865234375,-0.021320435926318167,-0.022441357114491984,-0.008872731758188456
1772462346992666400,4.131666259765625,-0.02700315773785114,-0.008227465257747098,-0.009999306369014084
1772462347002714600,4.141714599609375,-0.03343406756818294,-0.013217629094701259,-0.01303502080310136
1772462347012763400,4.151763427734375,-0.030883798563480374,-0.014341125832451507,-0.015344813849125057
1772462347022811400,4.161811279296875,-0.02564472886621952,-0.009714415879873558,-0.007329941029287875
1772462347032859600,4.171859619140625,-0.02639759306013584,-0.004336905826302245,-0.006239223183132708
1772462347042908400,4.181908447265625,-0.03537701832950115,-0.01371979733002372,-0.006414196157548576
1772462347052956700,4.191956787109375,-0.026394670450687406,-0.008458068276382982,-0.016562299880106
1772462347063004400,4.20200439453125,-0.0347737917393446,-0.014852893013181163,-0.016520963222719728
1772462347073053700,4.2120537109375,-0.03462006248235702,-0.017879209431260822,-0.006671075261756777
1772462347083101400,4.222101318359375,-0.024443536382913588,-0.011870589266763999,-0.008730017085559665
1772462347093149400,4.2321494140625,-0.03207622321844101,-0.01270912245013751,-0.011188004696927965
1772462347103198500,4.242198486328125,-0.027142858469486233,-0.007550844637816772,-0.014049093216471372
1772462347113246500,4.25224658203125,-0.04584638989567756,-0.01814271007250063,-0.005920348225999623
1772462347123294500,4.26229443359375,-0.025196985098719597,-0.009654456720408051,-0.0009883534502238035
1772462347133342500,4.272342529296875,-0.025047932016849517,-0.015831519653834402,-0.003995261914934963
1772462347143391500,4.2823916015625,-0.03222819890975952,-0.006711973527725785,-0.013499770504329352
1772462347153439500,4.292439453125,-0.039111528682708736,-0.01731849767542444,-0.009751304691005498
1772462347163487500,4.302487548828125,-0.023548633369803427,-0.019857048842869696,-0.010475034121982753
1772462347173536500,4.31253662109375,-0.02848842785954475,-0.010034606011258438,-0.0018853570888750254
1772462347183584500,4.32258447265625,-0.039109775117039676,-0.01980117220347747,0.003301324834022671
1772462347193632500,4.332632568359375,-0.022496493968367576,-0.011238163981586695,-0.014083671339508145
1772462347203681500,4.342681640625,-0.02638882523179054,-0.016848898269142955,-0.00350121305398643
1772462347213729500,4.3527294921875,-0.031030513557791708,-0.015348795904498546,-0.003097582422848791
1772462347223777500,4.362777587890625,-0.03477262269556522,-0.00966325194821693,-0.015420673830620943
1772462347233826600,4.37282666015625,-0.030284663626551626,-0.01782579874359071,-0.011688793825916945
1772462347243874600,4.38287451171875,-0.030586276921629903,-0.019018159466469658,-0.012512220771703868
1772462347253922600,4.392922607421875,-0.032981063103675844,-0.007077199244080111,-0.005369418078660965
1772462347263971600,4.4029716796875,-0.04031213664412498,-0.0145999776980374,-0.011470383568573743
1772462347274019600,4.41301953125,-0.04090776444971561,-0.02071268842467107,-0.015564758476428686
1772462347284067600,4.423067626953125,-0.02594458859562874,-0.01824059922271408,-0.013906195880752056
1772462347294115600,4.433115478515625,-0.026246201890707015,-0.01756804285654798,-0.01470775805460289
1772462347304164400,4.443164306640625,-0.03761573716700077,-0.009663215415598824,-0.003247713216952979
1772462347314212600,4.453212646484375,-0.03866144682765007,-0.00492791225570254,-0.013038363537658006
1772462347324260400,4.46326025390625,-0.03057984718084335,-0.019359949508309365,-0.0054912726263515645
1772462347334309600,4.4733095703125,-0.028034838873147963,-0.020894118539337068,-0.009326375543512403
1772462347344357400,4.483357421875,-0.041052141356468196,-0.00414156591729261,-0.00019879224142059683
1772462347354405600,4.493405517578125,-0.03312427096664906,-0.015120622304966672,-0.008391359715722501
1772462347364454400,4.503454345703125,-0.024147768306732178,-0.0077147025631740685,-0.010077102579269557
1772462347374502400,4.51350244140625,-0.019660393759608267,-0.010148204187257214,-0.005468549337889999
1772462347384550700,4.523550537109375,-0.025346038180589673,-0.018135577078815548,-0.009317571182548999
1772462347394599400,4.533599365234375,-0.038812837997078894,-0.013489623569650574,-0.006597261106874793
1772462347404647700,4.543647705078125,-0.04255728522241115,-0.011056560336984694,-0.015381547396630047
1772462347414695400,4.5536953125,-0.028940263280272483,-0.01774364601862617,-0.011472155400551855
1772462347424744700,4.56374462890625,-0.024450550645589826,-0.010332629976607858,-0.014927246024180203
1772462347434792400,4.57379248046875,-0.03342763782739639,-0.007843827101867646,-0.004378251616843044
1772462347444840400,4.58384033203125,-0.034173487758636475,-0.00866652339529246,-0.009848846781346947
1772462347454888700,4.593888671875,-0.02219955684840679,-0.01700660044834949,-0.0021508578909561035
1772462347464937500,4.6039375,-0.02742927419543266,-0.018052136579062787,-0.0004414418908767402
1772462347474985500,4.6139853515625,-0.0302682970136404,-0.016795350584154947,-0.011853428069408983
1772462347485033500,4.624033447265625,-0.029221418309211728,-0.008369832870503887,-0.01290425229659304
1772462347495082500,4.63408251953125,-0.021595161214470863,-0.0067112520085182035,-0.013232826663833111
1772462347505130500,4.644130615234375,-0.019351766201853752,-0.01503703567474149,-0.00622897578375414
1772462347515178500,4.654178466796875,-0.03731178578436375,-0.01066218159138225,-0.00262724323105067
1772462347525227500,4.6642275390625,-0.038359249010682106,-0.01570386555301957,-0.0023607012493535875
1772462347535275500,4.674275634765625,-0.03461713987290859,-0.013821951663400977,-0.0022933533678762613
1772462347545323500,4.684323486328125,-0.03656359776556491,-0.01087338578980416,-0.01443495072890073
1772462347555372500,4.69437255859375,-0.03057809361517429,-0.011574547195946796,-0.012913622913137078
1772462347565420500,4.704420654296875,-0.033869536375999446,-0.012251615340448916,-0.017296148846298456
1772462347575468500,4.714468505859375,-0.032819735062122345,-0.01105123570789583,-0.01454147984329611
1772462347585517600,4.724517578125,-0.012174421918392181,-0.013096477799909188,-0.009399002388305962
1772462347595565600,4.734565673828125,-0.028487843337655066,-0.011521584032848477,-0.0064841195886023335
1772462347605613600,4.744613525390625,-0.024153029003739356,-0.02161835029381327,0.0049110798519104715
1772462347615662600,4.75466259765625,-0.03193184631168842,-0.01714025503168814,-0.0021927790702320634
1772462347625710600,4.764710693359375,-0.03596796995997429,-0.015591893078526481,-0.00926991438223049
1772462347635758600,4.774758544921875,-0.0233972422003746,-0.013085143555141985,-0.02075911224912852
1772462347645806600,4.784806640625,-0.017855390164256094,-0.017470034975325687,-0.015822094238363206
1772462347655855400,4.79485546875,-0.03656125967800617,-0.012430734767019749,-0.014516509798821062
1772462347665903600,4.804903564453125,-0.022794015610218047,-0.003935713747423142,-0.006733308576699346
1772462347675951400,4.814951416015625,-0.029531214910745618,-0.012743992834119125,-0.010030870551057159
1772462347686000600,4.825000732421875,-0.018610592445731163,-0.017904855329170823,-0.008002670925389975
1772462347696048400,4.83504833984375,-0.02804009957015514,-0.013193444501515477,-0.006411529276426881
1772462347706096400,4.845096435546875,-0.03132803519964218,-0.01357077164761722,-0.019432247559539973
1772462347716145400,4.8551455078125,-0.0284819981187582,-0.006000034999242052,-0.017667064517922697
1772462347726193400,4.865193359375,-0.022943653213977813,-0.012150072928424923,-0.009776256469171494
1772462347736241700,4.87524169921875,-0.025929391026496884,-0.008218624364165589,-0.013460918064974247
1772462347746290400,4.88529052734375,-0.039247137761116026,-0.01184291580854915,-0.0016607180201448498
1772462347756338700,4.895338623046875,-0.030718378868699072,-0.012539081379165873,-0.0010277356125414372
1772462347766386400,4.905386474609375,-0.026831892824172972,-0.014324019434023647,-0.0026135434992611405
1772462347776435700,4.915435791015625,-0.032812136277556414,-0.014435142525145783,-0.009464925497677176
1772462347786483500,4.9254833984375,-0.023528759625554084,-0.010418107169819996,-0.0074660250317305325
1772462347796531500,4.935531494140625,-0.025321488261222838,-0.005687133125169203,-0.015477847377955913
1772462347806580500,4.94558056640625,-0.02442249359488487,-0.009854153144126757,-0.01558117988826707
1772462347816628500,4.95562841796875,-0.03504617893993854,-0.014023036326607688,-0.003769015411008149
1772462347826676500,4.965676513671875,-0.03609714929759502,-0.013915548230987042,-0.0032907486410811543
1772462347836724500,4.975724365234375,-0.018291443493962285,-0.01438486450947821,-0.0016979812906123698
1772462347846773500,4.9857734375,-0.029963176587224007,-0.012766697856271639,0.002328899605292827
1772462347856821500,4.995821533203125,-0.03894084829092025,-0.011553796668862923,-0.0031734058717265722
1772462347866869500,5.005869384765625,-0.02517418874502182,-0.012423446509707718,-0.006212152513116598
1772462347876918500,5.01591845703125,-0.01544482189118862,-0.014335435877181588,-0.0027060075556859372
1772462347886966500,5.025966552734375,-0.029508418557047843,-0.01541524873683229,-0.011704977775737643
1772462347897014500,5.0360146484375,-0.04252689008414745,-0.009113691774057225,-0.011863419740460813
1772462347907063600,5.0460634765625,-0.04133212734162807,-0.009973486941168085,-0.0017595570184290408
1772462347917111600,5.056111572265625,-0.030407997745275497,-0.008442377516906708,-0.007415153361018747
1772462347927159600,5.06615966796875,-0.017988661155104637,-0.012206424491852521,-0.01746129454644397
1772462347937208300,5.076208251953125,-0.03384732454419136,-0.009066044106893241,0.0032385435298085213
1772462347947256600,5.086256591796875,-0.04492167626619339,-0.016047820152482017,0.0040845658998936414
1772462347957304600,5.0963046875,-0.03219897281527519,-0.018142847069818526,-0.007969133981969207
1772462347967353600,5.106353515625,-0.023513562056422233,-0.01678848245195113,0.005416271161381155
1772462347977401600,5.116401611328125,-0.030544775867462157,-0.016433275806112212,-0.009168006644025445
1772462347987449300,5.126449462890625,-0.02979600332677364,-0.01288491740846075,-0.010806604163907468
1772462347997498600,5.13649853515625,-0.025310382345318794,-0.007753847263474017,-0.013460954597592353
1772462348007546400,5.14654638671875,-0.029650457376241682,-0.01437901015742682,-0.0017676489933393894
1772462348017594600,5.1565947265625,-0.02052197902500629,-0.014419506564596667,0.0008197371513582766
1772462348027642400,5.166642333984375,-0.026209961533546447,-0.013830299366638064,-0.007291490448731929
1772462348037691600,5.176691650390625,-0.037734979632496835,-0.010890126862050965,-0.0078013761996291574
1772462348047739400,5.186739501953125,-0.029506664991378783,-0.013210477834707125,-0.01518295608460903
1772462348057787400,5.196787353515625,-0.028909283620119092,-0.012802609419869259,-0.01417273786244914
1772462348067836400,5.20683642578125,-0.03234977946281433,-0.01858547627078369,-0.020591701526660473
1772462348077884400,5.216884521484375,-0.027411738538742063,-0.01916557771367952,-0.011024886557087301
1772462348087932700,5.2269326171875,-0.030406244179606436,-0.01823892785543576,-0.009428064086008816
1772462348097981400,5.2369814453125,-0.03309972104728222,-0.012409554981673135,0.005241334719583391
1772462348108029700,5.24702978515625,-0.03145136931836605,-0.018733908298145977,-0.009349518957082182
1772462348118077400,5.257077392578125,-0.03817921626865864,-0.014744436803180723,-0.006177921449951827
1772462348128126700,5.267126708984375,-0.030394553741812703,-0.010696485719783232,-0.004123162610922009
1772462348138174500,5.277174560546875,-0.023656769919395446,-0.005636544582247734,-0.00817850241633132
1772462348148222500,5.287222412109375,-0.03802256440222263,-0.011138073741132393,-0.013714253505226225
1772462348158271500,5.297271484375,-0.0350263051956892,-0.009947694912785663,-0.011217230791412293
1772462348168319500,5.307319580078125,-0.030238486397266385,-0.01023511528572999,-0.004258041036967188
1772462348178367500,5.317367431640625,-0.023210195195674896,-0.015857430413225664,-0.0034947285142727194
1772462348188416500,5.32741650390625,-0.030538346126675605,-0.013525325070694089,-0.0035399741617962717
1772462348198464500,5.337464599609375,-0.030837621334195136,-0.0071180701105855405,-0.000090947952773422
1772462348208512500,5.347512451171875,-0.03517360471189022,-0.003628995018964633,-0.002655172417592257
1772462348218561500,5.3575615234375,-0.023798808738589285,-0.01651582125672139,-0.015860161226429043
1772462348228609500,5.367609619140625,-0.03202653885781765,-0.011483498778473586,-0.0067866644654423
1772462348238657500,5.377657470703125,-0.031578210568428036,-0.010293540075235069,-0.006898636939935386
1772462348248705500,5.38770556640625,-0.040108138504624365,-0.011593982548778876,-0.013200604894664137
1772462348258754600,5.397754638671875,-0.02529576929807663,-0.017447503483109174,-0.007585084834136068
1772462348268802600,5.407802490234375,-0.03247837427854538,-0.014263201758032664,-0.008754877532180398
1772462348278850600,5.4178505859375,-0.03442424764931202,-0.009501229786919429,-0.00828881265670061
1772462348288899300,5.4278994140625,-0.025748189240694046,-0.010284078127145766,-0.010942560302186757
1772462348298947600,5.437947509765625,-0.026643092253804207,-0.006987511666631326,-0.007820409693662076
1772462348308995600,5.44799560546875,-0.01871054568886757,-0.011856524208793415,-0.004446695476863533
1772462348319044600,5.458044677734375,-0.02259820077717304,-0.013542303604958578,-0.010596304147783666
1772462348329092600,5.468092529296875,-0.027385435053706168,-0.014347144581284374,-0.00474074651999399
1772462348339140400,5.478140380859375,-0.02993161240518093,-0.007715908139571547,-0.007651464601233601
1772462348349189600,5.488189697265625,-0.03920855931639671,-0.014890329813584685,-0.013127594457380473
1772462348359237400,5.4982373046875,-0.026933599632978436,-0.01907051984136924,-0.009511321922671049
1772462348369285600,5.50828564453125,-0.017355623948574064,-0.018213017096044493,-0.012240545957162976
1772462348379334400,5.51833447265625,-0.02349018118083477,-0.011678793021710588,-0.011803213985823095
1772462348389382700,5.528382568359375,-0.03770049284100532,-0.010947903197584673,0.0005381254646927118
1772462348399430400,5.538430419921875,-0.04099018203616142,-0.013065306343510746,-0.0048801001917570825
1772462348409479700,5.548479736328125,-0.02946750202476978,-0.013920690196985379,-0.004585263697337359
1772462348419527400,5.55852734375,-0.02677577872276306,-0.011511555829178542,-0.014372808745503425
1772462348429575400,5.568575439453125,-0.028870705175399778,-0.015167192259896546,-0.0019787892596796154
1772462348439624400,5.57862451171875,-0.03545183713138103,-0.014747907401900738,-0.008768339801952242
1772462348449672400,5.58867236328125,-0.03485328671634197,-0.014422639236599206,-0.011484083300363272
1772462348459720700,5.598720703125,-0.030060791742801664,-0.012583815570035949,-0.009540347087755799
1772462348469768400,5.6087685546875,-0.02661854233443737,-0.015209268702799454,-0.003719404115621
1772462348479817700,5.618817626953125,-0.015994856989383698,-0.009965970354992896,-0.012859390241559594
1772462348489865500,5.628865478515625,-0.03066401833295822,-0.016214381491579114,-0.013305289111845194
1772462348499913500,5.63891357421875,-0.035300445961952205,-0.005735210050595924,-0.012185052910260855
1772462348509962500,5.64896240234375,-0.03021510552167892,-0.01470302708055824,-0.0008868475708179175
1772462348520010500,5.659010498046875,-0.025879706665873525,-0.01710907444213517,-0.0007297755792737006
1772462348530058500,5.66905859375,-0.03231704623699188,-0.01444291483964771,-0.00456542648570612
1772462348540107500,5.679107421875,-0.044887189474701876,-0.011953299114154652,-0.006855327521171421
1772462348550155500,5.689155517578125,-0.02917173394858837,-0.011741300331288947,-0.013336615831870584
1772462348560203500,5.69920361328125,-0.0180991357922554,-0.008324797285534442,-0.014118541723489761
1772462348570252500,5.70925244140625,-0.030221535262465474,-0.007241404229309409,-0.01477074028821662
1772462348580300500,5.719300537109375,-0.03426350412964821,-0.015239499444281681,-0.0009254808144643903
1772462348590348500,5.7293486328125,-0.03695756551921368,-0.009646401278115809,-0.0022728585691191255
1772462348600397600,5.7393974609375,-0.027234043884277342,-0.013731359903654082,-0.0008552285898476838
1772462348610445600,5.749445556640625,-0.02513970195353031,-0.012418012282764538,0.0016707462238147854
1772462348620493300,5.759493408203125,-0.0246913736641407,-0.0076119089089799665,-0.003882339592371136
1772462348630542600,5.76954248046875,-0.023792963519692418,-0.008454561145044863,-0.009635368427447975
1772462348640590300,5.77959033203125,-0.029178163689374922,-0.005276104638865217,-0.0031424079452641307
1772462348650638600,5.789638671875,-0.03217325385212898,-0.01716656764987856,0.0017351532295346258
1772462348660687400,5.799687255859375,-0.032169162198901174,-0.013289141694642603,0.0013866503191180526
1772462348670735600,5.809735595703125,-0.031124621582031248,-0.014026105066528544,-0.006800218066759407
1772462348680783600,5.81978369140625,-0.02454115153849125,-0.009590067980997263,-0.010218629941809922
1772462348690832600,5.82983251953125,-0.023790625432133672,-0.0009342395096551626,-0.010909735744819045
1772462348700880600,5.839880615234375,-0.019450550401210784,-0.011343916777847334,-0.009220540548861025
1772462348710928100,5.84992822265625,-0.031571780827641484,-0.008624931009579449,-0.00858030641656369
1772462348720976400,5.859976318359375,-0.026035189488530158,-0.011406287090107797,-0.005883486814331263
1772462348731025200,5.870025146484375,-0.028881226569414137,-0.013323482355661689,0.0012172485689632593
1772462348741073400,5.880073486328125,-0.027087913411855697,-0.01288086228785105,-0.007644340740703046
1772462348751121400,5.890121337890625,-0.03471826215982437,-0.011542179296305402,-0.0032228893029503524
1772462348761170400,5.90017041015625,-0.02139993090331554,-0.006021497912378981,-0.011550170806515962
1772462348771218200,5.91021826171875,-0.02767711147665977,-0.011707991716731338,-0.0062428947112523015
1772462348781266200,5.92026611328125,-0.028722821137309073,-0.01398797414638102,-0.0020561836111359297
1772462348791315200,5.930315185546875,-0.03815115921795368,-0.013414412042126058,-0.0055457792925648385
1772462348801363200,5.94036328125,-0.028726328268647194,-0.007821039881324396,0.0001914309188723564
1772462348811411500,5.950411376953125,-0.028431144714355466,-0.01455667741242796,-0.0012985153779387472
1772462348821460200,5.960460205078125,-0.028279169023036954,-0.010498387598106637,-0.010038761596567929
1772462348831508200,5.97050830078125,-0.03501286119222641,-0.012678964773891493,-0.0085338003937155
1772462348841556200,5.98055615234375,-0.03485913193523884,-0.015220210221922024,-0.00614736191490665
1772462348851605200,5.990605224609375,-0.02722936770915985,-0.01121771484860219,-0.0018285671340301632
1772462348861653200,6.0006533203125,-0.014207973572611807,-0.007880743312463164,-0.010392963595408946
1772462348871701200,6.010701171875,-0.012865326792001723,-0.004363209311338142,-0.007274922906421124
1772462348881750300,6.020750244140625,-0.032168577677011485,-0.016510067369369788,-0.003992047044541687
1772462348891798300,6.03079833984375,-0.04473872091472149,-0.014108522652974352,-0.011584200940281153
1772462348901846300,6.04084619140625,-0.03665945935547352,-0.008093929405417293,-0.013273286538384855
1772462348911895300,6.050895263671875,-0.03366787632405758,-0.017218754494842142,-0.012251907601393759
1772462348921943300,6.060943359375,-0.02798281642496586,-0.005755111194308847,-0.010075184616819024
1772462348931991300,6.0709912109375,-0.02334112809896469,-0.0059518210764974355,-0.007745773554872721
1772462348942040300,6.081040283203125,-0.035163667839765544,-0.011247863391693681,-0.006603270722553133
1772462348952088300,6.09108837890625,-0.03920388314127922,-0.010207496626442297,-0.005712678558379411
1772462348962136300,6.10113623046875,-0.027529811960458755,-0.011012511132704093,-0.009076054044254123
1772462348972185300,6.111185302734375,-0.03276712809205055,-0.014242697826121002,0.00031169629767537115
1772462348982233300,6.1212333984375,-0.017655483677983284,-0.016623592480132357,-0.0036255883523263034
1772462348992281000,6.131281005859375,-0.0267827929854393,-0.008342743934178724,-0.0074362144153565166
1772462349002329300,6.141329345703125,-0.03530746022462845,-0.004576751597318798,-0.009827767460700123
1772462349012378000,6.151378173828125,-0.026629648250341413,-0.00769503888147883,0.0010640490349382162
1772462349022426400,6.16142626953125,-0.026333295652270317,-0.016654946599621325,0.005625950122997165
1772462349032474400,6.171474365234375,-0.02304536002278328,-0.009321626303158699,-0.008388090046402067
1772462349042523400,6.1815234375,-0.04115092555582523,-0.013680899224895984,-0.009380608215089887
1772462349052571400,6.1915712890625,-0.02708908245563507,-0.016365462133754043,-0.0021470402323640883
1772462349062619100,6.201619140625,-0.019760347002744674,-0.00542815339541994,-0.01826789822159335
1772462349072668400,6.21166845703125,-0.030981413719058035,-0.012031177522800862,-0.012831113995146005
1772462349082716200,6.221716064453125,-0.027242227190732955,-0.014760109296347945,-0.007766524081956595
1772462349092764400,6.231764404296875,-0.031278935360908505,-0.004474953456968069,-0.009017145197559147
1772462349102813200,6.241813232421875,-0.030983167284727095,-0.011108089594822377,-0.0071613429967314
1772462349112861400,6.251861328125,-0.03038812400102615,-0.008200796446530148,-0.0023065051103942093
1772462349122909200,6.2619091796875,-0.03337853798866272,-0.004709154938487336,-0.006255388866644352
1772462349132958200,6.271958251953125,-0.030832360637187955,-0.00854446791820228,-0.0015201222393661736
1772462349143006200,6.282006103515625,-0.019607202267646787,-0.014771087348088621,-0.007121814703941345
1772462349153054200,6.29205419921875,-0.026789807248115537,-0.016889285078458487,-0.024578012950159607
1772462349163103200,6.302103271484375,-0.028287352329492567,-0.015508543910318985,-0.004120185202546417
1772462349173151200,6.312151123046875,-0.038919220981001854,-0.010598130778688937,-0.000008713029418140649
1772462349183199200,6.32219921875,-0.025450083076953886,-0.008614720142818987,-0.00531065536243841
1772462349193248300,6.332248291015625,-0.02604512636065483,-0.00937188605251722,-0.005206044210493564
1772462349203296300,6.342296142578125,-0.03128185797035694,-0.0063476337273605165,0.0005121690395288169
1772462349213344300,6.35234423828125,-0.0344248321712017,-0.004096959590585902,-0.007082596938405185
1772462349223393300,6.362393310546875,-0.03307692469358444,-0.005801471086684614,-0.00821967467693612
1772462349233441300,6.372441162109375,-0.028434651845693586,-0.008628520339308306,-0.00521296714162454
1772462349243489300,6.3824892578125,-0.019905308431386947,-0.005739657896850258,-0.007239614131022244
1772462349253538300,6.392538330078125,-0.028140052813291547,-0.014238021651003508,-0.0054140244053676725
1772462349263586300,6.40258642578125,-0.038466801038384436,-0.010506433907244353,-0.008727752063237131
1772462349273634300,6.41263427734375,-0.03188099290728569,-0.0046368842867203055,-0.01449354904834181
1772462349283682300,6.422682373046875,-0.020659926190972327,-0.012541547330887987,-0.01708292622072622
1772462349293731300,6.4327314453125,-0.02021101337969303,-0.01166471883058548,-0.013051935405284166
1772462349303779300,6.442779296875,-0.027543255963921546,-0.015195751634100451,-0.003306950857210904
1772462349313827300,6.452827392578125,-0.03352992915809154,-0.007138007786916568,-0.005896328029595315
1772462349323876400,6.46287646484375,-0.032032384076714514,-0.01355519961914979,0.0011937032965943218
1772462349333924400,6.47292431640625,-0.03592296177446842,-0.01091159890834242,0.0010169219575822354
1772462349343972000,6.48297216796875,-0.03442775478065014,-0.012724128223024309,-0.0026137809612788256
1772462349354021400,6.493021484375,-0.03248772662878036,-0.014085607568267731,-0.0020556904207915064
1772462349364069000,6.503069091796875,-0.037727380847930904,-0.0055316868351306765,-0.01678492965484038
1772462349374117400,6.513117431640625,-0.02276946569085121,-0.011325705267721786,-0.006936594330146908
1772462349384166100,6.523166259765625,-0.03399111692905426,-0.011108610184630378,-0.012027067603264004
1772462349394214400,6.53321435546875,-0.0444593194514513,-0.011432745838770643,-0.006875694455765188
1772462349404262400,6.543262451171875,-0.04221007921993732,-0.0035844069585669784,-0.001354154555313289
1772462349414311200,6.553311279296875,-0.031284780579805375,-0.012693778750533237,-0.007417217453941702
1772462349424359400,6.563359375,-0.019460487273335457,-0.006527145879575982,-0.005568027656991034
1772462349434407200,6.5734072265625,-0.026046295404434202,-0.008987699907366186,-0.010134550121240317
1772462349444456400,6.58345654296875,-0.04041559701859951,-0.004982692916551605,0.0009512911091558634
1772462349454504200,6.593504150390625,-0.03712240069210529,-0.0057058743582572785,-0.007723634788300841
1772462349464552200,6.60355224609375,-0.03502455163002014,-0.006091366544505581,-0.003769636465515941
1772462349474601200,6.613601318359375,-0.028292613026499748,-0.012225576716894284,-0.009350742799788713
1772462349484649200,6.623649169921875,-0.020961539486050604,-0.012714072619890793,-0.005828359093610197
1772462349494697200,6.633697265625,-0.0266477684289217,-0.0108741621079389,-0.0035567974324338136
1772462349504746200,6.643746337890625,-0.03158288674354553,-0.003920424846746027,-0.005577252143062651
1772462349514794200,6.653794189453125,-0.026195348486304282,-0.006456062537897378,-0.0049577502715401345
1772462349524842200,6.66384228515625,-0.027844284737110137,-0.014022753198817371,-0.004893306733202189
1772462349534891300,6.673891357421875,-0.02559972068071365,-0.006754479228891432,-0.005162698259111494
1772462349544939300,6.683939208984375,-0.03382920436561108,-0.009928615752980112,-0.012183975198026746
1772462349554987300,6.6939873046875,-0.03966507091224193,-0.010584111386490985,-0.01230794863756746
1772462349565036300,6.704036376953125,-0.028888240832090375,-0.007120590861234814,-0.013853461046516894
1772462349575084300,6.714084228515625,-0.024247137027978895,-0.008209472943330184,-0.0073416679996997115
1772462349585132300,6.72413232421875,-0.030233810222148893,-0.005316126121999696,-0.010033446100633591
1772462349595181300,6.734181396484375,-0.026639585122466086,-0.0016479681364260613,-0.0032659064607694745
1772462349605229300,6.744229248046875,-0.03352349941730499,-0.013398474687477574,-0.006406560840364545
1772462349615277300,6.75427734375,-0.029030864173173902,-0.011926548104546963,-0.0015131079766899347
1772462349625325300,6.7643251953125,-0.03665945935547352,-0.000030285540409386158,0.0005085705766454338
1772462349635374300,6.774374267578125,-0.03157061178386211,-0.00820264134374447,-0.005230228803679347
1772462349645422300,6.78442236328125,-0.026482933256030083,-0.0180603198855184,-0.01374506876859814
1772462349655470300,6.79447021484375,-0.021096564042568204,-0.005912813373515382,-0.01002581078344956
1772462349665519400,6.804519287109375,-0.026478841602802276,-0.0004227919893339276,-0.0024380956008099018
1772462349675567400,6.8145673828125,-0.02962006223797798,-0.005411165728000923,0.0004250387453474104
1772462349685615400,6.824615478515625,-0.015259528452157974,-0.005929134320653975,-0.0067375280940905205
1772462349695664000,6.8346640625,-0.033820436537265776,-0.0073843928965739904,-0.007774195931758731
1772462349705713000,6.844712890625,-0.04025777610838413,-0.013008991312701255,-0.00042352264169603584
1772462349715760600,6.8547607421875,-0.03173310886919498,-0.00782370676244609,-0.008483732440602033
1772462349725810000,6.864809814453125,-0.023351064971089363,-0.007438378972979262,-0.005091459653805941
1772462349735857700,6.874857666015625,-0.031283027014136315,-0.007064778153924271,-0.003061269000452012
1772462349745906000,6.884906005859375,-0.034275779089331625,-0.005449954235274344,-0.002916599832754582
1772462349755954700,6.89495458984375,-0.030239070919156074,-0.006355826166970655,-0.004685436136182397
1772462349766003000,6.9050029296875,-0.038919805502891536,-0.006994233668362722,-0.006806392079219222
1772462349776050700,6.91505078125,-0.0300941094905138,-0.0019222641663160173,-0.008702982948161662
1772462349786099700,6.925099609375,-0.030246085181832312,-0.0055846043324563645,-0.003377495342772454
1772462349796147700,6.935147705078125,-0.03863046716749668,-0.0019764055063482373,-0.0021280067383311688
1772462349806195700,6.94519580078125,-0.03653612523674965,-0.005860672194324433,-0.0012478081040084362
1772462349816244700,6.95524462890625,-0.03055237465202808,-0.008988531024428084,-0.004096420734468848
1772462349826292700,6.965292724609375,-0.036089550513029096,-0.006912446269579231,-0.01610175142996013
1772462349836340700,6.9753408203125,-0.04566343454420566,-0.0046333680222276595,-0.014649926920142024
1772462349846389800,6.9853896484375,-0.06107201607823372,-0.008982557941367849,-0.004792440174613148
1772462349856437800,6.995437744140625,-0.0498445196211338,0.000515146447904408,-0.009141520495899022
1772462349866485800,7.00548583984375,-0.02171031202673912,-0.0037214042764622717,-0.007287782387994229
1772462349876534800,7.01553466796875,-0.03607376842200756,-0.005321934808278456,-0.00006002309154719114
1772462349886582800,7.025582763671875,-0.06225567290484905,-0.014144525548117234,0.0013903949124738574
1772462349896630800,7.035630859375,-0.07332651749551296,-0.015294079175731166,-0.0013892258686944842
1772462349906679800,7.0456796875,-0.034112697482109065,-0.008223117876192555,-0.004269092153944075
1772462349916727800,7.055727783203125,-0.007619242832064628,-0.005426975218486041,0.0011571341458708048
1772462349926775800,7.06577587890625,-0.01943418378829956,-0.009513194219348951,0.0007638605119660496
1772462349936824800,7.075824951171875,-0.06207388659715652,-0.02014672510498203,0.0008000643365085124
1772462349946872800,7.085872802734375,0.009753916773200035,-0.004493201499711722,0.018771390764322132
1772462349956920800,7.0959208984375,-0.019263503396511075,-0.008675437354110182,-0.0008597038355655968
1772462349966969900,7.105969970703125,-0.21932254988253116,-0.02531497632204555,0.009921765887085347
1772462349977017900,7.116017822265625,0.2734358328640461,-0.013529617653321474,-0.03621080227252096
1772462349987065900,7.12606591796875,0.01142681842148304,0.01783098637536168,-0.02197623295392841
1772462349997114600,7.136114501953125,-0.5149620312482118,-0.0018393625226803122,0.04661123678833246
1772462350007163000,7.146162841796875,-0.40868367674350736,-0.03862280445084907,0.010406681593507527
1772462350017210600,7.156210693359375,0.3570166178703308,-0.0011297712149098515,-0.034455209043156354
1772462350027259000,7.1662587890625,0.7147738249748945,0.007216726445779204,-0.04439867530539632
1772462350037307600,7.1763076171875,0.12294482714533805,0.013258015904016792,-0.004659826770890504
1772462350047356000,7.18635595703125,-0.6940624608576297,-0.006232966972282156,-0.01620124801537022
1772462350057404000,7.19640380859375,-0.37022915066480633,0.002382474689744413,-0.0005180690573528409
1772462350067452700,7.20645263671875,0.4060790472030639,-0.004614973849011585,0.0010960698747076094
1772462350077501000,7.2165009765625,0.46532034072279926,-0.016978662128653375,0.005073248143680394
1772462350087548700,7.226548583984375,-0.24590777446925638,-0.03319267829405144,-0.004796002104878425
1772462350097598000,7.236597900390625,-0.5275140543073416,-0.01593005725801922,-0.0019913930129259825
1772462350107645700,7.246645751953125,-0.03489946394562721,0.015275885931914672,-0.016369736450072378
1772462350117693700,7.256693603515625,0.4159451921790838,0.024648274307930842,-0.026224939906969665
1772462350127742700,7.26674267578125,0.1250426762074232,-0.008392026436002925,-0.0052182826375588775
1772462350137790700,7.276790771484375,-0.3594815466791391,-0.03261430301736109,-0.00028763956865295764
1772462350147838700,7.286838623046875,-0.27896716350615025,-0.010479509367700665,0.002310322768986225
1772462350157887700,7.2968876953125,0.16829846508800983,0.011132593848416581,-0.003099920510407537
1772462350167935700,7.306935791015625,0.25867197897434235,0.0019295341573189943,0.002197290848568082
1772462350177983700,7.316983642578125,-0.10300094026923179,-0.024543608357058835,-0.00657861120533198
1772462350188032800,7.32703271484375,-0.3032055327057838,-0.01991481604524888,-0.02647259452510625
1772462350198080800,7.337080810546875,-0.052713353055715555,0.013220040247496217,-0.01935952938320115
1772462350208128800,7.347128662109375,0.21108897454440592,0.02513254156038165,-0.006153554193675518
1772462350218177800,7.357177734375,0.0876332752674818,-0.012628065703716128,0.002832373881712556
1772462350228225800,7.367225830078125,-0.20954291414618492,-0.04594983200384304,0.006141187902446836
1772462350238273800,7.377273681640625,-0.19532500370144842,-0.026035618746792895,-0.004254113780520856
1772462350248322800,7.38732275390625,0.08464169223606587,0.00838086572117172,0.006049417965766042
1772462350258370800,7.397370849609375,0.15271978768408298,0.012895868060737848,0.003755571407545358
1772462350268418800,7.407418701171875,-0.05931786588728428,-0.01452956107663922,-0.00392625179933384
1772462350278467800,7.4174677734375,-0.20640695420801639,-0.02161289780056104,-0.008680332724936306
1772462350288515800,7.427515869140625,-0.0639478637754917,0.000155574154201895,-0.008058182238601148
1772462350298563800,7.437563720703125,0.09795710088312626,0.0276489448281005,-0.003485796289145946
1772462350308612900,7.44761279296875,0.04962123225927353,0.007570024262322113,-0.00027233240166679024
1772462350318660900,7.457660888671875,-0.12979367012679577,-0.02695772942723706,-0.004715064089465886
1772462350328708900,7.467708984375,-0.13233517130315303,-0.02565463833888061,-0.013447985518164932
1772462350338757600,7.477757568359375,0.03391454456150531,0.0017085574835538863,-0.00871978795249015
1772462350348805600,7.4878056640625,0.08104863618016242,0.01775473366822116,0.00038655163217335935
1772462350358854000,7.49785400390625,-0.03701835579574108,-0.012264191694231702,-0.01000948070315644
1772462350368902700,7.507902587890625,-0.14550561852157115,-0.028351384875876826,-0.004107398786209524
1772462350378951000,7.517950927734375,-0.06769114195704459,-0.008917621212685481,-0.005026175865251571
1772462350388998700,7.52799853515625,0.0647328766733408,0.008187462040921674,0.0036834012204781173
1772462350399048000,7.5380478515625,0.027623919984698295,0.012970248471200466,-0.013185955314803868
1772462350409095700,7.548095703125,-0.09822013573348522,-0.005769441113760695,-0.02243225135942921
1772462350419143700,7.558143798828125,-0.09776888483464717,-0.01555768941482529,-0.0018706344437785447
1772462350429192700,7.568192626953125,0.019549334600567816,-0.001206316182995215,0.0003027275399304926
1772462350439240700,7.57824072265625,0.06429039360284805,0.0007571202439256012,-0.005690740721207112
1772462350449289000,7.5882890625,-0.05002630592882633,-0.011827170250145718,-0.003891509279515594
1772462350459337700,7.598337646484375,-0.1255915422618389,-0.02278628896148875,0.008883581945765762
1772462350469386000,7.608385986328125,-0.03715454939603805,-0.016230684172408655,-0.006831215993221848
1772462350479433700,7.618433837890625,0.043349312382936475,-0.00006821553115732968,-0.015604688628017902
1772462350489482800,7.628482666015625,0.006239771172404289,0.013872759402031079,-0.00244503679824993
1772462350499530800,7.63853076171875,-0.09416355381906032,0.005210428124666214,-0.010115717556606977
1772462350509578800,7.648578857421875,-0.09296703751087187,-0.013586855132738128,-0.013702325605414806
1772462350519627800,7.658627685546875,0.0017500585377216338,-0.012433593444386496,-0.009906970176752657
1772462350529675800,7.66867578125,0.03885726166069507,-0.0041759887767024335,0.00047751785125583405
1772462350539723800,7.678723876953125,-0.04209668197333812,-0.006749355529202148,0.01249333340814337
1772462350549772800,7.688772705078125,-0.09791033913195132,-0.02005379525767639,0.011777969946712255
1772462350559820800,7.69882080078125,-0.04014613242745399,-0.016517273428291082,-0.0026047756709158417
1772462350569868800,7.708868896484375,0.027037060007452964,-0.009313790056575089,-0.004120550528727471
1772462350579916800,7.718916748046875,-0.003787701845169067,-0.0016426983062643556,-0.0015957264925353229
1772462350589965800,7.7289658203125,-0.082200144302845,-0.004138424112135544,-0.004393229990266263
1772462350600013800,7.739013916015625,-0.06498889726102351,-0.009046754884533584,-0.004898457832355052
1772462350610061800,7.749061767578125,0.018060557347536085,-0.006064862130070105,-0.010668930992577224
1772462350620110800,7.75911083984375,0.021198855373263357,-0.0022932803026400506,-0.0061150305478833615
1772462350630158600,7.76915869140625,-0.031174305942654607,0.0023610391760710624,-0.0032742358976975082
1772462350640206800,7.779206787109375,-0.06693360158801079,-0.0017257734798360614,0.0023880641803145407
1772462350650255600,7.789255615234375,-0.026677579045295715,-0.012619023880735039,0.003382829105015844
1772462350660304000,7.799303955078125,0.0022001403927803037,-0.011083475743373856,0.003013009411934763
1772462350670351600,7.8093515625,-0.013212532794475554,-0.012406166581343858,-0.0011732815630733967
1772462350680401000,7.81940087890625,-0.038947862553596495,-0.0061303103154059495,0.002798562943655997
1772462350690448600,7.82944873046875,-0.07395780113637447,-0.004006998018501326,-0.01052727576587349
1772462350700496600,7.83949658203125,-0.05569909086823463,-0.003444231302896514,-0.02300351190874353
1772462350710546000,7.8495458984375,-0.016944705060124396,0.010869641196448355,-0.007467614200618118
1772462350720594000,7.859593994140625,-0.005423778614401817,0.0000426244321744889,-0.008074749780911952
1772462350730642200,7.86964208984375,-0.0316103592723608,-0.003215427515702322,-0.010172909370250999
1772462350740691000,7.87969091796875,-0.05031038356721401,-0.003326048283325508,-0.0016712576804682612
1772462350750739200,7.8897392578125,-0.02786591204702854,-0.00870509270685725,0.006684537531528621
1772462350760787000,7.899786865234375,0.0023597148686647414,-0.006867538548773154,-0.0027764607097022233
1772462350770836000,7.9098359375,-0.010959785431623459,-0.010547131243813783,-0.0010259455142542719
1772462350780884000,7.919884033203125,-0.06198737735748291,-0.008645252278400585,-0.005108246391825378
1772462350790932000,7.929931884765625,-0.05106500132679939,-0.004502243322692811,-0.007359167123772203
1772462350800981000,7.93998095703125,-0.014105097720026969,-0.006416753440815955,-0.001092233949806541
1772462350811029000,7.950029052734375,-0.013209025663137435,-0.007650286424299701,-0.00998787165954709
1772462350821077000,7.960076904296875,-0.049720600980520245,-0.006288268222939222,-0.000405073669552803
1772462350831126000,7.9701259765625,-0.06692950993478297,-0.00401833226326853,-0.005063219940010458
1772462350841173800,7.980173828125,-0.03356558499336242,-0.009573747033858672,-0.011945855593215673
1772462350851222000,7.990221923828125,-0.0010953940212726592,-0.0005618807996157556,-0.006587141571659594
1772462350861270800,8.000270751953124,0.0009954407781362533,-0.001117952912952751,-0.004467884395364672
1772462350871319000,8.010319091796875,-0.050780339166522026,-0.005458804262010381,-0.0018644056323915718
1772462350881367000,8.020366943359376,-0.04898527244329452,-0.011279089647019281,-0.009060491148941219
1772462350891416000,8.030416015625,-0.012923778980970382,-0.0019506500105839221,-0.0022028803391382096
1772462350901464000,8.040464111328125,-0.012476035213470458,0.004148004791233688,-0.0025431451441720126
1772462350911511800,8.05051171875,-0.04779343231022358,0.003814041862823069,-0.009245200066082178
1772462350921561000,8.06056103515625,-0.060360068416595455,-0.005172543799690902,-0.011239990612491965
1772462350931608800,8.07060888671875,-0.03836626327335834,-0.011513574256328865,0.00814980604480952
1772462350941657000,8.080656982421875,0.005925882917642593,-0.01232945721647702,0.005705006708577275
1772462350951705900,8.090705810546876,-0.01696983950138092,-0.013887025389401241,-0.0015755787536501883
1772462350961754000,8.100754150390625,-0.0458534041583538,-0.013736784997442736,-0.002259341500420123
1772462350971802000,8.110802001953125,-0.050338440617918964,0.002815998135646805,-0.008569693691004068
1772462350981851100,8.12085107421875,-0.02535071435570717,0.0025912768685258923,-0.004754007860366255
1772462350991899100,8.130899169921875,-0.015028057783842086,-0.003642420756118372,-0.014548073980864136
1772462351001947000,8.14094677734375,-0.026405191844701765,-0.009500517400866373,-0.007035816920921206
1772462351011996000,8.150995849609375,-0.03388824107646942,-0.004751085250917822,-0.006291190832387656
1772462351022044000,8.1610439453125,-0.03763151925802231,-0.0013593787197023629,-0.011292835044581442
1772462351032092200,8.171092041015624,-0.034785482177138324,-0.009451655024150386,0.003474946101568639
1772462351042141000,8.181140869140625,-0.02909808419048786,-0.014511623561149462,0.004371346952021122
1772462351052189000,8.19118896484375,-0.02625847685039043,-0.011952805923810228,0.010543660645093768
1772462351062237000,8.20123681640625,-0.03598550561666489,-0.008864110060315579,-0.0035522125888615844
1772462351072286000,8.211285888671876,-0.04391337600648403,-0.002338790811644867,-0.013348342802282422
1772462351082334000,8.221333984375,-0.04121814557313919,-0.000011516907857730984,-0.015551844195928423
1772462351092382000,8.2313818359375,-0.032092589831352235,0.0021963592668063935,-0.01593404844654724
1772462351102431000,8.241430908203125,-0.029097499668598172,0.0035173239385709165,-0.004460340409725904
1772462351112479000,8.25147900390625,-0.03359071943461895,-0.0010714286237955093,-0.0026327413900755344
1772462351122527000,8.26152685546875,-0.031494623938202855,-0.006625455154897645,-0.014523907653987407
1772462351132576000,8.271575927734375,-0.03014554741680622,-0.01157841965346597,0.0023097199807874855
1772462351142624000,8.2816240234375,-0.0162257431358099,-0.00870689193829894,0.005132869376428425
1772462351152672000,8.291672119140625,-0.01712181519269943,-0.007083656384330243,-0.003947732978779823
1772462351162721000,8.301720947265625,-0.031185411858558654,-0.00258144046110101,-0.004050225238874554
1772462351172769000,8.31176904296875,-0.04674363099634647,-0.004503777692653238,-0.00630775837469846
1772462351182817000,8.321817138671875,-0.04120411704778671,-0.0014288546261843292,-0.013856566319055854
1772462351192866000,8.331865966796874,-0.022796353697776793,-0.001401902687177062,-0.012863883753586559
1772462351202914000,8.3419140625,-0.012024199792742728,-0.002325958729535341,-0.003652859951741993
1772462351212961800,8.3519619140625,-0.040458851638436315,-0.0035203287464100866,-0.0037266558403149246
1772462351223011000,8.362010986328125,-0.053776598373055456,-0.010183677359437569,-0.011531849698536097
1772462351233058800,8.372058837890625,-0.02654255448877811,-0.01214043745039962,0.0019196794835850595
1772462351243107000,8.382107177734374,-0.008740940338373185,-0.010016823759395629,-0.002431172669678926
1772462351253155000,8.392155029296875,-0.029392683222889897,-0.010383857840346173,0.0032074725381098686
1772462351263204000,8.4022041015625,-0.04540390682518482,0.001075639008032158,-0.004951941585261375
1772462351273252000,8.412252197265625,-0.02326104860007763,-0.010373382112104444,-0.011271226000972091
1772462351283299800,8.4222998046875,-0.011588730984926222,0.0006823379746638238,-0.010926358086057006
1772462351293349000,8.43234912109375,-0.028499533775448796,0.0024461327767930923,-0.0094434808508493
1772462351303396900,8.44239697265625,-0.03358896586894989,-0.002047598445881158,-0.00976056570969522
1772462351313446100,8.452446044921874,-0.04047814086079597,0.0009104202426504344,-0.007542725263442844
1772462351323494000,8.462493896484375,-0.030756957313418386,-0.010974398478865622,-0.00005346548659726977
1772462351333542000,8.4725419921875,-0.03405073816180229,-0.004980829753028228,-0.004268251903727651
1772462351343590100,8.482590087890625,-0.030161914029717445,-0.005450712287100032,0.0026996691464446485
1772462351353639000,8.492638916015625,-0.03883738791644573,-0.003429736986663192,0.003147540778107941
1772462351363687000,8.50268701171875,-0.036143326526880265,-0.0006193192084319889,0.002409216566197574
1772462351373735000,8.51273486328125,-0.02686287248432636,-0.0027994945254176855,0.004015866311546415
1772462351383784000,8.522783935546874,-0.014594927063584328,0.0017923907089512795,-0.012490666527021676
1772462351393832000,8.53283203125,-0.020730653339624403,-0.008218743095174431,-0.008466068919748068
1772462351403880000,8.5428798828125,-0.02881400655210018,-0.0017408340516500173,-0.014084292394015938
1772462351413929000,8.552928955078125,-0.024324293917417524,-0.006319019554229453,-0.016737181522976607
1772462351423977000,8.56297705078125,-0.020729484295845032,-0.005589463170664385,-0.008246580950170754
1772462351434025000,8.57302490234375,-0.03270224616229534,-0.008850026736035943,-0.0027480383328162133
1772462351444074000,8.583073974609375,-0.04482230754494667,-0.0045470505787990985,0.003723221774213016
1772462351454122000,8.5931220703125,-0.03374737130105495,-0.0054151934491470455,0.005553652071766555
1772462351464170000,8.603169921875,-0.02686287248432636,-0.008088805705728008,-0.0006855528450571
1772462351474219000,8.613218994140626,-0.02686287248432636,-0.000038797640427947044,-0.011723481546808034
1772462351484267000,8.62326708984375,-0.02926233484148979,0.0013333857619203626,-0.007399900992959737
1772462351494315000,8.63331494140625,-0.027916765451431274,0.0004936835347674786,-0.009816880740504711
1772462351504364000,8.643364013671874,-0.02821311804950237,-0.008960583571577444,-0.009534374004695563
1772462351514412000,8.653412109375,-0.020582769301533698,-0.004406016406603157,-0.005316153521463275
1772462351524461000,8.6634609375,-0.024621815559267995,0.0004982683783397078,-0.007527545960620045
1772462351534509000,8.673509033203125,-0.023873043018579482,-0.002374254850670695,-0.0010476276230998336
1772462351544557000,8.68355712890625,-0.029556349352002142,0.0013009265307337046,-0.008409863486792893
1772462351554606000,8.693606201171875,-0.02821370257139206,-0.0036501565380021926,-0.009901563349273055
1772462351564653800,8.70365380859375,-0.036897359764575956,-0.007366035255976021,-0.004506115780211985
1772462351574702000,8.7137021484375,-0.03899170169532299,0.0030112649794202294,0.0006228080734610557
1772462351584750800,8.723750732421875,-0.027621581897139546,0.00033617315180599686,-0.000056589025445282454
1772462351594799000,8.733799072265626,-0.026424481067061422,-0.007865016020368784,-0.004529496655799449
1772462351604846800,8.743846923828125,-0.029119126978516575,-0.0019240359982941298,-0.0014547471192665397
1772462351614896000,8.753896240234376,-0.027774142110347746,-0.005973009994998574,-0.00436053329706192
1772462351624943900,8.76394384765625,-0.029866730475425717,-0.0023293562630191445,-0.009846472161170095
1772462351634991900,8.773991943359375,-0.03285948255062103,0.0017252072242554277,0.004532620194647461
1772462351645041000,8.784041015625,-0.026872224834561347,-0.010790730741340666,-0.0025798969579860567
1772462351655089000,8.7940888671875,-0.029867314997315406,-0.005469252590788528,-0.006116418787371367
1772462351665137200,8.80413720703125,-0.03316168036758899,-0.0030731238350272176,-0.006493435406219214
1772462351675186000,8.81418603515625,-0.031068507480621337,-0.005740041489340365,-0.0043042365325614805
1772462351685234200,8.824234130859375,-0.020443068569898606,-0.005913516626413911,-0.00022741554770618676
1772462351695282000,8.834281982421874,-0.01984510267674923,-0.003044272199878469,-0.0017417291007936
1772462351705331200,8.844331298828125,-0.032112463575601574,0.0036141445097047833,0.004511102482583374
1772462351715379200,8.854379150390624,-0.039893034449219704,-0.004149438696494326,0.0036395986113697287
1772462351725427200,8.86442724609375,-0.032411738783121105,-0.001457368334615603,-0.011946330517251044
1772462351735476200,8.874476318359376,-0.01879354779720306,0.0014184336968697607,-0.009939557272102684
1772462351745524200,8.884524169921875,-0.010712532672286033,-0.0016542060809675602,-0.003369805226661265
1772462351755572200,8.894572265625,-0.024480361261963842,-0.0036316071011591703,-0.0029568587779067457
1772462351765621200,8.904621337890624,-0.026128712990880012,-0.004511349077755585,0.0034022827241569757
1772462351775669200,8.914669189453125,-0.0292705181479454,0.002468563804309815,-0.008728610579762607
1772462351785717200,8.92471728515625,-0.03466273258030415,-0.006963637600699439,-0.005320866229198873
1772462351795765200,8.93476513671875,-0.04109948762953281,-0.0009483228339347987,-0.0013791976650245486
1772462351805814300,8.944814208984376,-0.024784897166490554,0.002665438083279878,-0.007114453381393104
1772462351815862300,8.9548623046875,-0.016405775877833366,0.0021921762820333243,-0.0074039743798784904
1772462351825911300,8.964911376953125,-0.023735680374503135,-0.0011188022963237016,-0.004493311097566038
1772462351835959300,8.974959228515624,-0.03615560148656368,0.0006798172240145504,-0.012670297410245984
1772462351846007300,8.98500732421875,-0.03944762876927852,-0.0020948625205550343,-0.0009818871768191456
1772462351856055300,8.99505517578125,-0.025376433318853378,-0.0005203432128299027,-0.0053147104830481105
1772462351866104000,9.00510400390625,-0.016544892087578773,-0.000729474185174331,-0.003122643798869103
1772462351876152300,9.01515234375,-0.024023849666118622,-0.005757074822532013,-0.0038085254374891518
1772462351886200000,9.025199951171874,-0.029561610049009323,0.0035890374679118393,-0.0012906060661189258
1772462351896249300,9.035249267578125,-0.04093348341286182,-0.0004166362431831658,-0.007080295383464544
1772462351906297000,9.045297119140624,-0.027914427363872528,-0.0009327508054673672,-0.004642345913127064
1772462351916345000,9.055344970703125,-0.030153730723261832,0.000019398820213973522,-0.007600337202195078
1772462351926394000,9.06539404296875,-0.03539280042052269,-0.004796888020867481,-0.005577142545208334
1772462351936442000,9.075442138671875,-0.024319617742300032,0.005729556627944112,-0.005700421865005046
1772462351946490400,9.085490478515625,-0.0340460619866848,0.005291576202632859,-0.0016942549635656178
1772462351956539100,9.0955390625,-0.024168226572871206,0.00120587779157795,-0.003948956821486354
1772462351966587400,9.10558740234375,-0.01818330694437027,-0.0026709910412319004,-0.004559946592990308
1772462351976635100,9.11563525390625,-0.01922667851746082,-0.007531272287666797,-0.0022061134758405384
1772462351986684400,9.125684326171875,-0.030750527572631834,-0.003364325333945453,-0.009006404607836157
1772462351996732200,9.135732177734376,-0.030600305446982383,-0.005605345726385712,0.002397361731622368
1772462352006781400,9.145781494140625,-0.027006664869189262,-0.006851089737471193,-0.0029251484653912484
1772462352016829200,9.1558291015625,-0.035383448070287704,-0.011887887461436911,-0.00615687866192311
1772462352026877200,9.165877197265624,-0.02326046407818794,0.0000565616259817034,0.00020032661138102411
1772462352036925400,9.175925537109375,-0.030743513309955596,0.001666207046015188,-0.006981602515652776
1772462352046974200,9.18597412109375,-0.02640577636659145,-0.01124315981711261,-0.00570233982745558
1772462352057022200,9.196022216796875,-0.02446341012716293,-0.011127424482954666,-0.007763345744181424
1772462352067070200,9.2060703125,-0.034493805754184724,0.00027404943471774455,-0.00557582737095654
1772462352077119200,9.216119140625,-0.029410218879580497,-0.005031153434468433,-0.007618146853521465
1772462352087167200,9.226167236328125,-0.026115853509306907,-0.005727337271394207,-0.0039449382334947585
1772462352097216300,9.23621630859375,-0.014891279661655425,-0.0014521076376084237,-0.009881360811460762
1772462352107264300,9.24626416015625,-0.030305706414580344,-0.005622945315157994,-0.005743402490206062
1772462352117312300,9.256312255859376,-0.04047872538268566,-0.006043472282169386,-0.01557754489276558
1772462352127360300,9.2663603515625,-0.030153730723261832,-0.005982079217443243,-0.009424867481924592
1772462352137409300,9.2764091796875,-0.022673604100942612,-0.009668293449515477,0.004303725075908005
1772462352147457000,9.28645703125,-0.02267185053527355,-0.008977589505305514,0.001791139466781169
1772462352157505300,9.29650537109375,-0.03299684519469738,-0.004418976352876052,0.001374576288834214
1772462352167554000,9.306553955078124,-0.031498715591430665,-0.0067250065392348915,0.0018626885993406176
1772462352177602300,9.316602294921875,-0.02775952906310558,-0.0070132854287046935,0.0010511712870560587
1772462352187650300,9.326650390625,-0.024912322938442227,-0.0022456600349396467,-0.00540226090233773
1772462352197699300,9.33669921875,-0.02820493474304676,-0.004797490809066221,-0.012348024919629096
1772462352207747300,9.346747314453125,-0.032393618604540826,-0.0015278123554773627,-0.00048743645707145333
1772462352217795000,9.356795166015624,-0.03508125025331974,-0.0015487455456517636,-0.0027470884847454725
1772462352227844400,9.36684423828125,-0.03882277486920357,0.001640762077504769,-0.006086023649107665
1772462352237892000,9.37689208984375,-0.024155951613187787,-0.016922995551815256,-0.005567041276302189
1772462352247940400,9.3869404296875,-0.017570728003978728,-0.01155192437218502,-0.00012554434211924673
1772462352257989000,9.396989013671876,-0.04135784630477428,-0.004138597642071545,-0.007600848658848553
1772462352268037400,9.407037353515625,-0.04360474844872951,0.001484676466649398,-0.005609327781759202
1772462352278085000,9.417085205078125,-0.019514263287186622,-0.010844214494246988,-0.0050350715577602385
1772462352288134400,9.427134521484374,-0.02625029354393482,-0.0015466449201107025,-0.006349789151828736
1772462352298182100,9.43718212890625,-0.03253215029239654,-0.004458212384721264,-0.004171860590856522
1772462352308230100,9.447230224609376,-0.03836918588280678,-0.010682329330267384,-0.0045258616602979595
1772462352318279200,9.457279052734375,-0.03372749755680561,-0.011478639940265566,-0.010092482811491936
1772462352328327200,9.4673271484375,-0.03342588426172733,-0.00011921506603248417,-0.002783511504996568
1772462352338375400,9.47737548828125,-0.04449497528672218,-0.008861315315030515,-0.011827855236735194
1772462352348424200,9.487424072265625,-0.03013210341334343,-0.006677249274216592,-0.008889372365735471
1772462352358472400,9.497472412109374,-0.020706687942147254,-0.00985129446676001,-0.0012886881036683917
1772462352368521200,9.507521240234375,-0.03896013751327991,-0.007227412236575037,-0.009723229373991489
1772462352378569200,9.5175693359375,-0.02564823599755764,-0.0007466810483019798,-0.014991689562518149
1772462352388617200,9.5276171875,-0.02145370691716671,-0.004719219674775376,-0.009113408646266906
1772462352398665200,9.537665283203125,-0.032224691778421403,-0.004152324773324653,0.0028397534705698487
1772462352408714200,9.54771435546875,-0.0422504112303257,-0.011026530524902045,-0.001656114910263568
1772462352418762200,9.55776220703125,-0.028938509714603423,-0.007802006387291476,-0.004925674632843584
1772462352428810200,9.567810302734374,-0.0038069910675287244,0.0020880400541238484,-0.008731350526120512
1772462352438859300,9.577859375,-0.022518705800175665,-0.0034518483537714926,-0.004137830457091331
1772462352448907300,9.5879072265625,-0.06232347744405269,-0.007728475360199809,-0.0006120857500471175
1772462352458955300,9.597955322265625,-0.05753332055807113,-0.0057576410781126465,-0.005220657257735729
1772462352469004000,9.608004150390625,-0.007999766582250595,-0.004903408002108335,0.005709956878330558
1772462352479052300,9.61805224609375,-0.01727262184023857,-0.009101763874245807,-0.005705426833685487
1772462352489100300,9.628100341796875,-0.03402560372054576,-0.0002459467182401568,-0.010453041485883295
1772462352499149300,9.6381494140625,-0.0531733717828989,-0.0014138397201430052,-0.006360073083825409
1772462352509197300,9.648197265625,-0.008729249900579453,0.0029350396717432886,-0.014983031332027167
