time,seconds_elapsed,z,y,x
1772462342928132000,0.067132080078125,-0.007468569092452526,0.006118346471339464,0.0027747475542128086
1772462342938180000,0.07718017578125,-0.008715194649994373,0.00788561999797821,0.003257578704506159
1772462342948228000,0.08722802734375,-0.0073567163199186325,0.007849400863051414,0.0009017463307827711
1772462342958276000,0.097276123046875,-0.009139702655375004,0.008213188499212265,0.0024533038958907127
1772462342968325000,0.1073251953125,-0.009070727042853832,0.005375590641051531,0.0024700819049030542
1772462342978373000,0.117373046875,-0.007315170951187611,0.005055212415754795,0.0025808694772422314
1772462342988421000,0.127421142578125,-0.00797563511878252,0.008893893100321293,0.0032522522378712893
1772462342998470100,0.13747021484375,-0.00788535363972187,0.008532768115401268,0.0024461133871227503
1772462343008518100,0.14751806640625,-0.007101318798959255,0.0071753547526896,0.004772118292748928
1772462343018566100,0.157566162109375,-0.009337308816611767,0.004087686073035002,0.001261273049749434
1772462343028614100,0.1676142578125,-0.008335161954164505,0.008349276147782803,0.0033332123421132565
1772462343038663200,0.1776630859375,-0.007835020311176777,0.006167348474264145,0.00046818371629342437
1772462343048711200,0.187711181640625,-0.006765494588762522,0.009788448922336102,0.0020623519085347652
1772462343058759200,0.19775927734375,-0.007214237004518509,0.0048887645825743675,0.0021667478140443563
1772462343068808200,0.20780810546875,-0.006951915565878153,0.009919475764036179,0.0016937704058364034
1772462343078856000,0.21785595703125,-0.009073123335838318,0.006681338418275118,0.0011049455497413874
1772462343088904200,0.227904296875,-0.007509848102927208,0.0063066319562494755,0.0023398532066494226
1772462343098952000,0.237951904296875,-0.0060182115994393826,0.007366303354501724,-0.00009134642459684983
1772462343109001200,0.248001220703125,-0.007170028518885374,0.006178533658385277,-0.0010871023405343294
1772462343119049000,0.258049072265625,-0.010128001682460308,0.006840062793344259,-0.00005752427750849165
1772462343129097200,0.26809716796875,-0.008882441557943821,0.00680118054151535,0.000657534459605813
1772462343139145200,0.278145263671875,-0.009862750768661499,0.0070312777534127235,0.0025981799699366093
1772462343149194000,0.288194091796875,-0.011984490789473057,0.006013151258230209,0.004397145472466946
1772462343159242200,0.2982421875,-0.00885074958205223,0.006081860978156328,0.0014889733865857124
1772462343169290000,0.3082900390625,-0.00634950865060091,0.005117530468851328,0.00170788518153131
1772462343179339300,0.31833935546875,-0.009866212494671345,0.007420632056891918,0.002513491315767169
1772462343189387000,0.328386962890625,-0.009893643669784069,0.009134642779827118,0.00166607357095927
1772462343199435000,0.33843505859375,-0.009912285953760147,0.009315204806625843,0.0010695254895836115
1772462343209483300,0.348483154296875,-0.006199839059263468,0.0073194317519664764,-0.0013432984706014395
1772462343219532000,0.358531982421875,-0.008921323344111443,0.006215285509824753,0.002377403900027275
1772462343229580300,0.368580322265625,-0.009344765916466713,0.008567122742533684,0.002317482838407159
1772462343239628000,0.3786279296875,-0.008886968716979027,0.008533567190170288,0.0018194715958088636
1772462343249677000,0.388677001953125,-0.006425408646464348,0.003920439630746841,0.002942260354757309
1772462343259725000,0.39872509765625,-0.010158894583582878,0.007506652269512415,0.004642955027520657
1772462343269773000,0.40877294921875,-0.008745821192860603,0.008585498668253422,0.002234392100945115
1772462343279822000,0.418822021484375,-0.009609484113752842,0.008258196525275707,0.0038360171020030975
1772462343289870000,0.4288701171875,-0.008215585723519325,0.006106362212449312,0.0037015276029706
1772462343299918000,0.43891796875,-0.007081078831106424,0.006073871627449989,0.0011739213950932026
1772462343309966000,0.448966064453125,-0.00881186779588461,0.007950867526233196,0.003468234557658434
1772462343320015000,0.45901513671875,-0.0062246061861515045,0.009366869926452637,0.0035606464371085167
1772462343330063000,0.46906298828125,-0.010001767426729202,0.00896926037967205,0.0017896442441269755
1772462343340111000,0.479111083984375,-0.006938067264854908,0.007931159809231758,0.0026343988720327616
1772462343350159000,0.4891591796875,-0.009737581945955753,0.007363107521086931,0.0025869945529848337
1772462343360208100,0.4992080078125,-0.009022523649036884,0.007016896735876799,0.0014650048688054085
1772462343370256100,0.509256103515625,-0.009133310988545418,0.006130330264568329,0.0030631679110229015
1772462343380304100,0.51930419921875,-0.008464591577649117,0.006895722821354866,-0.0005906891310587525
1772462343390353200,0.529353271484375,-0.00737189594656229,0.005864280741661787,0.00038163099088706076
1772462343400401200,0.539401123046875,-0.007768707349896431,0.006944192573428154,-0.0000029294772048160667
1772462343410449200,0.54944921875,-0.008740228600800037,0.0086643286049366,0.0019201391842216253
1772462343420497200,0.5594970703125,-0.009015066549181938,0.005000350996851921,0.001986984396353364
1772462343430546000,0.5695458984375,-0.007029413711279631,0.007486145943403244,0.004210457671433687
1772462343440594200,0.57959423828125,-0.008263256400823593,0.007023821119219065,0.0010093380697071552
1772462343450642200,0.58964208984375,-0.00803475733846426,0.008596950210630894,0.0010540791554376483
1772462343460691200,0.599691162109375,-0.009210809133946896,0.007821970619261265,0.0018676748732104897
1772462343470739200,0.6097392578125,-0.008593488484621048,0.006318083498626947,0.0029579729307442904
1772462343480787000,0.619786865234375,-0.009081912226974964,0.005864813458174467,0.0026791400741785765
1772462343490835200,0.629835205078125,-0.007983357645571232,0.008846488781273365,0.0016405072528868914
1772462343500884000,0.639884033203125,-0.008593754842877388,0.007016896735876799,0.0027513117529451847
1772462343510932200,0.64993212890625,-0.009068596176803112,0.007391870021820068,0.003284476464614272
1772462343520980200,0.659980224609375,-0.008285094052553177,0.008192416280508041,0.002628007438033819
1772462343531029200,0.670029296875,-0.008642223663628101,0.0073449984192848206,0.0012945625931024551
1772462343541077200,0.6800771484375,-0.011093397624790668,0.007496532052755356,0.004151335451751947
1772462343551125000,0.690125,-0.00936181005090475,0.008565258234739304,0.002031725598499179
1772462343561173200,0.70017333984375,-0.006077333353459835,0.005109540652483702,0.0015078817959874868
1772462343571222000,0.710221923828125,-0.007778028026223183,0.008619054220616817,0.005634982604533434
1772462343581270300,0.720270263671875,-0.007863249629735947,0.007280283607542515,0.003739610780030489
1772462343591318000,0.730318115234375,-0.00842411071062088,0.0070672305300831795,0.005642172880470753
1772462343601367000,0.740366943359375,-0.006413957104086876,0.009405752643942833,0.0011672634864225984
1772462343611415000,0.7504150390625,-0.00839694682508707,0.007482417393475771,0.0016626114957034588
1772462343621463000,0.760463134765625,-0.007287740241736174,0.007049920037388802,-0.00021971078240312636
1772462343631511300,0.77051123046875,-0.007510913070291281,0.007102384231984615,0.0010815097484737635
1772462343641560000,0.78056005859375,-0.007179349660873413,0.008902414701879025,-0.00036378781078383327
1772462343651608000,0.790608154296875,-0.009063269942998886,0.007626760751008987,0.002656503114849329
1772462343661656000,0.800656005859375,-0.006716758478432894,0.007831557653844357,0.0004218447138555348
1772462343671705000,0.810705078125,-0.008141815662384033,0.008901349268853664,0.004322843160480261
1772462343681753000,0.820753173828125,-0.008725314401090145,0.008735700510442257,0.0018112158868461847
1772462343691801000,0.830801025390625,-0.00836658664047718,0.00845447089523077,0.004325772635638714
1772462343701848600,0.8408486328125,-0.008563661016523838,0.008444617502391338,0.00273133791051805
1772462343711897600,0.850897705078125,-0.010261425748467445,0.008017446845769882,0.0018122810870409012
1772462343721945600,0.860945556640625,-0.010836401954293251,0.005616873037070036,0.0024322650860995054
1772462343731993600,0.87099365234375,-0.010160758160054684,0.006673615425825119,0.00227833422832191
1772462343742042600,0.881042724609375,-0.0075718993321061134,0.006615824531763792,0.0028072381392121315
1772462343752090600,0.891090576171875,-0.006997722201049328,0.008144479244947433,0.000713993504177779
1772462343762138600,0.901138671875,-0.008754076436161995,0.007022755686193705,-0.000011984225238848012
1772462343772186600,0.9111865234375,-0.009738114662468433,0.007859254255890846,0.0019683423452079296
1772462343782235600,0.921235595703125,-0.010072873905301094,0.007831824012100697,0.0012250541476532817
1772462343792283600,0.93128369140625,-0.009723734110593796,0.0073564499616622925,0.0019949739798903465
1772462343802331600,0.94133154296875,-0.008243548683822155,0.006963899824768305,0.003973170183598995
1772462343812380700,0.951380615234375,-0.006477872841060162,0.006935137789696455,0.0036727653350681067
1772462343822428700,0.9614287109375,-0.006119677796959877,0.008725314401090145,0.002029062481597066
1772462343832476700,0.9714765625,-0.00868909526616335,0.0057585532777011395,0.0041044638492167
1772462343842524400,0.9815244140625,-0.008252870291471481,0.006448311731219292,0.0054845139384269714
1772462343852573700,0.99157373046875,-0.008836101740598679,0.0076422072015702724,0.003020024625584483
1772462343862621400,1.001621337890625,-0.008767658844590187,0.008216651156544685,0.003753991797566414
1772462343872669700,1.011669677734375,-0.009339972399175167,0.006786266807466745,0.0021049624774605036
1772462343882717700,1.0217177734375,-0.007457649800926447,0.008160990662872791,0.0018716695485636592
1772462343892766700,1.0317666015625,-0.007446464616805315,0.009904296137392521,0.004457865376025438
1772462343902814700,1.041814697265625,-0.00717721926048398,0.0072837453335523605,0.001973136095330119
1772462343912862500,1.051862548828125,-0.007448861375451088,0.007017429452389479,-0.0004290352517273277
1772462343922911700,1.061911865234375,-0.008889897726476192,0.005170527379959822,0.0005608617211692035
1772462343932959500,1.07195947265625,-0.008145011961460114,0.007635282818228006,-0.0009217200567945838
1772462343943007700,1.0820078125,-0.0073378076776862144,0.00654578348621726,0.004048803821206093
1772462343953056500,1.092056396484375,-0.006960970349609852,0.008527175523340702,0.0007459514308720827
1772462343963104800,1.102104736328125,-0.007025685161352158,0.007097057998180389,0.002912166528403759
1772462343973152500,1.112152587890625,-0.008746087551116943,0.008656871505081654,0.0027899276465177536
1772462343983200500,1.122200439453125,-0.009632387198507786,0.0067809405736625195,0.0046394928358495235
1772462343993249500,1.13224951171875,-0.006434197071939707,0.010037453845143318,0.0003677825443446636
1772462344003297500,1.142297607421875,-0.007166033610701561,0.00866113230586052,0.0023244069889187813
1772462344013345800,1.152345703125,-0.006673082709312439,0.008881908841431141,0.0037758296821266413
1772462344023394600,1.16239453125,-0.008655539713799953,0.009924801997840405,0.0034045851789414883
1772462344033442600,1.172442626953125,-0.009681123308837414,0.005739378277212381,0.0008695221040397882
1772462344043490600,1.182490478515625,-0.006049903109669685,0.007757788058370352,0.0022008363157510757
1772462344053538600,1.19253857421875,-0.00734366662800312,0.008640093728899956,0.0023363912478089333
1772462344063587600,1.202587646484375,-0.009620136581361294,0.008006260730326176,0.0011211908422410488
1772462344073635600,1.212635498046875,-0.008323975838720798,0.007198524195700884,0.003608583239838481
1772462344083683600,1.22268359375,-0.008021441288292408,0.008951683528721333,0.0009973538108170033
1772462344093732600,1.232732666015625,-0.010325874201953411,0.008769256994128227,0.0034317492973059416
1772462344103780600,1.242780517578125,-0.008695220574736595,0.006653641816228628,0.0024778051301836967
1772462344113828600,1.25282861328125,-0.008217450231313705,0.008009190671145916,0.002921221312135458
1772462344123876600,1.262876708984375,-0.00768881244584918,0.009345298632979393,0.007133543025702238
1772462344133925600,1.272925537109375,-0.008889098651707172,0.010548247955739498,0.0044046021066606045
1772462344143973600,1.2829736328125,-0.0073471288196742535,0.005301021970808506,0.0006327670416794717
1772462344154021400,1.293021484375,-0.00686136819422245,0.004366518929600716,0.001555552356876433
1772462344164070700,1.303070556640625,-0.00839961040765047,0.006077333353459835,0.002516953507438302
1772462344174118400,1.313118408203125,-0.008927981369197369,0.010366087779402733,0.004744687583297491
1772462344184166700,1.323166748046875,-0.01031522173434496,0.00839534867554903,0.001776594785042107
1772462344194214700,1.333214599609375,-0.008979912847280502,0.003494866192340851,0.0007872303831391037
1772462344204263700,1.343263671875,-0.00683207344263792,0.006220345385372639,0.0009028115891851485
1772462344214311700,1.353311767578125,-0.008383630774915218,0.009523464366793633,0.0004625910660251975
1772462344224359400,1.363359375,-0.008101335726678371,0.011266768909990788,0.0035984632559120655
1772462344234408700,1.37340869140625,-0.009906160645186901,0.00782516598701477,0.0032290827948600054
1772462344244456400,1.38345654296875,-0.008364723064005375,0.004308462142944336,0.0010154632618650794
1772462344254504700,1.393504638671875,-0.007783354725688696,0.007710650097578764,0.00421285443007946
1772462344264552700,1.403552734375,-0.010084325447678566,0.010200971737504005,0.0049316417425870895
1772462344274601700,1.413601806640625,-0.0063063655979931355,0.008143413811922073,0.002373941708356142
1772462344284649700,1.423649658203125,-0.008569519966840744,0.005077582783997059,0.0027662254869937897
1772462344294697500,1.433697509765625,-0.009129316546022892,0.008332764729857445,0.003742540255188942
1772462344304746800,1.443746826171875,-0.006237389519810677,0.008746620267629623,0.0046445527113974094
1772462344314794500,1.45379443359375,-0.008232363499701023,0.008296545594930649,0.007696269080042839
1772462344324842800,1.4638427734375,-0.008622783236205578,0.007870440371334553,0.005842176266014576
1772462344334890500,1.473890380859375,-0.007161240093410015,0.00643792562186718,0.0023395870812237263
1772462344344939800,1.483939697265625,-0.007252053823322058,0.007723433431237936,0.0007350324303843081
1772462344354987500,1.493987548828125,-0.006148706190288067,0.0061508365906775,0.00044581317342817783
1772462344365035500,1.504035400390625,-0.00818203017115593,0.010982876643538475,0.004033357370644808
1772462344375084500,1.51408447265625,-0.008259793743491173,0.008195078931748867,0.0021587584633380175
1772462344385132500,1.524132568359375,-0.008166583254933357,0.010071542114019394,0.001448759576305747
1772462344395180800,1.534180908203125,-0.007932225242257118,0.008236624300479889,0.0034964641090482473
1772462344405228500,1.544228515625,-0.007231813855469227,0.010218283161520958,0.004553738981485367
1772462344415277800,1.55427783203125,-0.007574828807264566,0.0075639099813997746,0.0029204224701970816
1772462344425325600,1.56432568359375,-0.008803078904747963,0.008489358238875866,0.0038392129354178905
1772462344435373600,1.57437353515625,-0.010744256898760796,0.0071010529063642025,0.003606186481192708
1772462344445422600,1.584422607421875,-0.006870156619697809,0.006894391495734453,0.005781989078968763
1772462344455470600,1.594470703125,-0.007903463207185268,0.00957060232758522,0.0026546388398855925
1772462344465518600,1.6045185546875,-0.006441654171794653,0.007225688546895981,0.002939330879598856
1772462344475566600,1.614566650390625,-0.007874434813857079,0.010429471731185913,0.0036972665693610907
1772462344485615600,1.62461572265625,-0.0078073227778077126,0.009467803873121738,0.00375958438962698
1772462344495663600,1.63466357421875,-0.008384163491427898,0.009170861914753914,0.0015504923649132252
1772462344505711600,1.644711669921875,-0.008627576753497124,0.008452340960502625,0.004091148264706135
1772462344515760600,1.6547607421875,-0.010568754747509956,0.006677609868347645,0.000731836655177176
1772462344525808600,1.66480859375,-0.006646717432886362,0.009821738116443157,0.002983539365231991
1772462344535856600,1.674856689453125,-0.008282430469989777,0.0062456452287733555,0.004207794554531574
1772462344545905700,1.68490576171875,-0.007948736660182476,0.0073114424012601376,0.0002961435238830745
1772462344555953400,1.694953369140625,-0.009909622371196747,0.00637747161090374,0.0011675298446789384
1772462344566001700,1.705001708984375,-0.008036088198423386,0.007724232506006956,0.003367300843819976
1772462344576049700,1.715049560546875,-0.009401224553585052,0.00700944010168314,0.003897269954904914
1772462344586098700,1.7250986328125,-0.010002566501498222,0.008217183873057365,0.002721750643104315
1772462344596146700,1.735146728515625,-0.007929561659693718,0.008064850233495235,0.00315984059125185
1772462344606194400,1.7451943359375,-0.006725014187395573,0.00634791050106287,0.004746818449348211
1772462344616243700,1.75524365234375,-0.008957009762525558,0.008379369974136353,0.0057042245753109455
1772462344626291500,1.76529150390625,-0.009439041838049889,0.006993993651121855,0.003320695599541068
1772462344636339700,1.775339599609375,-0.009848902001976967,0.007476558443158865,0.004659466445446014
1772462344646387500,1.785387451171875,-0.007990814745426178,0.009986321441829205,0.0027198863681405783
1772462344656436700,1.795436767578125,-0.009953564032912254,0.009003881365060806,0.001805623178370297
1772462344666484500,1.805484375,-0.010430802591145039,0.00777563126757741,0.0022415826097130775
1772462344676532500,1.815532470703125,-0.010191118344664574,0.00754899624735117,0.003620567498728633
1772462344686581500,1.82558154296875,-0.007899202406406403,0.006985737942159176,0.002061819192022085
1772462344696633000,1.835633056640625,-0.008982310071587563,0.008461395278573036,0.0031675638165324926
1772462344706681000,1.84568115234375,-0.008023837581276894,0.008186290971934795,0.0020849888678640127
1772462344716730000,1.855730224609375,-0.007436877116560936,0.006323409732431173,0.0006511429091915488
1772462344726778000,1.865778076171875,-0.009547698311507702,0.006909038871526718,0.004601409658789635
1772462344736826000,1.875826171875,-0.008437959477305412,0.006103166379034519,0.003695668652653694
1772462344746874000,1.8858740234375,-0.009898703545331955,0.007679224945604801,0.0027569043450057507
1772462344756923100,1.895923095703125,-0.008128234185278416,0.005063468124717474,0.0009294432238675654
1772462344766971100,1.90597119140625,-0.007670436520129442,0.005620335228741169,0.0032921996898949146
1772462344777019100,1.91601904296875,-0.0101402522996068,0.009693906642496586,0.0006492786924354732
1772462344787068200,1.926068115234375,-0.010605240240693092,0.006213154643774033,0.004165183752775192
1772462344797116200,1.9361162109375,-0.0049042110331356525,0.01011095754802227,-0.000431432097684592
1772462344807164200,1.9461640625,-0.008839031681418419,0.006047506351023912,0.002400306984782219
1772462344817212200,1.956212158203125,-0.007013967260718346,0.005783586762845516,0.0032866070978343487
1772462344827261200,1.96626123046875,-0.007786550559103489,0.008875250816345215,0.005818740464746952
1772462344837309200,1.97630908203125,-0.00957060232758522,0.008553008548915386,0.0007329019135795534
1772462344847357000,1.98635693359375,-0.011244132183492184,0.009764746762812138,0.0027427896857261658
1772462344857406200,1.99640625,-0.0075700352899730206,0.008353536948561668,0.0017797905020415783
1772462344867454000,2.006453857421875,-0.009512544609606266,0.007665909361094236,0.0018373148050159216
1772462344877502200,2.016502197265625,-0.009972206316888332,0.007663778495043516,0.0009046758059412241
1772462344887550200,2.02655029296875,-0.00939137116074562,0.009900568053126335,0.0025949841365218163
1772462344897599200,2.03659912109375,-0.010206830687820911,0.008790828287601471,-0.0000900148443179205
1772462344907647200,2.046647216796875,-0.008299741894006729,0.0080296965315938,0.0025009745731949806
1772462344917695000,2.056695068359375,-0.01070990227162838,0.009836385026574135,0.004008057527244091
1772462344927744300,2.066744140625,-0.006296245381236076,0.005910353269428015,0.0033963292371481657
1772462344937792000,2.0767919921875,-0.007288006599992514,0.006645385641604662,0.0010151970200240612
1772462344947840300,2.08684033203125,-0.00814767461270094,0.006715693045407534,-0.00032330775866284966
1772462344957889000,2.096888916015625,-0.007694937754422426,0.00749093946069479,0.0034525219816714525
1772462344967937000,2.10693701171875,-0.0049191247671842575,0.007670969236642122,0.0034903388004750013
1772462344977985000,2.116985107421875,-0.0059569585137069225,0.007837416604161263,0.0034522556234151125
1772462344988033000,2.127032958984375,-0.00743181724101305,0.006016080733388662,0.005651494022458792
1772462344998082000,2.13708203125,-0.006835269276052713,0.007870440371334553,0.0008258462767116725
1772462345008130000,2.147130126953125,-0.008438492193818092,0.007270429749041796,0.0016884441720321774
1772462345018178300,2.15717822265625,-0.006856308318674564,0.006987868342548609,0.005902097560465336
1772462345028227000,2.16722705078125,-0.008713330142199993,0.005233910400420427,0.0008868326549418271
1772462345038275000,2.177275146484375,-0.008817460387945175,0.0060262009501457214,0.003391801845282316
1772462345048323000,2.187322998046875,-0.007925833575427532,0.009731190279126167,0.0025800704024732113
1772462345058372000,2.1973720703125,-0.008742624893784523,0.0070493873208761215,0.003370230318978429
1772462345068420000,2.207420166015625,-0.00869282428175211,0.009032643400132656,0.0005550027708522975
1772462345078468000,2.217468017578125,-0.006369748618453741,0.006079464219510555,0.002435727044939995
1772462345088516000,2.22751611328125,-0.006866960786283016,0.007305583450943232,0.00065460498444736
1772462345098565000,2.237565185546875,-0.009473130106925964,0.007468569092452526,-0.0012096078135073185
1772462345108613000,2.247613037109375,-0.00947925541549921,0.006263222079724073,0.00242081331089139
1772462345118661000,2.2576611328125,-0.008447546511888504,0.0064954496920108795,0.0023217438720166683
1772462345128710100,2.267710205078125,-0.009487245231866837,0.008098140358924866,0.0020636834669858217
1772462345138758100,2.277758056640625,-0.009972472675144672,0.0065678879618644714,0.002587793627753854
1772462345148806100,2.28780615234375,-0.004335093777626753,0.007811850402504206,0.001761148450896144
1772462345158854000,2.29785400390625,-0.006923686247318983,0.008305867202579975,0.003766242414712906
1772462345168903200,2.307903076171875,-0.007360178045928478,0.006858971435576677,0.004543352872133255
1772462345178951000,2.317950927734375,-0.009443835355341434,0.005942843854427338,0.0033718282356858253
1772462345188999200,2.327999267578125,-0.008801747113466263,0.00708747049793601,0.002267681760713458
1772462345199048000,2.3380478515625,-0.008825715631246567,0.008097074925899506,0.004908738657832146
1772462345209096200,2.34809619140625,-0.009076319634914398,0.0073774890042841434,0.00452684098854661
1772462345219144200,2.358144287109375,-0.009472863748669624,0.007783354725688696,0.0035598473623394966
1772462345229193200,2.368193115234375,-0.010366886854171753,0.007895739749073982,0.0018700717482715845
1772462345239241200,2.3782412109375,-0.009135175496339798,0.008287757635116577,0.0025590313598513603
1772462345249289000,2.3882890625,-0.008170577697455883,0.008045942522585392,0.0029001825023442507
1772462345259337200,2.398337158203125,-0.008124771527945995,0.0070672305300831795,-0.00009081379539566115
1772462345269386000,2.408385986328125,-0.008460862562060356,0.007870705798268318,0.0006532734259963036
1772462345279434200,2.418434326171875,-0.008187356404960155,0.007196127437055111,0.002951048780232668
1772462345289482200,2.428482177734375,-0.0070222229696810246,0.0070557789877057076,0.0016743293963372707
1772462345299531300,2.43853125,-0.00905661191791296,0.008081362582743168,0.0035478631034493446
1772462345309579000,2.4485791015625,-0.007366036996245384,0.00455773388966918,0.002463157754391432
1772462345319627000,2.458626953125,-0.007830225862562656,0.008008657954633236,0.0023166837636381388
1772462345329676000,2.468676025390625,-0.007647267077118158,0.00806325301527977,0.002966228872537613
1772462345339724000,2.47872412109375,-0.008698416873812675,0.009012136608362198,0.002920954953879118
1772462345349772300,2.488772216796875,-0.006133526097983122,0.00887684803456068,0.002379534300416708
1772462345359821000,2.498821044921875,-0.006881341803818941,0.00785659160465002,0.0033774208277463913
1772462345369869000,2.508869140625,-0.008224107325077057,0.006119677796959877,0.0020445086993277073
1772462345379917000,2.5189169921875,-0.008319182321429253,0.008332764729857445,0.000595216522924602
1772462345389965000,2.528965087890625,-0.00857644435018301,0.005864280741661787,-0.0018841864075511694
1772462345400014000,2.53901416015625,-0.008994027972221375,0.008296279236674309,0.0015182681381702423
1772462345410062000,2.54906201171875,-0.010878480039536953,0.007648332044482231,0.0009864348685368896
1772462345420110300,2.5591103515625,-0.01079965103417635,0.006843258626759052,0.0024194817524403334
1772462345430159000,2.5691591796875,-0.006356698926538229,0.008886702358722687,0.0031425300985574722
1772462345440207000,2.57920703125,-0.00962812639772892,0.005097290500998497,0.004744687583297491
1772462345450255000,2.589255126953125,-0.006923686247318983,0.009299758821725845,0.005006742663681507
1772462345460303000,2.59930322265625,-0.009340238757431507,0.00809201505035162,0.0032402679789811373
1772462345470352100,2.60935205078125,-0.009011338464915752,0.008841162547469139,0.005845638457685709
1772462345480400100,2.619400146484375,-0.0070464578457176685,0.005871471017599106,0.0015387744642794132
1772462345490448000,2.62944775390625,-0.009065399877727032,0.007607053499668837,0.0012365056900307536
1772462345500497200,2.6394970703125,-0.007184942252933979,0.007084274664521217,0.0026098978705704212
1772462345510545000,2.649544921875,-0.008382565341889858,0.006709301844239235,0.0009084042394533753
1772462345520593200,2.65959326171875,-0.00875008199363947,0.009130381047725677,0.003576891729608178
1772462345530642000,2.669641845703125,-0.009820406325161457,0.009240902960300446,0.0030541131272912025
1772462345540690200,2.679690185546875,-0.010142648592591286,0.008393218740820885,-0.0005930859479121864
1772462345550738200,2.68973828125,-0.008023571223020554,0.007494668010622263,-0.0009046758059412241
1772462345560786000,2.699785888671875,-0.007968178018927574,0.007242466323077679,0.004460262134671211
1772462345570835200,2.709835205078125,-0.00908457487821579,0.007081611547619104,0.004795820452272892
1772462345580883000,2.719883056640625,-0.007097057998180389,0.0062123560346663,0.002951581496745348
1772462345590931200,2.72993115234375,-0.008654740639030933,0.0071007865481078625,0.004855741746723652
1772462345600980000,2.73997998046875,-0.006988401059061289,0.0046940878964960575,0.0062733422964811325
1772462345611028200,2.7500283203125,-0.008962335996329784,0.006822219584137201,0.0009688580175861716
1772462345621076200,2.760076171875,-0.008166583254933357,0.007880826480686665,0.002138518262654543
1772462345631125200,2.770125244140625,-0.008282165043056011,0.006931941956281662,0.0025044367648661137
1772462345641173200,2.78017333984375,-0.008200405165553093,0.007754592224955559,0.0038485340774059296
1772462345651221000,2.790220947265625,-0.008145278319716454,0.008388158865272999,0.0011150655336678028
1772462345661269200,2.800269287109375,-0.008837699890136719,0.009974869899451733,0.0005542038124985993
1772462345671318000,2.810318115234375,-0.007013434544205666,0.007966047152876854,0.003599262097850442
1772462345681366300,2.8203662109375,-0.008284827694296837,0.008213721215724945,0.0010772485984489322
1772462345691414000,2.8304140625,-0.009321862831711769,0.00729493098333478,0.0006138586322776973
1772462345701459700,2.840459716796875,-0.008058459497988224,0.009217200800776482,0.0000018642127770363004
1772462345711507500,2.850507568359375,-0.008943427354097366,0.007976699620485306,0.001023452845402062
1772462345721555700,2.8605556640625,-0.008124505169689655,0.007414773106575012,0.005875465925782919
1772462345731604500,2.8706044921875,-0.008644354529678822,0.007729026023298502,0.0012767193838953972
1772462345741652700,2.88065283203125,-0.009020392782986164,0.007034739945083857,0.003413107246160507
1772462345751700700,2.89070068359375,-0.010674215853214264,0.008796687237918377,0.0005701828049495816
1772462345761749800,2.900749755859375,-0.007183344569057226,0.006416353862732649,0.0018916432745754719
1772462345771797800,2.9107978515625,-0.00777696305885911,0.006069077644497156,0.0007792409160174429
1772462345781845500,2.920845458984375,-0.00860334187746048,0.008640093728899956,0.0004189152386970818
1772462345791893800,2.930893798828125,-0.008251272141933441,0.007731689140200615,0.0026399914640933275
1772462345801942500,2.940942626953125,-0.008860070258378983,0.00600436283275485,0.0022884542122483253
1772462345811990800,2.95099072265625,-0.005929794628173113,0.007634750101715326,0.003891144646331668
1772462345822038500,2.96103857421875,-0.008145544677972794,0.009068329818546772,0.0007131945458240807
1772462345832087800,2.971087890625,-0.00984251033514738,0.005025118589401245,0.005621666554361582
1772462345842135600,2.981135498046875,-0.008327438496053219,0.00830693170428276,0.0020327907986938953
1772462345852183600,2.99118359375,-0.009702161885797977,0.007457649800926447,0.0006868292111903429
1772462345862232600,3.001232666015625,-0.006641923915594816,0.008580172434449196,0.002915628720074892
1772462345872280600,3.011280517578125,-0.007411310914903879,0.005537510849535465,0.0017899106023833156
1772462345882328800,3.021328857421875,-0.007113036699593067,0.007121026515960693,0.002805640222504735
1772462345892377600,3.031377685546875,-0.0070400661788880825,0.008643289096653461,0.0006625944515690207
1772462345902425900,3.04142578125,-0.009586581028997898,0.00652714166790247,0.00267674308270216
1772462345912473600,3.0514736328125,-0.00771730812266469,0.006305832881480455,0.0017363809747621417
1772462345922521600,3.061521484375,-0.008348210714757442,0.007684018462896347,0.0016114787431433797
1772462345932570600,3.071570556640625,-0.0070187607780098915,0.007811850402504206,0.002225070958957076
1772462345942618600,3.08161865234375,-0.00811917893588543,0.007383613847196102,0.0018040252616629004
1772462345952667000,3.0916669921875,-0.009453955106437206,0.008194546215236187,0.003171558491885662
1772462345962715600,3.101715576171875,-0.0062243398278951645,0.006648581475019455,0.0009408948244526982
1772462345972763600,3.111763671875,-0.009498164057731628,0.007142864167690277,0.0015036207623779774
1772462345982811600,3.121811767578125,-0.005160407163202763,0.0070762853138148785,0.002951581496745348
1772462345992860700,3.131860595703125,-0.006719954311847687,0.011662248522043228,0.0017757958266884089
1772462346002908700,3.14190869140625,-0.008785235695540905,0.007821171544492245,-0.0008825715631246567
1772462346012956700,3.151956787109375,-0.00794314406812191,0.008708003908395767,0.004040015395730734
1772462346023004400,3.16200439453125,-0.010154366493225098,0.006490123458206654,0.0018181400373578072
1772462346033053700,3.1720537109375,-0.008729309774935246,0.006592122372239828,0.0035214978270232677
1772462346043101400,3.182101318359375,-0.009823336265981197,0.008281898684799671,0.0022213426418602467
1772462346053149700,3.192149658203125,-0.011145329102873802,0.006421946454793215,0.0036770266015082598
1772462346063198500,3.202198486328125,-0.009852364659309387,0.00817856751382351,0.0019267969764769077
1772462346073246700,3.212246826171875,-0.007755124941468239,0.007148723118007183,0.0013243899447843432
1772462346083294700,3.222294677734375,-0.008448878303170204,0.006336725316941738,0.003357979701831937
1772462346093343700,3.23234375,-0.008245146833360195,0.006874151527881622,0.004058124963194132
1772462346103391700,3.242391845703125,-0.006106095854192972,0.005150021053850651,0.0026138925459235907
1772462346113439500,3.252439453125,-0.010003365576267242,0.0076280920766294,-0.00006950850365683436
1772462346123488800,3.26248876953125,-0.009737848304212093,0.006952448282390833,0.0019433086272329092
1772462346133536500,3.27253662109375,-0.008225705474615097,0.006706372369080782,0.0007845672662369907
1772462346143584800,3.282584716796875,-0.011048655956983566,0.007479754276573658,0.0017885789275169373
1772462346153632800,3.2926328125,-0.00768748065456748,0.008049137890338898,0.0008942894637584686
1772462346163681800,3.302681884765625,-0.007108509540557861,0.007118895649909973,0.0023904533591121435
1772462346173729500,3.3127294921875,-0.009259544312953949,0.005945506971329451,0.003349990351125598
1772462346183777500,3.322777587890625,-0.009875534102320671,0.0075940038077533245,0.0022471752017736435
1772462346193826600,3.33282666015625,-0.008473645895719528,0.007151386234909296,0.003866909770295024
1772462346203874600,3.34287451171875,-0.00768907880410552,0.00857511255890131,0.0022367890924215317
1772462346213922800,3.3529228515625,-0.0070280819199979305,0.006340187508612871,0.0017907095607370138
1772462346223971600,3.3629716796875,-0.00996128749102354,0.005667473189532757,0.0033401367254555225
1772462346234019800,3.373019775390625,-0.010025469586253166,0.006561762653291225,0.0021198762115091085
1772462346244067600,3.383067626953125,-0.0082089276984334,0.007358580362051725,0.0034794199746102095
1772462346254115600,3.393115478515625,-0.008261658251285553,0.006925550289452076,0.0030945930629968643
1772462346264164600,3.40316455078125,-0.007793208118528128,0.006572415120899677,0.0018500980222597718
1772462346274212600,3.413212646484375,-0.007041930686682463,0.00782516598701477,0.003641073824837804
1772462346284260900,3.4232607421875,-0.007248591631650925,0.0076182386837899685,0.003355582943186164
1772462346294309600,3.4333095703125,-0.008598282001912594,0.0090542146936059,0.0011550129856914282
1772462346304358000,3.44335791015625,-0.008072040975093842,0.006074670236557722,0.002615224104374647
1772462346314405600,3.453405517578125,-0.00774686923250556,0.009294698014855385,0.0035752938129007816
1772462346324454700,3.46345458984375,-0.006521016359329224,0.007410511840134859,-0.0005033374181948602
1772462346334502700,3.473502685546875,-0.010171943344175816,0.007397995330393314,0.0023369237314909697
1772462346344550700,3.483550537109375,-0.008507201448082924,0.008874185383319855,0.0024288028944283724
1772462346354599700,3.493599609375,-0.009923737496137619,0.007440872024744749,0.003938815090805292
1772462346364647700,3.503647705078125,-0.009982060641050339,0.009095760062336922,0.001190433045849204
1772462346374695400,3.5136953125,-0.007670436520129442,0.010608968324959278,0.0009134642314165831
1772462346384743700,3.52374365234375,-0.006173207424581051,0.008051801472902298,0.00358860963024199
1772462346394792400,3.53379248046875,-0.009147425182163715,0.0075846826657652855,-0.0004498079069890082
1772462346404840700,3.5438408203125,-0.007640609052032232,0.009444101713597775,0.0009257147903554142
1772462346414888700,3.553888671875,-0.008407865650951862,0.006841660942882299,0.004236023873090744
1772462346424937700,3.563937744140625,-0.009763947688043118,0.009136506356298923,0.004799815360456705
1772462346434985700,3.57398583984375,-0.007172691635787487,0.007654191460460424,0.002359294332563877
1772462346445033500,3.584033447265625,-0.007184942252933979,0.008924785070121288,0.0023792681749910116
1772462346455082800,3.594082763671875,-0.008976982906460762,0.006410761270672083,0.0007504787645302713
1772462346465130500,3.604130615234375,-0.008264321833848953,0.004886367823928595,0.003829092951491475
1772462346475178800,3.6141787109375,-0.008622783236205578,0.01116370502859354,0.0009741843095980585
1772462346485227500,3.6242275390625,-0.0109842075034976,0.007515707053244114,0.0019976370967924595
1772462346495275800,3.63427587890625,-0.00965848658233881,0.009888051077723503,0.0010317085543647408
1772462346505323800,3.64432373046875,-0.00833542738109827,0.007836351171135902,0.004041080828756094
1772462346515372800,3.654372802734375,-0.008177235722541809,0.008503739722073078,0.0006463492172770202
1772462346525420500,3.664420654296875,-0.007464840542525053,0.007903463207185268,-0.0000125168571685208
1772462346535468500,3.674468505859375,-0.008288555778563023,0.00932266190648079,0.0026522420812398195
1772462346545516800,3.684516845703125,-0.0073050507344305515,0.00863157119601965,0.0019361181184649467
1772462346555565600,3.694565673828125,-0.006564425770193338,0.007150587625801563,0.003403253620490432
1772462346565613800,3.70461376953125,-0.00935994554311037,0.008025968447327614,0.0013347762869670987
1772462346575661600,3.71466162109375,-0.008508266881108284,0.008844357915222645,0.0023036343045532703
1772462346585710800,3.7247109375,-0.009020925499498844,0.00851412583142519,0.0038365498185157776
1772462346595758600,3.734758544921875,-0.008167115971446037,0.007441671099513769,0.0025419872254133224
1772462346605806600,3.744806640625,-0.008958607912063599,0.005585980135947466,0.0024855281226336956
1772462346615855600,3.754855712890625,-0.01016874797642231,0.008854211308062077,0.00009028115891851485
1772462346625903600,3.764903564453125,-0.009880593977868557,0.008010522462427616,0.0033489251509308815
1772462346635951900,3.774951904296875,-0.00908537395298481,0.007923702709376812,0.0015872439835220575
1772462346646000600,3.785000732421875,-0.00672421557828784,0.00595456175506115,0.0009068063227459788
1772462346656048600,3.795048583984375,-0.008286692202091217,0.00872131995856762,0.0008945558220148087
1772462346666096600,3.8050966796875,-0.007352455053478479,0.004780906718224287,0.0009339706157334149
1772462346676144600,3.81514453125,-0.007003048434853554,0.007148190401494503,0.000639424950350076
1772462346686193700,3.825193603515625,-0.007667507044970989,0.006852047052234411,0.003667971817776561
1772462346696241700,3.83524169921875,-0.00854581780731678,0.006462426856160164,0.0028122980147600174
1772462346706289400,3.845289306640625,-0.007682687137275934,0.007970308884978294,0.0007137271459214389
1772462346716338700,3.855338623046875,-0.006345513742417097,0.004804076161235571,0.0043777041137218475
1772462346726386400,3.865386474609375,-0.0073596457950770855,0.00714526092633605,0.0062637547962367535
1772462346736434400,3.875434326171875,-0.0076033249497413635,0.00657667638733983,0.000693220819812268
1772462346746483500,3.8854833984375,-0.006621683482080698,0.008328503929078579,0.003171824850142002
1772462346756531500,3.895531494140625,-0.008805742487311363,0.007860852405428886,0.0033691651187837124
1772462346766579700,3.905579833984375,-0.007301056291908026,0.007616906892508268,0.0028735508676618338
1772462346776628500,3.91562841796875,-0.008523979224264622,0.00865980051457882,0.002017610939219594
1772462346786676500,3.925676513671875,-0.004938299767673016,0.00759853096678853,0.00019441076437942684
1772462346796724500,3.935724365234375,-0.006489857099950314,0.007665643002837896,0.0007291734800674021
1772462346806772500,3.9457724609375,-0.00854368694126606,0.0085452850908041,0.002695385366678238
1772462346816821500,3.955821533203125,-0.007242466323077679,0.007667507044970989,0.0035595810040831566
1772462346826869500,3.965869384765625,-0.007714112289249897,0.008874984458088875,0.0024053670931607485
1772462346836917800,3.975917724609375,-0.008963135071098804,0.00866273045539856,0.0037473340053111315
1772462346846966500,3.985966552734375,-0.00643712654709816,0.008496016263961792,0.00013422331539914012
1772462346857014500,3.9960146484375,-0.007632886059582233,0.008360194973647594,0.005730323493480682
1772462346867062500,4.0060625,-0.00830639898777008,0.006698382552713156,0.0011257182341068983
1772462346877111600,4.016111572265625,-0.005985986907035112,0.007383613847196102,0.004850415047258139
1772462346887159600,4.02615966796875,-0.007457649800926447,0.007446730975061655,0.0013257216196507215
1772462346897207600,4.03620751953125,-0.010089118964970112,0.008795621804893017,0.0014929680619388819
1772462346907255300,4.04625537109375,-0.008881642483174801,0.008115717209875584,0.001181111903861165
1772462346917304600,4.0563046875,-0.008380435407161713,0.00749147217720747,0.002615490462630987
1772462346927352300,4.066352294921875,-0.008373244665563107,0.00717482203617692,0.0038988678716123104
1772462346937400600,4.076400634765625,-0.008724781684577465,0.006835535634309053,0.0011350392596796155
1772462346947449300,4.086449462890625,-0.008949552662670612,0.006886135786771774,0.0013486248208209872
1772462346957497600,4.09649755859375,-0.007368966471403837,0.006619819439947605,0.0038978024385869503
1772462346967545600,4.106545654296875,-0.009915747679769993,0.007020358927547932,0.000595216522924602
1772462346977594600,4.1165947265625,-0.009072324261069298,0.008800948038697243,0.0017030915478244424
1772462346987642600,4.126642578125,-0.008095476776361465,0.00794554129242897,0.0007872303831391037
1772462346997690400,4.1366904296875,-0.009460346773266792,0.006632336415350437,0.002576608443632722
1772462347007739600,4.14673974609375,-0.01002307329326868,0.004878112114965916,0.003195527009665966
1772462347017787400,4.156787353515625,-0.00905368197709322,0.0070339408703148365,0.0044139232486486435
1772462347027835600,4.166835693359375,-0.007513842545449734,0.008817460387945175,0.00341577036306262
1772462347037883600,4.176883544921875,-0.007121026515960693,0.006939931306988001,0.0011944277212023735
1772462347047932700,4.1869326171875,-0.009041697718203068,0.003960120491683483,0.003853061469271779
1772462347057980400,4.19698046875,-0.010571418330073357,0.007404652889817953,0.002222141483798623
1772462347068028400,4.2070283203125,-0.008299741894006729,0.005869340617209673,0.0012389025650918484
1772462347078077400,4.217077392578125,-0.007898403331637383,0.006594519596546888,0.0015994944842532277
1772462347088125400,4.22712548828125,-0.008440623059868813,0.00863050576299429,-0.00021305288828443736
1772462347098173700,4.237173583984375,-0.007820638827979565,0.010914166457951069,0.0005672533297911286
1772462347108222500,4.247222412109375,-0.004860002547502518,0.006940464023500681,0.002229332225397229
1772462347118270700,4.257270751953125,-0.008056328631937504,0.007951932959258556,0.002724946476519108
1772462347128318500,4.267318359375,-0.007134608458727598,0.008697884157299995,0.0005938849062658846
1772462347138367500,4.277367431640625,-0.00806192122399807,0.007017163094133139,0.00180855265352875
1772462347148415500,4.28741552734375,-0.008774583227932453,0.007927431724965572,0.0029976540245115757
1772462347158463500,4.29746337890625,-0.00905341561883688,0.007003581151366234,0.0030000510159879923
1772462347168512500,4.307512451171875,-0.006448045372962952,0.009971939958631992,0.00170788518153131
1772462347178560500,4.317560546875,-0.009062204509973526,0.007479221560060978,0.0020935109350830317
1772462347188608500,4.3276083984375,-0.008915198035538197,0.007111971732228994,0.0015030881622806191
1772462347198657500,4.337657470703125,-0.010775948874652386,0.008971123956143856,0.0018756643403321505
1772462347208705500,4.34770556640625,-0.007020358927547932,0.006666158325970173,0.0036751623265445232
1772462347218753500,4.35775341796875,-0.004231496714055538,0.00820866134017706,0.002316950121894479
1772462347228801500,4.367801513671875,-0.007709318771958351,0.007298126816749573,0.0027209515683352947
1772462347238850600,4.3778505859375,-0.009096292778849602,0.008158594369888306,0.0017861821688711643
1772462347248898600,4.387898681640625,-0.00839854497462511,0.007963917218148708,0.002371811307966709
1772462347258946300,4.3979462890625,-0.007573763839900494,0.006009955424815416,0.000901480030734092
1772462347268995600,4.40799560546875,-0.006702643819153309,0.006858971435576677,0.0019443739438429475
1772462347279043300,4.418043212890625,-0.008169779554009438,0.007719704881310463,0.003087136195972562
1772462347289091600,4.428091552734375,-0.007739944849163294,0.007682154420763254,0.0032314795535057783
1772462347299140400,4.438140380859375,-0.009587912820279598,0.006508499383926392,0.0019390475936233997
1772462347309188600,4.448188720703125,-0.007436344865709543,0.006213687360286713,0.0032743564806878567
1772462347319236600,4.458236572265625,-0.009042763151228428,0.006626743823289871,0.0005315669695846736
1772462347329285600,4.46828564453125,-0.006478139199316502,0.007677360903471708,0.0023821976501494646
1772462347339333600,4.478333740234375,-0.008708802983164787,0.00794287770986557,-0.0011635350529104471
1772462347349381400,4.48838134765625,-0.009820939041674137,0.008700813166797161,0.001294029993005097
1772462347359430700,4.4984306640625,-0.00751970149576664,0.00794367678463459,0.003593403147533536
1772462347369478400,4.508478515625,-0.006640592124313116,0.008213987573981285,0.0030338731594383717
1772462347379526700,4.518526611328125,-0.009736250154674053,0.006756706163287163,0.0023337281309068203
1772462347389574400,4.528574462890625,-0.0057676080614328384,0.0078073227778077126,0.002186188939958811
1772462347399623700,4.538623779296875,-0.007739412598311901,0.009250223636627197,0.0028365328907966614
1772462347409671400,4.54867138671875,-0.00743181724101305,0.007114634849131107,0.0016492956783622503
1772462347419719400,4.558719482421875,-0.009064069017767906,0.00758042186498642,0.0008077367674559355
1772462347429768400,4.5687685546875,-0.0073319487273693085,0.007405718322843313,0.004222441930323839
1772462347439816400,4.57881640625,-0.008419317193329334,0.00740145705640316,0.0007107976707629859
1772462347449864700,4.58886474609375,-0.009896039962768555,0.00624165078625083,0.0007643272401764989
1772462347459913500,4.59891357421875,-0.007475226651877165,0.004179564770311117,0.000007723167072981596
1772462347469961700,4.608961669921875,-0.007795338984578848,0.006287723314017057,0.00007776429993100464
1772462347480009500,4.619009521484375,-0.009767143055796623,0.007449926808476448,0.001243696198798716
1772462347490058500,4.62905859375,-0.01071016862988472,0.009909888729453087,-0.00035712990211322904
1772462347500106500,4.6391064453125,-0.008409463800489902,0.008035289123654366,0.0013571468880400062
1772462347510154500,4.649154541015625,-0.007285077124834061,0.009260077029466629,-0.001353152096271515
1772462347520203500,4.65920361328125,-0.008647816255688667,0.007748999632894993,0.000254331884207204
1772462347530251500,4.66925146484375,-0.007720237597823143,0.005594502668827772,0.0032373385038226843
1772462347540299500,4.679299560546875,-0.005679723806679249,0.00842597521841526,0.003180613275617361
1772462347550347500,4.689347412109375,-0.009640909731388092,0.008212922140955925,0.003919906914234161
1772462347560396500,4.699396484375,-0.006077067460864782,0.008925051428377628,-0.0013403689954429865
1772462347570444500,4.709444580078125,-0.008733570575714111,0.0073204971849918365,0.0019142802339047194
1772462347580492500,4.719492431640625,-0.008559132926166058,0.00896606408059597,0.005723399575799704
1772462347590541600,4.72954150390625,-0.009766077622771263,0.008321313187479973,0.0035542547702789307
1772462347600589600,4.739589599609375,-0.010064085945487022,0.010540259070694447,0.0025220136158168316
1772462347610637300,4.74963720703125,-0.007798800710588694,0.007246194873005152,0.0010596717474982142
1772462347620686600,4.7596865234375,-0.01145931612700224,0.006463491823524237,0.00011105381418019533
1772462347630734300,4.769734375,-0.008016115054488182,0.00749147217720747,0.0022184131667017937
1772462347640782600,4.779782470703125,-0.008257131092250347,0.005659483373165131,0.0018226674292236567
1772462347650831400,4.789831298828125,-0.009037436917424202,0.009408415295183659,0.0005925533478148282
1772462347660879600,4.799879638671875,-0.007001450285315514,0.0070403325371444225,0.001395230065099895
1772462347670927600,4.809927734375,-0.007784419693052769,0.00896686315536499,0.000570981705095619
1772462347680976600,4.8199765625,-0.008673915639519691,0.008942361921072006,0.0039041941054165363
1772462347691024600,4.830024658203125,-0.00791704561561346,0.010030263103544712,0.0032051142770797014
1772462347701072400,4.840072265625,-0.006095442920923233,0.0059537626802921295,0.002808303339406848
1772462347711121700,4.85012158203125,-0.007381749805063009,0.007330616936087608,0.0032682311721146107
1772462347721169400,4.86016943359375,-0.009102950803935528,0.006219546310603619,0.004000334069132805
1772462347731217700,4.8702177734375,-0.011831625364720821,0.00392842898145318,0.0006380933918990195
1772462347741266400,4.880266357421875,-0.006883738562464714,0.00797510240226984,0.0008977515972219408
1772462347751314700,4.890314697265625,-0.005917277652770281,0.006419016979634762,0.0034147051628679037
1772462347761362400,4.900362548828125,-0.009218265302479267,0.008978048339486122,0.002829342382028699
1772462347771410400,4.910410400390625,-0.008886968716979027,0.005705556366592646,0.0012239888310432434
1772462347781459500,4.92045947265625,-0.008233695290982723,0.0060147494077682495,0.001118793967179954
1772462347791507500,4.930507568359375,-0.007677893154323101,0.0075937374494969845,0.001282045734114945
1772462347801555700,4.9405556640625,-0.009694971144199371,0.007678692229092121,0.002956375014036894
1772462347811604500,4.9506044921875,-0.00823928788304329,0.007661381736397743,-0.0007121292874217033
1772462347821652500,4.960652587890625,-0.010070743970572948,0.008511196821928024,0.0002790992730297148
1772462347831700500,4.970700439453125,-0.01025823038071394,0.007723699789494276,0.002008289797231555
1772462347841749500,4.98074951171875,-0.009485647082328796,0.007592139765620232,0.002266349969431758
1772462347851797500,4.990797607421875,-0.0086643286049366,0.006652842741459608,0.00296303303912282
1772462347861845500,5.000845458984375,-0.007891745306551456,0.010008159093558788,0.0007286408799700439
1772462347871894500,5.01089453125,-0.008321046829223633,0.008707204833626747,0.0014761901693418622
1772462347881942500,5.020942626953125,-0.008025169372558594,0.006104764062911272,0.005635515321046114
1772462347891990500,5.030990478515625,-0.008480570279061794,0.007829693146049976,0.002642388455569744
1772462347902039600,5.04103955078125,-0.009838249534368515,0.008824916556477547,0.0021853898651897907
1772462347912087600,5.051087646484375,-0.010154366493225098,0.00720411678776145,0.0016921724891290069
1772462347922135600,5.061135498046875,-0.010416954755783081,0.00788482092320919,0.0011414308100938797
1772462347932183600,5.07118359375,-0.007441138383001089,0.006490123458206654,0.000586161739192903
1772462347942232600,5.081232666015625,-0.008042746223509312,0.009004946798086166,0.0028003137558698654
1772462347952280600,5.091280517578125,-0.009107477962970734,0.006548180244863033,0.0015664712991565466
1772462347962328300,5.101328369140625,-0.009548497386276722,0.004358529578894377,0.003932157531380653
1772462347972377600,5.111377685546875,-0.009397762827575207,0.008023571223020554,0.003599528456106782
1772462347982425300,5.12142529296875,-0.00977593194693327,0.007156446576118469,0.0016562198288738728
1772462347992473600,5.1314736328125,-0.008941829204559326,0.008724515326321125,0.003978496417403221
1772462348002522400,5.1415224609375,-0.007559915538877249,0.008302138186991215,0.003606186481192708
1772462348012570600,5.151570556640625,-0.007674431428313255,0.006622216198593378,0.003040530951693654
1772462348022618600,5.16161865234375,-0.010907242074608803,0.007513842545449734,0.003584614722058177
1772462348032667600,5.171667724609375,-0.006305566523224115,0.008216118440032005,0.0033984598703682423
1772462348042715600,5.181715576171875,-0.008591357618570328,0.00734366662800312,0.004518585279583931
1772462348052763400,5.191763427734375,-0.007644603960216045,0.009005213156342506,0.0019108180422335863
1772462348062812700,5.201812744140625,-0.00751890242099762,0.007726629264652729,0.0009118663729168475
1772462348072860400,5.2118603515625,-0.007333014160394669,0.008224373683333397,0.0032735576387494802
1772462348082908700,5.22190869140625,-0.006733802612870932,0.008473645895719528,0.0013976269401609898
1772462348092957400,5.23195751953125,-0.008835303597152233,0.008058725856244564,0.0008972189389169216
1772462348103005400,5.24200537109375,-0.006432865746319294,0.007397728972136974,0.0009278453071601689
1772462348113053400,5.252053466796875,-0.009738381020724773,0.00484269205480814,0.0018013621447607875
1772462348123102500,5.2621025390625,-0.009076319634914398,0.005883987993001938,0.003257844829931855
1772462348133150500,5.272150390625,-0.008266718126833439,0.005873335525393486,0.0011110707418993115
1772462348143198500,5.282198486328125,-0.0067748152650892735,0.008776979520916939,0.0013046825770288706
1772462348153246700,5.292246826171875,-0.005928729195147753,0.006197708658874035,-0.0002918824611697346
1772462348163295500,5.30229541015625,-0.009002549573779106,0.006234726402908564,0.005665608681738377
1772462348173343500,5.312343505859375,-0.008732505142688751,0.008301339112222195,0.0021971079986542463
1772462348183391500,5.3223916015625,-0.010075271129608154,0.0057255299761891365,0.0009867012267932296
1772462348193440500,5.3324404296875,-0.008732771500945091,0.00878177396953106,0.001990446588024497
1772462348203488500,5.342488525390625,-0.00890960544347763,0.006169212516397238,0.0035183019936084747
1772462348213536500,5.35253662109375,-0.008096808567643166,0.00523737259209156,0.004333495628088713
1772462348223585500,5.36258544921875,-0.00788695178925991,0.006006227340549231,0.002600310370326042
1772462348233633500,5.372633544921875,-0.004161987919360399,0.0076272934675216675,0.0036567864008247852
1772462348243681500,5.382681640625,-0.008093879558146,0.00700864102691412,0.0024708807468414307
1772462348253730600,5.39273046875,-0.007121559232473373,0.008266984485089779,0.002627208363264799
1772462348263778600,5.402778564453125,-0.008280833251774311,0.006744988262653351,0.0037292244378477335
1772462348273826600,5.41282666015625,-0.008962868712842464,0.006940730381757021,0.004344680812209845
1772462348283875600,5.42287548828125,-0.009119462221860886,0.010758105665445328,0.0009635316673666239
1772462348293923600,5.432923583984375,-0.007228085305541754,0.00689199473708868,0.003459978848695755
1772462348303971600,5.4429716796875,-0.007907724007964134,0.007231813855469227,0.0026176210958510637
1772462348314020600,5.4530205078125,-0.006073338910937309,0.007868043147027493,0.0036165728233754635
1772462348324068600,5.463068603515625,-0.009241967462003231,0.008495217189192772,0.001065264455974102
1772462348334116400,5.473116455078125,-0.006703176535665989,0.008040349930524826,0.0019518306944519281
1772462348344165600,5.48316552734375,-0.007863249629735947,0.007843275554478168,0.002639725338667631
1772462348354213400,5.49321337890625,-0.008438492193818092,0.006200638134032488,0.001186970854178071
1772462348364261600,5.50326171875,-0.00851519126445055,0.006416620220988989,0.006036320701241493
1772462348374309600,5.5133095703125,-0.00896872766315937,0.008477373979985714,0.0007337008719332516
1772462348384358700,5.523358642578125,-0.00672235107049346,0.004865062423050404,0.004028031136840582
1772462348394406700,5.53340673828125,-0.008199873380362988,0.006795321591198444,0.004147606901824474
1772462348404454400,5.543454345703125,-0.00743288267403841,0.007456318475306034,0.0019206717843189836
1772462348414503700,5.553503662109375,-0.00833596009761095,0.007939682342112064,0.003561445279046893
1772462348424551400,5.563551513671875,-0.007214503362774849,0.007570568006485701,0.0008170577930286527
1772462348434599700,5.573599609375,-0.008866461925208569,0.005576126743108034,0.0021792647894471884
1772462348444648400,5.5836484375,-0.008095210418105125,0.008678709156811237,-0.0009989517275243998
1772462348454696400,5.593696533203125,-0.009984723292291164,0.00561021501198411,0.002008023438975215
1772462348464744400,5.603744384765625,-0.009674731642007828,0.00791305024176836,-0.00006444849714171141
1772462348474793500,5.61379345703125,-0.008272310718894005,0.0073170349933207035,0.001088966615498066
1772462348484841500,5.623841552734375,-0.007949802093207836,0.009908290579915047,0.0012365056900307536
1772462348494889500,5.633889404296875,-0.008448345586657524,0.006680539343506098,0.0008705873624421656
1772462348504938500,5.6439384765625,-0.0054666707292199135,0.008827047422528267,0.00010359696898376569
1772462348514986500,5.653986572265625,-0.009266735054552555,0.009531985968351364,0.001038366463035345
1772462348525034500,5.664034423828125,-0.008994027972221375,0.009210809133946896,0.0021438447292894125
1772462348535083500,5.67408349609375,-0.007592938374727964,0.008582036942243576,0.0008625978953205049
1772462348545131500,5.684131591796875,-0.008868859149515629,0.004776379559189081,0.00038296254933811724
1772462348555179500,5.694179443359375,-0.008614260703325272,0.008674714714288712,0.0018972359830513597
1772462348565227500,5.7042275390625,-0.008496016263961792,0.008217982016503811,0.002231728984043002
1772462348575276500,5.714276611328125,-0.006710633169859648,0.009137305431067944,0.0009060074225999415
1772462348585324500,5.724324462890625,-0.008255266584455967,0.007498130202293396,0.0017390442080795765
1772462348595372500,5.73437255859375,-0.007963118143379688,0.0080925477668643,0.0018053569365292788
1772462348605421600,5.744421630859375,-0.008898153901100159,0.008697085082530975,0.000029294771593413316
1772462348615469600,5.754469482421875,-0.00983452145010233,0.00824088603258133,0.0006894923863001168
1772462348625517600,5.764517578125,-0.007042197044938803,0.006027532275766134,0.0036464000586420298
1772462348635566600,5.774566650390625,-0.008527974598109722,0.0067452541552484035,0.001249555149115622
1772462348645614600,5.784614501953125,-0.008082161657512188,0.00939030572772026,0.0031766186002641916
1772462348655662600,5.79466259765625,-0.00890854001045227,0.005891711451113224,-0.0015520902816206217
1772462348665711600,5.804711669921875,-0.00669412175193429,0.009240902960300446,0.0030240193009376526
1772462348675759600,5.814759521484375,-0.011010573245584965,0.0076147764921188354,0.003829892026260495
1772462348685807400,5.824807373046875,-0.00860494002699852,0.006937001831829548,0.000627707049716264
1772462348695856600,5.834856689453125,-0.007931692525744438,0.007730357814580202,0.0032583775464445353
1772462348705904000,5.844904052734375,-0.006061621010303497,0.00869362335652113,0.005775597412139177
1772462348715952000,5.8549521484375,-0.008157262578606606,0.007705057505518198,0.0036365464329719543
1772462348726001200,5.865001220703125,-0.008794556371867657,0.007874434813857079,0.002630936913192272
1772462348736049200,5.875049072265625,-0.00999218039214611,0.006570284720510244,0.0022455775178968906
1772462348746097400,5.885097412109375,-0.008345015347003937,0.0067239492200315,0.0013547500129789114
1772462348756146200,5.895146240234375,-0.009406285360455513,0.00806458480656147,0.0034551850985735655
1772462348766194400,5.9051943359375,-0.009840380400419235,0.00509888818487525,-0.0014743260107934475
1772462348776242200,5.9152421875,-0.007611047942191362,0.009096825495362282,-0.0007432882557623088
1772462348786291500,5.92529150390625,-0.006001699715852737,0.008281365968286991,0.0033105756156146526
1772462348796339200,5.935339111328125,-0.00936101097613573,0.00888004433363676,0.0005853627808392048
1772462348806387200,5.94538720703125,-0.009012136608362198,0.009101885370910168,0.0006021407316438854
1772462348816436200,5.955436279296875,-0.007303453050553799,0.005379052832722664,0.001141963410191238
1772462348826484200,5.965484130859375,-0.009891779161989689,0.0070555126294493675,0.0031872710678726435
1772462348836532500,5.975532470703125,-0.00863210391253233,0.004908472299575806,0.0017845842521637678
1772462348846580200,5.985580322265625,-0.010499779134988785,0.008154066279530525,0.0026999127585440874
1772462348856629200,5.995629150390625,-0.0073716300539672375,0.005026716738939285,0.0018706043483689427
1772462348866677200,6.00567724609375,-0.008983374573290348,0.010571418330073357,0.0009046758059412241
1772462348876725200,6.015725341796875,-0.008103466592729092,0.006932741031050682,0.0008088020258583128
1772462348886774300,6.025774169921875,-0.008532768115401268,0.006198773626238108,0.002529470482841134
1772462348896822300,6.035822265625,-0.009558884426951408,0.008429969660937786,0.000978711643256247
1772462348906870300,6.045870361328125,-0.008791361004114151,0.007508782669901848,0.0010705908061936498
1772462348916919300,6.055919189453125,-0.007843541912734509,0.008635831996798515,0.0000021305288555595325
1772462348926967300,6.06596728515625,-0.007256581448018551,0.0059420447796583176,0.001193096162751317
1772462348937015300,6.076015380859375,-0.009459015913307667,0.008282696828246117,0.0015566176734864712
1772462348947064000,6.08606396484375,-0.007608384825289249,0.007187339011579752,0.002484995638951659
1772462348957112300,6.0961123046875,-0.007663778495043516,0.004978513345122337,0.001377386855892837
1772462348967160300,6.106160400390625,-0.0075812204740941525,0.008464325219392776,0.0021222729701548815
1772462348977209300,6.116209228515625,-0.007863249629735947,0.009351157583296299,0.0026322684716433287
1772462348987257300,6.12625732421875,-0.009553291834890842,0.006196909584105015,0.004995024763047695
1772462348997305300,6.136305419921875,-0.00888057705014944,0.004036553204059601,0.0033302828669548035
1772462349007354400,6.146354248046875,-0.00987127237021923,0.006998254451900721,0.003879959462210536
1772462349017402000,6.156402099609375,-0.009456618689000607,0.00893676932901144,0.002013882389292121
1772462349027450400,6.166450439453125,-0.008615858852863312,0.010298443958163261,0.0021406488958746195
1772462349037499100,6.1764990234375,-0.009078715927898884,0.00675164582207799,0.0011771172285079956
1772462349047547400,6.18654736328125,-0.009885387495160103,0.008651811629533768,0.0033039175905287266
1772462349057595100,6.19659521484375,-0.009407882578670979,0.008983907289803028,0.0028727517928928137
1772462349067644400,6.20664453125,-0.006328469607979059,0.005997172556817532,0.0022335932590067387
1772462349077692200,6.216692138671875,-0.008436094969511032,0.00808908510953188,0.004580903332680464
1772462349087740200,6.226740234375,-0.0062704128213226795,0.005917277652770281,0.001868473831564188
1772462349097789200,6.2367890625,-0.008095210418105125,0.008742624893784523,0.0031334753148257732
1772462349107837200,6.246837158203125,-0.008565258234739304,0.008983108215034008,0.0027683558873832226
1772462349117885400,6.256885498046875,-0.008103732950985432,0.005930060520768166,0.0030282805673778057
1772462349127933200,6.26693310546875,-0.008755940943956375,0.006115150637924671,0.00245090713724494
1772462349137982500,6.276982421875,-0.008189752697944641,0.006500776391476393,0.0013800500892102718
1772462349148030200,6.2870302734375,-0.007987885735929012,0.006710100453346968,0.0018319884547963738
1772462349158078200,6.297078125,-0.008763131685554981,0.007174556143581867,0.002170742489397526
1772462349168127200,6.307127197265625,-0.006957508157938719,0.010067547671496868,0.005375057924538851
1772462349178175200,6.31717529296875,-0.008713330142199993,0.006905043963342905,0.0033755565527826548
1772462349188223500,6.327223388671875,-0.007252320181578398,0.007339938078075647,0.0016101471846923232
1772462349198272300,6.337272216796875,-0.008472047746181488,0.007733287289738655,0.002183525823056698
1772462349208320300,6.3473203125,-0.007674431428313255,0.0066062374971807,0.0043295007199049
1772462349218368300,6.3573681640625,-0.0059716058894991875,0.005511944647878408,0.001568069215863943
1772462349228417300,6.367417236328125,-0.008300806395709515,0.006416087504476309,0.0033635725267231464
1772462349238465300,6.37746533203125,-0.008013717830181122,0.006940464023500681,0.00503896689042449
1772462349248513300,6.38751318359375,-0.005589975044131279,0.008681639097630978,0.005599828902631998
1772462349258562300,6.397562255859375,-0.007789745926856995,0.008823585696518421,0.0038219024427235126
1772462349268610300,6.4076103515625,-0.007865645922720432,0.008077633567154408,0.001659948262386024
1772462349278658300,6.417658203125,-0.008065649308264256,0.008655539713799953,0.0029872676823288202
1772462349288707300,6.427707275390625,-0.007415305823087692,0.007784419693052769,0.001793905277736485
1772462349298755000,6.437755126953125,-0.00606455048546195,0.0073684342205524445,0.004019775427877903
1772462349308803300,6.44780322265625,-0.0073167686350643635,0.00905394833534956,0.0015297196805477142
1772462349318852000,6.45785205078125,-0.008651545271277428,0.007678692229092121,0.001107076066546142
1772462349328900400,6.467900390625,-0.00805925764143467,0.00893836747854948,0.0008085357258096337
1772462349338948400,6.4779482421875,-0.008296012878417969,0.008731972426176071,0.0016434367280453444
1772462349348997400,6.487997314453125,-0.007154049351811409,0.010639328509569168,0.0016042882343754172
1772462349359045400,6.49804541015625,-0.008766593411564827,0.007784419693052769,0.0019800602458417416
1772462349369093000,6.508093017578125,-0.009831857867538929,0.00962786003947258,0.0025158883072435856
1772462349379142400,6.518142333984375,-0.0072837453335523605,0.007201453670859337,0.0019273296929895878
1772462349389190100,6.528190185546875,-0.007334345486015081,0.004457865376025438,0.0030479878187179565
1772462349399238400,6.53823828125,-0.009406550787389278,0.006659234408289194,0.00006950850365683436
1772462349409287200,6.548287109375,-0.007348460145294666,0.007712514605373144,0.002368349116295576
1772462349419335400,6.55833544921875,-0.007939948700368404,0.007101585157215595,0.0008026767172850668
1772462349429383200,6.568383056640625,-0.00637933611869812,0.00827683787792921,0.0005877596559002995
1772462349439431200,6.57843115234375,-0.008294414728879929,0.009640909731388092,0.0005198490689508617
1772462349449480200,6.588480224609375,-0.008246478624641895,0.008072307333350182,-0.00036458674003370106
1772462349459528200,6.598528076171875,-0.010040916502475739,0.007386011071503162,0.0007499461644329131
1772462349469576400,6.608576416015625,-0.009408148936927319,0.007014499977231026,0.002323341788724065
1772462349479625200,6.618625244140625,-0.008445682935416698,0.00714792450889945,0.0008290420519188046
1772462349489673500,6.628673583984375,-0.006258961278945208,0.0076089175418019295,0.0013366405619308352
1772462349499721200,6.63872119140625,-0.00999218039214611,0.005811017472296953,-0.0008314388687722385
1772462349509770500,6.6487705078125,-0.006136189214885235,0.005868275184184313,0.0012897689593955874
1772462349519818200,6.658818359375,-0.008194812573492527,0.007892011664807796,0.0022008363157510757
1772462349529866200,6.6688662109375,-0.0071157002821564674,0.007016364019364119,0.0035393410362303257
1772462349539915300,6.678915283203125,-0.007645136676728725,0.007899468764662743,0.0021406488958746195
1772462349549963300,6.68896337890625,-0.008731706067919731,0.007570301648229361,0.0038373488932847977
1772462349560011300,6.69901123046875,-0.0083660539239645,0.006651244591921568,0.00358754419721663
1772462349570060300,6.709060302734375,-0.007410511840134859,0.0062642875127494335,0.001213868847116828
1772462349580108300,6.7191083984375,-0.0075663067400455475,0.007137271575629711,0.003460511565208435
1772462349590156300,6.72915625,-0.010210559703409672,0.004794488660991192,0.0038860845379531384
1772462349600205000,6.739205078125,-0.007613977417349815,0.008270978927612305,0.0011049455497413874
1772462349610253300,6.74925341796875,-0.008841427974402905,0.006336192600429058,0.0019110844004899263
1772462349620301300,6.75930126953125,-0.0068302094005048275,0.007364439312368631,-0.00020772656716872007
1772462349630350300,6.769350341796875,-0.008847021497786045,0.005602758377790451,0.0033188313245773315
1772462349640398300,6.7793984375,-0.00700944010168314,0.006682670209556818,0.0009704558760859072
1772462349650446000,6.789446044921875,-0.0059809270314872265,0.00774607015773654,0.002672215923666954
1772462349660495400,6.799495361328125,-0.007757788058370352,0.005000883713364601,-0.00041518680518493056
1772462349670543000,6.809543212890625,-0.010155431926250458,0.005917810369282961,0.0018365158466622233
1772462349680591400,6.81959130859375,-0.007725563831627369,0.00888084340840578,0.0033936661202460527
1772462349690640100,6.82964013671875,-0.007388940546661615,0.008610798977315426,0.005775064695626497
1772462349700688400,6.8396884765625,-0.008802279829978943,0.008343949913978577,0.0010016148444265127
1772462349710736600,6.849736572265625,-0.007391603663563728,0.00951121374964714,0.0043923514895141125
1772462349720786000,6.859785888671875,-0.007583084981888533,0.005756688769906759,0.0019915117882192135
1772462349730833700,6.869833740234375,-0.007672034204006195,0.008160990662872791,-0.00036618465674109757
1772462349740881700,6.879881591796875,-0.007932491600513458,0.006431267596781254,0.0018247979460284114
1772462349750930700,6.8899306640625,-0.00865953415632248,0.009604424238204956,0.001437308033928275
1772462349760978700,6.899978759765625,-0.006401706486940384,0.007970308884978294,0.002945189829915762
1772462349771027000,6.91002685546875,-0.007800665218383074,0.00882038939744234,0.00011851066665258259
1772462349781075700,6.92007568359375,-0.009910954162478447,0.007965780794620514,0.0016508935950696468
1772462349791124000,6.9301240234375,-0.009905627928674221,0.00845367182046175,0.003968109842389822
1772462349801171700,6.940171630859375,-0.012239089235663414,0.007551925722509623,0.0011696603614836931
1772462349811221000,6.950220947265625,-0.009467271156609058,0.008076834492385387,0.004764928016811609
1772462349821268700,6.960268798828125,-0.005083708092570305,0.00800519622862339,0.0025779400020837784
1772462349831316700,6.970316650390625,-0.010010822676122189,0.006072007119655609,0.003754524514079094
1772462349841364700,6.98036474609375,-0.006232329644262791,0.005720470100641251,0.0034373418893665075
1772462349851413800,6.990413818359375,-0.007124488707631826,0.0060080913826823235,0.0022833943367004395
1772462349861461800,7.000461669921875,-0.007513309828937054,0.008169513195753098,0.0010785802733153105
1772462349871509800,7.010509765625,-0.006449377164244652,0.00686056911945343,0.0012740562669932842
1772462349881558800,7.020558837890625,-0.009011072106659412,0.005278651602566242,0.0008080030675046146
1772462349891606800,7.030606689453125,-0.007732488214969635,0.00737296137958765,0.000494016392622143
1772462349901654800,7.04065478515625,-0.00935328844934702,0.004245345015078783,0.0002996056282427162
1772462349911703800,7.050703857421875,-0.007537811063230038,0.005392368417233229,-0.0016040218761190772
1772462349921751800,7.060751708984375,-0.008858206681907177,0.004623247776180506,0.003070358419790864
1772462349931799800,7.0707998046875,-0.007673099637031555,0.005013134330511093,0.000809068325906992
1772462349941848800,7.080848876953125,-0.007909322157502174,0.008351939730346203,0.0008817726047709584
1772462349951896600,7.090896484375,-0.008047539740800858,0.005481051746755838,-0.0015182681381702423
1772462349961944800,7.10094482421875,-0.00618093041703105,0.005910885985940695,0.012131763622164726
1772462349971993600,7.11099365234375,-0.008843558840453625,0.009271528571844101,-0.0007038734620437026
1772462349982041900,7.121041748046875,-0.007223558146506548,0.005915147252380848,0.0013195963110774755
1772462349992089900,7.13108984375,-0.007203584536910057,-0.0047835698351264,-0.01059272326529026
1772462350002139000,7.141138916015625,-0.008505870588123798,-0.004658667836338282,-0.004209658596664667
1772462350012187000,7.151186767578125,-0.008763930760324001,0.006259493995457888,0.0018437063554301858
1772462350022234600,7.161234619140625,-0.008113053627312183,0.016646621748805046,0.0033547841012477875
1772462350032284000,7.171283935546875,-0.008094944059848785,0.0101362569257617,0.004025900736451149
1772462350042331600,7.18133154296875,-0.008688562549650669,0.0030067088082432747,-0.00049082055920735
1772462350052380000,7.1913798828125,-0.008290953002870083,0.0003195793251506984,0.0024594292044639587
1772462350062428700,7.2014287109375,-0.00780492601916194,0.01164733525365591,0.004593953024595976
1772462350072477000,7.211476806640625,-0.008458998054265976,0.013469736091792583,0.0014421016676351428
1772462350082524700,7.221524658203125,-0.007390271872282028,0.006845389027148485,0.002832005498930812
1772462350092574000,7.231573974609375,-0.010072607547044754,0.0029766152147203684,0.0020793962758034468
1772462350102621700,7.24162158203125,-0.007243798114359379,0.003151052165776491,0.00279099284671247
1772462350112669700,7.251669677734375,-0.008321579545736313,0.0124247120693326,0.0032381375785917044
1772462350122718700,7.26171875,-0.007840346544981003,0.009594304487109184,0.0018378474051132798
1772462350132766700,7.2717666015625,-0.008702144958078861,0.0059838565066456795,0.0036738307680934668
1772462350142815000,7.28181494140625,-0.010064885020256042,0.0025782061275094748,0.0030011162161827087
1772462350152863700,7.29186376953125,-0.007836883887648582,0.006612096447497606,0.0016881778137758374
1772462350162912000,7.301912109375,-0.007151652593165636,0.010279535315930843,0.0015478292480111122
1772462350172959700,7.311959716796875,-0.00785499345511198,0.008054464124143124,0.0015033544041216373
1772462350183008800,7.3220087890625,-0.008816394954919815,0.0046299053356051445,0.00009560748003423214
1772462350193056800,7.332056884765625,-0.005419266410171986,0.008867527358233929,0.0016620787791907787
1772462350203104800,7.342104736328125,-0.004869057331234217,0.010318417102098465,0.003555852686986327
1772462350213153800,7.35215380859375,-0.007284810766577721,0.009806823916733265,0.002901514060795307
1772462350223201800,7.362201904296875,-0.00811811350286007,0.0049524144269526005,0.003507383167743683
1772462350233249800,7.372249755859375,-0.006985471583902836,0.006911169271916151,0.0026988473255187273
1772462350243298800,7.382298828125,-0.006970291491597891,0.009890181012451649,0.0008029430755414069
1772462350253346600,7.3923466796875,-0.010513360612094402,0.009197493083775043,0.0041193775832653046
1772462350263394800,7.402394775390625,-0.006761233322322369,0.009101086296141148,0.000011451592399680521
1772462350273443600,7.412443603515625,-0.010548247955739498,0.006321811582893133,0.0028674255590885878
1772462350283491800,7.422491943359375,-0.008056062273681164,0.006734601687639952,0.0006854976527392864
1772462350293539800,7.432539794921875,-0.007634217385202646,0.009011871181428432,0.0014181332662701607
1772462350303587600,7.442587646484375,-0.008324774913489819,0.00902811624109745,0.0026256104465574026
1772462350313636900,7.452636962890625,-0.0082102594897151,0.008343683555722237,0.002046372974291444
1772462350323684600,7.4626845703125,-0.009472863748669624,0.005368133541196585,0.004885302856564522
1772462350333732900,7.47273291015625,-0.00800333172082901,0.005081311333924532,0.0022620889358222485
1772462350343781600,7.48278173828125,-0.006909038871526718,0.007852597162127495,0.00586747657507658
1772462350353830000,7.492829833984375,-0.007481884676963091,0.008445150218904018,0.0022482406347990036
1772462350363878000,7.5028779296875,-0.008684301748871803,0.006428338121622801,0.0049185920506715775
1772462350373927000,7.512927001953125,-0.007138603366911411,0.005871205125004053,0.0038045919500291348
1772462350383975000,7.522974853515625,-0.008327438496053219,0.009424926713109016,0.0056922403164207935
1772462350394022700,7.533022705078125,-0.0065170214511454105,0.006081328261643648,0.0017180051654577255
1772462350404071700,7.54307177734375,-0.007415572181344032,0.006908506155014038,0.002101234160363674
1772462350414119700,7.55311962890625,-0.008066714741289616,0.00691969133913517,0.0017262609908357263
1772462350424168000,7.56316796875,-0.010083526372909546,0.0059257997199893,0.0014623417519032955
1772462350434216700,7.573216796875,-0.0062762717716395855,0.007154582068324089,0.0025630262680351734
1772462350444265000,7.583264892578125,-0.009868609718978405,0.004599545616656542,-0.00038509309524670243
1772462350454312700,7.593312744140625,-0.007268831599503756,0.006992661859840155,0.0016487629618495703
1772462350464361700,7.60336181640625,-0.00968511775135994,0.007677094545215368,0.0001608549355296418
1772462350474409700,7.61340966796875,-0.0059686764143407345,0.009064335376024246,0.000886566296685487
1772462350484457700,7.623457763671875,-0.008976717479526997,0.008975119329988956,0.0007126618875190616
1772462350494506800,7.6335068359375,-0.009076319634914398,0.005890113301575184,0.0031577101908624172
1772462350504554800,7.6435546875,-0.008341020904481411,0.007261907681822777,0.0034432008396834135
1772462350514602800,7.653602783203125,-0.008979646489024162,0.00860600546002388,0.005118329077959061
1772462350524651800,7.66365185546875,-0.009098690003156662,0.008204666897654533,0.004065048880875111
1772462350534699800,7.67369970703125,-0.007303186692297459,0.005410477984696627,0.004850149154663086
1772462350544747800,7.683747802734375,-0.00968671590089798,0.007141266483813524,0.0032077773939818144
1772462350554796800,7.693796875,-0.009106147103011608,0.00600383011624217,0.002344913315027952
1772462350564844800,7.7038447265625,-0.009046492166817188,0.00926433876156807,0.0011241203173995018
1772462350574892800,7.713892822265625,-0.007512511219829321,0.005906092468649149,0.0018753979820758104
1772462350584941800,7.72394189453125,-0.00833862368017435,0.009181780740618706,-0.0002724413643591106
1772462350594989800,7.73398974609375,-0.009340238757431507,0.006785734556615353,0.0021409152541309595
1772462350605037600,7.74403759765625,-0.006591590121388435,0.006602775305509567,0.004524710588157177
1772462350615086800,7.7540869140625,-0.008857141248881817,0.00851385947316885,0.004635232035070658
1772462350625134600,7.764134521484375,-0.008391087874770164,0.0067990501411259174,0.0031374699901789427
1772462350635182800,7.774182861328125,-0.0076179723255336285,0.006148972548544407,0.003139334265142679
1772462350645231600,7.784231689453125,-0.009763414971530437,0.006586529780179262,0.000711064029019326
1772462350655279900,7.79427978515625,-0.010121610015630722,0.009041432291269302,0.003971572034060955
1772462350665327900,7.804327880859375,-0.010117349214851856,0.008198008872568607,0.002686064224690199
1772462350675377000,7.814376953125,-0.007890413515269756,0.006101568229496479,0.0023190807551145554
1772462350685425000,7.8244248046875,-0.01110511552542448,0.005131645128130913,0.0018040252616629004
1772462350695472600,7.83447265625,-0.008011853322386742,0.005842176266014576,0.0009832390351220965
1772462350705522000,7.84452197265625,-0.007508249953389168,0.007412109989672899,0.0022365227341651917
1772462350715570000,7.85456982421875,-0.007740477565675974,0.006450442597270012,0.0022266688756644726
1772462350725618000,7.864617919921875,-0.008258994668722153,0.006993993651121855,0.001796834752894938
1772462350735667000,7.8746669921875,-0.010147974826395512,0.0049409628845751286,-0.000059921123465755954
1772462350745715000,7.88471484375,-0.006915962789207697,0.0070579093880951405,0.0017741979099810123
1772462350755763000,7.894762939453125,-0.007767109200358391,0.0070706927217543125,0.002828276949003339
1772462350765812000,7.90481201171875,-0.0070549799129366875,0.007219563238322735,0.002936401404440403
1772462350775860000,7.91485986328125,-0.009378321468830109,0.007801996544003487,0.002011485630646348
1772462350785908000,7.924907958984375,-0.008813997730612755,0.007527690846472979,0.00561048137024045
1772462350795957000,7.93495703125,-0.005512743256986141,0.007993478327989578,0.0035691685043275356
1772462350806005000,7.9450048828125,-0.006247243378311396,0.009351690299808979,0.002263953210785985
1772462350816053000,7.955052978515625,-0.008562329225242138,0.008074704557657242,0.003040530951693654
1772462350826101000,7.96510107421875,-0.01074079517275095,0.007182545494288206,0.0036330842413008213
1772462350836150000,7.97514990234375,-0.007686149328947067,0.008814796805381775,0.004310326185077429
1772462350846198000,7.985197998046875,-0.008508799597620964,0.007312241476029158,0.0012836436508223414
1772462350856246000,7.99524609375,-0.00812157616019249,0.008408931083977222,0.0032735576387494802
1772462350866295000,8.005294921875,-0.008565790951251984,0.00803262647241354,-0.0002407497668173164
1772462350876343000,8.015343017578125,-0.007711182814091444,0.008175638504326344,0.0016421051695942879
1772462350886391000,8.02539111328125,-0.007727960590273142,0.009048888459801674,0.0017070862231776118
1772462350896440000,8.035440185546875,-0.007666175253689289,0.008008657954633236,0.0013912353897467256
1772462350906488000,8.045488037109376,-0.0067633637227118015,0.009070992469787598,0.0025457157753407955
1772462350916537000,8.055537109375,-0.007568437606096268,0.005706089083105326,0.001600826159119606
1772462350926584800,8.065584716796875,-0.007880826480686665,0.009075786918401718,0.0028719529509544373
1772462350936632800,8.0756328125,-0.008217183873057365,0.008625978603959084,0.0016900419723242521
1772462350946681000,8.08568115234375,-0.007638745009899139,0.00848349928855896,-0.0013289173366501927
1772462350956729900,8.095729736328124,-0.008827846497297287,0.009435580112040043,0.004917527083307505
1772462350966778000,8.105778076171875,-0.008644354529678822,0.006221144460141659,0.002246110001578927
1772462350976825900,8.115825927734376,-0.005197425372898579,0.009268333204090595,0.0014378406340256333
1772462350986875100,8.125875244140625,-0.005225388333201408,0.00872345082461834,0.002439721953123808
1772462350996923000,8.1359228515625,-0.008913599886000156,0.009369533509016037,0.0036639769095927477
1772462351006971000,8.145970947265624,-0.010914965532720089,0.00774607015773654,0.0033095101825892925
1772462351017020000,8.15602001953125,-0.006532734259963036,0.009863017126917839,0.0020927118603140116
1772462351027068000,8.16606787109375,-0.008716792799532413,0.006540190894156694,0.0009169263648800552
1772462351037116200,8.1761162109375,-0.007277354132384062,0.008225439116358757,-0.0013880395563319325
1772462351047165000,8.1861650390625,-0.006758836563676596,0.010061688721179962,0.000639691308606416
1772462351057213200,8.196213134765625,-0.008687764406204224,0.007697600871324539,0.0007744472241029143
1772462351067261000,8.206260986328125,-0.008714928291738033,0.0068387314677238464,0.0028043086640536785
1772462351077310200,8.216310302734374,-0.008355667814612389,0.007119694724678993,0.0020839234348386526
1772462351087358000,8.22635791015625,-0.007152451667934656,0.008128500543534756,0.0011520835105329752
1772462351097406000,8.236406005859376,-0.011352256871759892,0.0049257827922701836,0.003610979998484254
1772462351107455000,8.246455078125,-0.006727943662554026,0.009534915909171104,0.0014061490073800087
1772462351117503000,8.2565029296875,-0.009052617475390434,0.006729009095579386,0.004797418136149645
1772462351127551000,8.266551025390624,-0.008831308223307133,0.006631004624068737,0.001802960061468184
1772462351137600000,8.27660009765625,-0.009008408524096012,0.006174805108457804,0.0017358483746647835
1772462351147648000,8.28664794921875,-0.00965742114931345,0.007522630970925093,0.0015779229579493403
1772462351157696000,8.296696044921875,-0.011925901286303997,0.007369232829660177,-0.0003515372518450022
1772462351167744800,8.306744873046876,-0.0072962623089551926,0.006531136110424995,0.002192580606788397
1772462351177793000,8.31679296875,-0.00595429539680481,0.006943659856915474,0.0008679241873323917
1772462351187841000,8.326841064453125,-0.007556986063718796,0.005553489550948143,0.0036946034524589777
1772462351197890000,8.33689013671875,-0.008375641889870167,0.008416121825575829,0.0007534082396887243
1772462351207938000,8.34693798828125,-0.009380718693137169,0.00848802737891674,0.0024743429385125637
1772462351217985800,8.35698583984375,-0.007215036079287529,0.007603857666254044,-0.00010439591278554872
1772462351228035000,8.36703515625,-0.00851359311491251,0.007829426787793636,0.0022953785955905914
1772462351238082800,8.377082763671876,-0.008746353909373283,0.010307231917977333,0.0030240193009376526
1772462351248131000,8.387131103515625,-0.007694138679653406,0.008956477046012878,0.00330231967382133
1772462351258179800,8.397179931640625,-0.008317585103213787,0.007216101046651602,0.005919141694903374
1772462351268228000,8.40722802734375,-0.005959089379757643,0.008735168725252151,0.0043992758728563786
1772462351278275800,8.41727587890625,-0.008225971832871437,0.007763647008687258,0.0015899071004241705
1772462351288325000,8.4273251953125,-0.0076086511835455894,0.00811864621937275,0.0014916365034878254
1772462351298372900,8.437372802734375,-0.00839907769113779,0.007277354132384062,0.0028067054226994514
1772462351308420900,8.4474208984375,-0.007803328335285187,0.009619870223104954,0.0036786242853850126
1772462351318470000,8.457469970703125,-0.008552475832402706,0.00771704176440835,0.0022477079182863235
1772462351328518000,8.467517822265625,-0.0076094502583146095,0.005086371209472418,0.0036698358599096537
1772462351338566100,8.477566162109374,-0.00945129245519638,0.008987103588879108,0.0012093414552509785
1772462351348615000,8.487614990234375,-0.00606481684371829,0.006614226847887039,0.0030517163686454296
1772462351358663200,8.4976630859375,-0.00714765815064311,0.007792675402015448,0.0021821942646056414
1772462351368711000,8.5077109375,-0.008948487229645252,0.006107427179813385,0.003576625371351838
1772462351378760200,8.51776025390625,-0.00751890242099762,0.008810536004602909,0.003066896228119731
1772462351388808000,8.527807861328125,-0.008859271183609962,0.00706856232136488,0.002010952914133668
1772462351398856000,8.53785595703125,-0.009640643373131752,0.008868326433002949,0.0027561055030673742
1772462351408905000,8.547905029296874,-0.007188138086348772,0.006759369280189276,0.004162254277616739
1772462351418953000,8.557952880859375,-0.008192682638764381,0.0059654805809259415,0.003477022983133793
1772462351429001200,8.568001220703126,-0.008056328631937504,0.008735168725252151,0.0027515781112015247
1772462351439050000,8.578050048828125,-0.007632353343069553,0.006865363102406263,0.0021606225054711103
1772462351449098000,8.588097900390625,-0.00833702553063631,0.007091199047863483,-0.0015755260828882456
1772462351459146000,8.59814599609375,-0.00691915862262249,0.007781223859637976,0.0022889869287610054
1772462351469195000,8.608195068359375,-0.007719438523054123,0.006235791835933924,0.00315984059125185
1772462351479243000,8.618242919921874,-0.008739695884287357,0.007905594073235989,0.0019489012192934752
1772462351489291000,8.628291015625,-0.008071241900324821,0.006643521599471569,0.003064499469473958
1772462351499340000,8.638340087890626,-0.010807373560965061,0.0065077003091573715,0.005252019967883825
1772462351509388000,8.648387939453125,-0.008478972129523754,0.007869641296565533,0.006392385344952345
1772462351519435800,8.658435791015625,-0.0070674968883395195,0.0073479278944432735,0.0006474144756793976
1772462351529485000,8.668485107421875,-0.007794007193297148,0.007449926808476448,0.004289020784199238
1772462351539532800,8.67853271484375,-0.007251787465065718,0.005331914871931076,0.003890611929818988
1772462351549581000,8.6885810546875,-0.007181480061262846,0.010478206910192966,0.0028724854346364737
1772462351559629800,8.6986298828125,-0.00839534867554903,0.009465406648814678,0.0036424053832888603
1772462351569678000,8.708677978515626,-0.01076715998351574,0.006970291491597891,0.0026844663079828024
1772462351579726000,8.71872607421875,-0.007562845014035702,0.009607086889445782,0.0017678063595667481
1772462351589775000,8.728775146484375,-0.00771704176440835,0.007482683751732111,0.002243979601189494
1772462351599823000,8.738822998046874,-0.007020092569291592,0.009501892141997814,0.0010982876410707831
1772462351609870800,8.748870849609375,-0.007351389620453119,0.007759119849652052,0.002532133599743247
1772462351619920100,8.758920166015624,-0.00971361342817545,0.006090383045375347,0.0005795038305222988
1772462351629968000,8.7689677734375,-0.008511463180184364,0.008441953919827938,0.001814411603845656
1772462351640016100,8.77901611328125,-0.008897088468074799,0.005922337528318167,0.0025654230266809464
1772462351650065000,8.78906494140625,-0.009845972992479801,0.007638478651642799,0.000740625080652535
1772462351660113200,8.799113037109375,-0.007284544408321381,0.007397728972136974,0.001939846551977098
1772462351670161000,8.809160888671874,-0.010900318622589111,0.00800333172082901,0.00330311874859035
1772462351680210000,8.8192099609375,-0.009149289689958096,0.007050186395645142,0.002326803747564554
1772462351690258000,8.8292578125,-0.007137804292142391,0.008540491573512554,0.002064482541754842
1772462351700306000,8.839305908203125,-0.008852347731590271,0.006966829299926758,0.003043460426852107
1772462351710355200,8.849355224609376,-0.007743673399090767,0.007792941760271788,0.002162220422178507
1772462351720403200,8.8594033203125,-0.00598545465618372,0.009468602947890759,0.0006439523422159255
1772462351730451500,8.869451416015625,-0.00893863383680582,0.006935670506209135,0.0017438378417864442
1772462351740500200,8.879500244140624,-0.010892328806221485,0.006480802316218615,0.0008266451768577099
1772462351750548200,8.88954833984375,-0.010056895203888416,0.007909322157502174,0.0013675332302227616
1772462351760596200,8.89959619140625,-0.008853146806359291,0.008945291861891747,0.0032000544015318155
1772462351770645200,8.909645263671875,-0.007153517100960016,0.007498662453144789,0.002541188383474946
1772462351780693200,8.919693359375,-0.0082115912809968,0.009837450459599495,0.0029800771735608578
1772462351790741200,8.9297412109375,-0.007925567217171192,0.008897088468074799,0.0008572715451009572
1772462351800790300,8.939790283203125,-0.008175105787813663,0.007114634849131107,0.0007800398743711412
1772462351810838300,8.94983837890625,-0.010148507542908192,0.00860307551920414,0.006387858185917139
1772462351820886000,8.959885986328125,-0.007674431428313255,0.00558145297691226,0.003061569994315505
1772462351830935300,8.969935302734376,-0.009610016830265522,0.005961219780147076,0.004282895475625992
1772462351840983000,8.979983154296875,-0.008254733867943287,0.00896606408059597,0.003605121048167348
1772462351851031300,8.99003125,-0.008481102995574474,0.006081594619899988,0.002416019793599844
1772462351861080000,9.000080078125,-0.007015032693743706,0.007124754600226879,0.0012503541074693203
1772462351871128300,9.01012841796875,-0.009374593384563923,0.007330351043492556,0.0003914846747647971
1772462351881176300,9.02017626953125,-0.007553523872047663,0.008808671496808529,0.0031007183715701103
1772462351891225300,9.030225341796875,-0.006525010801851749,0.007114634849131107,0.0019201391842216253
1772462351901273300,9.0402734375,-0.010396714322268963,0.007404120173305273,0.003425091505050659
1772462351911321000,9.050321044921875,-0.007783621083945036,0.003775297198444605,0.0032386700622737408
1772462351921370400,9.060370361328125,-0.0062736086547374725,0.008183361031115055,0.0009528790251351893
1772462351931418000,9.070418212890624,-0.008921589702367783,0.008736233226954937,0.0034474621061235666
1772462351941466400,9.08046630859375,-0.008919192478060722,0.008987369947135448,0.0015044197207316756
1772462351951515100,9.09051513671875,-0.006727943662554026,0.006906109396368265,0.0013970943400636315
1772462351961563400,9.1005634765625,-0.008449411019682884,0.007168963085860014,0.004772651009261608
1772462351971611100,9.110611083984375,-0.008913067169487476,0.006481601390987635,0.0018929748330265284
1772462351981660200,9.12066015625,-0.008333563804626465,0.008846755139529705,0.0026136261876672506
1772462351991708200,9.130708251953125,-0.008715727366507053,0.006824882701039314,0.00205276464112103
1772462352001756200,9.140756103515624,-0.010449178516864777,0.006335660349577665,0.000672181835398078
1772462352011805200,9.15080517578125,-0.008704808540642262,0.006251237820833921,0.0013233247445896268
1772462352021853200,9.160853271484376,-0.006066414527595043,0.00780545873567462,0.0011374361347407103
1772462352031901200,9.170901123046875,-0.009808954782783985,0.009002549573779106,0.0025939189363271
1772462352041950200,9.1809501953125,-0.007781490217894316,0.008926116861402988,0.0016852483386173844
1772462352051998200,9.190998291015624,-0.007250722497701645,0.008167648687958717,0.003299123840406537
1772462352062046200,9.201046142578125,-0.007297860458493233,0.0095109473913908,0.001517202821560204
1772462352072095200,9.21109521484375,-0.006482666824012995,0.008233428932726383,0.003912982530891895
1772462352082143200,9.221143310546875,-0.008946090936660767,0.005941246170550585,0.0031827439088374376
1772462352092191200,9.231191162109376,-0.009073123335838318,0.00686216726899147,0.0013875069562345743
1772462352102240300,9.241240234375,-0.009032377041876316,0.008145278319716454,0.003315103007480502
1772462352112288300,9.251288330078125,-0.01016981340944767,0.006391320377588272,0.0006764429272152483
1772462352122336300,9.261336181640624,-0.00896766223013401,0.007554056588560343,0.00290444353595376
1772462352132385300,9.27138525390625,-0.007829426787793636,0.008518652990460396,0.0027659591287374496
1772462352142433300,9.281433349609374,-0.007396397180855274,0.0059756007976830006,0.0008884305134415627
1772462352152481300,9.291481201171875,-0.007963650859892368,0.007160441018640995,0.002273007994517684
1772462352162530300,9.3015302734375,-0.008769256994128227,0.00657614367082715,0.00010892329009948298
1772462352172578300,9.311578369140625,-0.008349276147782803,0.008607069961726665,0.002243713242933154
1772462352182626300,9.321626220703125,-0.00848429836332798,0.005453887395560741,0.0006815029191784561
1772462352192675300,9.33167529296875,-0.006070675794035196,0.008738097734749317,-0.0007664577569812536
1772462352202723300,9.341723388671875,-0.007186274044215679,0.006922354456037283,0.003195793367922306
1772462352212771000,9.35177099609375,-0.00788695178925991,0.004911135416477919,0.00021118867152836174
1772462352222820400,9.3618203125,-0.010144779458642006,0.007862716913223267,0.0019478360190987587
1772462352232868000,9.3718681640625,-0.007509581744670868,0.006184658966958523,0.003179814200848341
1772462352242916400,9.381916259765624,-0.007664311211556196,0.006776946131139994,0.00307675008662045
1772462352252965000,9.391965087890625,-0.008310128003358841,0.004562527406960726,0.001416002749465406
1772462352263013000,9.40201318359375,-0.0100827282294631,0.009030512534081936,0.001332645770162344
1772462352273061400,9.412061279296875,-0.00794127956032753,0.006325273774564266,0.004706338047981262
1772462352283110100,9.422110107421876,-0.008698949590325356,0.008563927374780178,0.0005826996639370918
1772462352293158400,9.432158447265625,-0.008676844649016857,0.0063066319562494755,0.0025337315164506435
1772462352303206100,9.4422060546875,-0.010179400444030762,0.008905078284442425,0.0013049489352852106
1772462352313255400,9.45225537109375,-0.008272577077150345,0.006197442300617695,0.002825347473844886
1772462352323303200,9.46230322265625,-0.008832906372845173,0.00592686515301466,0.004150004126131535
1772462352333351200,9.47235107421875,-0.010008159093558788,0.006321545224636793,-0.0009408948244526982
1772462352343400200,9.482400146484375,-0.00857324805110693,0.009400958195328712,0.004841360729187727
1772462352353448200,9.4924482421875,-0.00726483715698123,0.00749040674418211,0.004488491453230381
1772462352363496200,9.50249609375,-0.009969810023903847,0.006154831498861313,0.004543086513876915
1772462352373545200,9.512545166015625,-0.006202502176165581,0.012221512384712696,0.003207511268556118
1772462352383593200,9.52259326171875,-0.00788641907274723,0.0038695731200277805,0.0036581179592758417
1772462352393641200,9.53264111328125,-0.007299990858882666,0.005567338317632675,0.0030929953791201115
1772462352403690200,9.542690185546874,-0.010011355392634869,0.007611047942191362,0.00063383235828951
1772462352413738200,9.55273828125,-0.007191866636276245,0.008822253905236721,0.00447064870968461
1772462352423786200,9.5627861328125,-0.009089102037250996,0.010087255388498306,0.0025827335193753242
1772462352433835300,9.572835205078125,-0.008341286331415176,0.009617740288376808,0.0035145736765116453
1772462352443883300,9.58288330078125,-0.007742342073470354,0.008246212266385555,0.0013235911028459668
1772462352453931300,9.59293115234375,-0.005940979812294245,0.007270163390785456,0.0003603257064241916
1772462352463980300,9.602980224609375,-0.008656605146825314,0.004614459350705147,0.004060521721839905
1772462352474028300,9.6130283203125,-0.00968431867659092,0.006698648910969496,-0.00012303804396651685
1772462352484076300,9.623076171875,-0.008374310098588467,0.00606321869418025,0.0006000102148391306
1772462352494125000,9.633125,-0.009811618365347385,0.005304484162479639,0.0024506407789885998
1772462352504173300,9.64317333984375,-0.008948753587901592,0.007689611054956913,0.0029558425303548574
1772462352514221300,9.65322119140625,-0.006010754499584436,0.005913549102842808,0.002936667762696743
