time,seconds_elapsed,z,y,x
1772536403947689700,0.081689697265625,0.030285248148441312,0.066609630330652,0.07337298698574304
1772536403957737700,0.09173779296875,0.1602121892660856,0.11349559240713715,0.11815331855248659
1772536403967785700,0.10178564453125,0.22876608553230762,0.12982611109167336,0.16794603492114693
1772536403977834800,0.111834716796875,0.1945715549856424,0.08663871127218008,0.1793643047099933
1772536403987882800,0.1218828125,0.08089432240128516,0.008957871024683118,0.11339845217559485
1772536403997930800,0.1319306640625,0.07753682866692542,-0.006057254212349653,0.11243242015503346
1772536404007978800,0.141978759765625,0.0877905116558075,-0.005559095431864261,0.045753633578307924
1772536404018027800,0.15202783203125,0.1364449447095394,-0.015861439868062734,0.039371969717182216
1772536404028075800,0.16207568359375,0.14416881695985792,-0.0498168278966099,0.0045011838767677545
1772536404038123800,0.172123779296875,0.1388029060125351,-0.042951691367477174,-0.042893750635161994
1772536404048171800,0.182171875,0.13364625390172005,-0.038529198750108476,-0.06957903806287795
1772536404058219800,0.1922197265625,0.08627309283018111,-0.05926920443996787,-0.1020079837091267
1772536404068268800,0.202268798828125,0.05530512311458587,-0.08291691427007317,-0.1414304415045306
1772536404078314200,0.212314208984375,0.018527590337395667,-0.08688961729332804,-0.12922445540409536
1772536404088362500,0.222362548828125,-0.02183013901412487,-0.10921849960982799,-0.11211637647580355
1772536404098410200,0.23241015625,-0.02289104624390602,-0.10937259419299661,-0.08860701567046343
1772536404108458200,0.242458251953125,-0.06628828942179679,-0.08239289039596914,-0.08069375832788646
1772536404118507300,0.25250732421875,-0.10523965910673141,-0.03135470401085913,-0.09493282115850597
1772536404128555300,0.26255517578125,-0.05674538505077362,-0.003790697519853711,-0.15151855866815894
1772536404138603500,0.272603515625,0.03164426154196262,0.08176146062463521,-0.1270260685769841
1772536404148651300,0.2826513671875,0.041592824104428286,0.0823256703786552,-0.13164134382009504
1772536404158699300,0.29269921875,-0.02197860757410526,0.029383477003127333,-0.08220200746636837
1772536404168748300,0.302748291015625,-0.04907996498942375,-0.00789813283868134,-0.09572660188470035
1772536404178796300,0.31279638671875,-0.04083002303838729,-0.00603833031617105,-0.0885925852863118
1772536404188844500,0.322844482421875,-0.024279285731911657,0.009478680028393863,-0.11443528441004454
1772536404198892300,0.332892333984375,-0.04408522544205189,0.03442395538836717,-0.1448842717528343
1772536404208940300,0.342940185546875,-0.03072714669704437,0.2053121447086334,-0.08886351118218153
1772536404218989300,0.3529892578125,0.015744681620597837,0.10378200764432549,-0.15839502030890434
1772536404229037300,0.363037353515625,-0.13072948967218398,-0.24328115229271352,-0.15965928635736926
1772536404239085300,0.373085205078125,-0.28888825353980063,-0.2906549709513783,0.01643030753089115
1772536404249133300,0.38313330078125,-0.2975210573285818,-0.1636111840546131,0.05427736923573538
1772536404259182300,0.393182373046875,-0.120977326464653,-0.05559073512293398,0.02157778995456174
1772536404269230300,0.403230224609375,0.046670565760135646,-0.005771423008292913,0.028785766838304697
1772536404279278300,0.4132783203125,0.06721884827017784,0.015083295102417469,0.01890133728692308
1772536404289326300,0.423326416015625,0.020981997752189636,0.022186551236361263,0.04236649362435564
1772536404299374300,0.433374267578125,0.00025075989067554474,0.03521021039523184,0.06956497300490737
1772536404309423400,0.44342333984375,-0.005505611678957939,0.03725457570441067,0.0682109645800665
1772536404319471400,0.453471435546875,0.009666238489747047,0.038627252297103405,0.05107630817210301
1772536404329519400,0.463519287109375,0.033038930770754815,0.03719838853776455,0.036813718335423615
1772536404339567400,0.4735673828125,0.04225917905867099,0.02486526892632246,0.0230387476189062
1772536404349615400,0.483615478515625,0.02115560075342655,-0.004868190558254718,0.02385148877389729
1772536404359664400,0.493664306640625,-0.008115501916408538,-0.043398996743559834,0.011419968555588274
1772536404369712400,0.50371240234375,-0.10159867225587367,-0.05019231014549732,0.004869816259760409
1772536404379760400,0.513760498046875,-0.11094809988141059,-0.031094737900421023,-0.04274016750864684
1772536404389808400,0.523808349609375,-0.01817629268169403,-0.0024732582457363604,-0.01681600064653903
1772536404399856400,0.5338564453125,-0.042561961397528644,-0.0044164282027631995,-0.04853002122277394
1772536404409905400,0.543905517578125,-0.07882628395557403,-0.00660385524444282,-0.08839280666420235
1772536404419953400,0.553953369140625,-0.05029810860753059,0.032894773059710856,-0.06783352783611044
1772536404430001200,0.564001220703125,-0.05356324788331985,0.053464975140616294,-0.07430458701374008
1772536404440049400,0.57404931640625,-0.02165712053477764,0.02978621258512139,-0.0773611798390746
1772536404450097400,0.584097412109375,-0.014958499678969383,0.0018107757490128278,-0.05743921253383159
1772536404460146400,0.594146484375,-0.09334346960783005,-0.014344605564326048,-0.020226832003332675
1772536404470194400,0.6041943359375,-0.1255009413689375,0.02742028717137873,-0.03903787892460823
1772536404480242200,0.6142421875,-0.001423310801386833,0.09255341520868242,-0.04224858459942043
1772536404490290400,0.62429052734375,0.07373918994963169,0.11499693688079714,-0.027620157125033438
1772536404500339200,0.634339111328125,0.04168517856299877,0.1119911791935563,-0.032617709683999414
1772536404510387500,0.644387451171875,0.025936405289173126,0.06369651936292647,-0.0066575216604396695
1772536404520435500,0.654435546875,-0.016802666240930558,0.026959537791833278,0.032882132773846384
1772536404530483200,0.664483154296875,-0.09561901332437991,0.02853701624162495,-0.006946567734889685
1772536404540531500,0.674531494140625,-0.05472527740001678,0.05957081773504615,-0.014131145476736127
1772536404550580200,0.684580322265625,0.034781975045800204,0.09210917857252061,-0.038388950029201806
1772536404560628500,0.69462841796875,0.025763386809825897,0.07949746121540666,-0.04980944830775261
1772536404570676200,0.70467626953125,-0.025253683722019193,0.031057547695189713,-0.014778320806473493
1772536404580724200,0.71472412109375,-0.05023147311210632,-0.00762209237627685,0.0015992153575643895
1772536404590772500,0.7247724609375,-0.05732523076534271,-0.05581131907105445,-0.03268076498284936
1772536404600821200,0.7348212890625,0.0339805955350399,-0.019026114444062114,-0.014114450070261955
1772536404610869500,0.744869384765625,0.05141103828549385,-0.007800152356922626,-0.022897841310873628
1772536404620917200,0.754917236328125,-0.037543840974569316,-0.017007541163265704,-0.02327343315761536
1772536404630965200,0.76496533203125,-0.0311222834944725,-0.026034312705695627,-0.028609496955946088
1772536404641013500,0.775013427734375,0.022702245673537253,0.005285246926546096,0.006145882343873381
1772536404651062300,0.785062255859375,0.03227437613904476,0.028856165193393825,-0.010910904788598418
1772536404661110500,0.795110595703125,-0.023120763346552848,0.04099712323360145,-0.01942304133977741
1772536404671158300,0.805158203125,-0.05149637848138809,0.045882557187601924,-0.02373929710369557
1772536404681206300,0.815206298828125,-0.042807460591197014,0.0700479342162609,-0.026707974183559417
1772536404691255300,0.82525537109375,-0.029043723654747007,0.08414294893369079,-0.04263356532901525
1772536404701303300,0.83530322265625,0.006896189254522323,0.07309928461089729,-0.046135801296308634
1772536404711351300,0.845351318359375,0.000789104551076889,0.03832994985096157,-0.02413699118439108
1772536404721399300,0.8553994140625,-0.04554126946926117,0.0141451374694705,-0.02829224770031869
1772536404731447300,0.865447265625,-0.0830535462617874,0.007540989964082837,-0.029216559471003708
1772536404741496300,0.875496337890625,-0.0686450816810131,0.025757176264747977,-0.05606069072224199
1772536404751544300,0.88554443359375,-0.008175707671046256,0.04852503452040255,-0.06329531815089284
1772536404761592300,0.89559228515625,0.005859831944108009,0.05686484671197831,-0.06593984131030738
1772536404771640300,0.905640380859375,-0.01773673222064972,0.04095233424380421,-0.06624065088778734
1772536404781688600,0.9156884765625,-0.04900514618754387,0.011227569522336125,-0.04354088943228125
1772536404791737300,0.9257373046875,-0.027921441626548766,-0.011209084017574786,-0.009551708731986581
1772536404801785300,0.935785400390625,-0.03496668396294117,0.005432108051329851,-0.02270505868513137
1772536404811833300,0.945833251953125,-0.05220306544601917,0.01771473958455026,-0.017727781729213892
1772536404821881300,0.95588134765625,-0.06796937437653541,0.005874225795641541,-0.0018018617901951074
1772536404831929300,0.965929443359375,-0.05236205540001392,0.00252118904069066,-0.013515570861659944
1772536404841978400,0.975978271484375,-0.00943126069009304,0.022795915306359528,-0.009623130000382661
1772536404852026000,0.986026123046875,-0.010216858109831809,0.011111249666288495,0.001806464900076389
1772536404862074400,0.996074462890625,-0.02221007824242115,0.011847966443002223,-0.006582447130233049
1772536404872122400,1.006122314453125,-0.06156652159690856,-0.0007554945424199104,-0.0035713191481307146
1772536404882170400,1.01617041015625,-0.048801732569932935,0.012513298483937977,-0.0315077756807208
1772536404892219400,1.026219482421875,-0.004117956712841988,0.01827208120636642,-0.028212387397140264
1772536404902267100,1.03626708984375,-0.023804069435596466,0.000612359744682908,-0.007713277791067958
1772536404912315400,1.0463154296875,-0.037734979632496835,-0.008748100731521845,-0.004958426124975085
1772536404922363400,1.05636328125,0.003084522011876106,0.013956775290518999,-0.012582125936448573
1772536404932412400,1.066412353515625,0.0389870255202055,0.039519524961709976,-0.03145816438533366
1772536404942460400,1.07646044921875,0.03242693635225296,0.01586034388951957,-0.02264350122362375
1772536404952508400,1.08650830078125,0.005664601632952689,-0.003945888081565499,-0.013550569109804927
1772536404962556400,1.096556396484375,-0.0016144494593143461,-0.014968436551094054,-0.02483969609364867
1772536404972604200,1.106604248046875,0.04338555274009704,-0.01445237678773701,-0.00979790204539895
1772536404982653400,1.1166533203125,0.0435574021756649,-0.017316753242909908,-0.013079188738390802
1772536404992701200,1.126701171875,-0.010710194584727287,-0.02254500928521156,-0.022591624905914067
1772536405002749400,1.13674951171875,-0.03355272551178932,-0.024871844797581432,-0.02092917158640921
1772536405012797400,1.14679736328125,-0.0016278934627771376,-0.009465674416348338,-0.009936324135400354
1772536405022845200,1.15684521484375,-0.009559855505824088,-0.0005528115771710872,0.002839168948680162
1772536405032894500,1.16689453125,-0.040157238343358034,0.005212985407933592,-0.009409633380174637
1772536405042942200,1.176942138671875,-0.03035071460008621,0.016148513181135058,-0.0028312048379331824
1772536405052990500,1.186990478515625,-0.017833178332448005,-0.0025558219626545904,0.009181267984397709
1772536405063038500,1.19703857421875,-0.04349427381157875,-0.006324234585464,0.013498948520421982
1772536405073086200,1.207086181640625,-0.0792108993589878,0.0004006166901439428,0.017919395311176776
1772536405083134500,1.217134521484375,-0.05947276418805122,-0.0005449935968965292,-0.014713475409336388
1772536405093182200,1.22718212890625,-0.028725743746757505,0.007606602546200156,-0.0072581179020926355
1772536405103230200,1.237230224609375,-0.041701545175909994,0.018422668658196924,-0.022225531539879738
1772536405113278500,1.247278564453125,-0.0398497798293829,0.005632818255200981,-0.03901683613657951
1772536405123326200,1.257326171875,-0.003992869028449059,-0.0067018357262015335,-0.03792323221359402
1772536405133375500,1.26737548828125,0.0015764555364847182,-0.010695216211304068,-0.04007967959512025
1772536405143423200,1.27742333984375,-0.006831891846656799,0.004499138050153851,-0.03743672733828425
1772536405153471200,1.28747119140625,-0.03423661612272262,0.01823671763204038,-0.0359680430252105
1772536405163519500,1.29751953125,-0.056957566496729846,0.028299627289175986,-0.04818663287889212
1772536405173567200,1.307567138671875,-0.02619067231118679,0.045461189970374107,-0.04830945554096251
1772536405183616500,1.317616455078125,-0.0005599719703197479,0.03311469942070543,-0.061046150984615084
1772536405193664300,1.327664306640625,-0.02001812115609646,0.010968041803315282,-0.06349865870326757
1772536405203712300,1.337712158203125,-0.03423486255705356,-0.005949848315119743,-0.05709920345712453
1772536405213760300,1.34776025390625,-0.024118542212247848,-0.014064911840111017,-0.050848180238343775
1772536405223808300,1.357808349609375,-0.001021159741282463,-0.018303645388409496,-0.05790164241380989
1772536405233857300,1.367857177734375,0.052827334824204444,-0.01978204737789929,-0.054328423569537695
1772536405243905300,1.3779052734375,0.028036592438817023,-0.017584025876969098,-0.061649267976917325
1772536405253953300,1.387953369140625,0.02796177363693714,-0.0023935440730303527,-0.06952796546276659
1772536405264001300,1.398001220703125,0.04541559726297855,0.013399798994883895,-0.04632116780057549
1772536405274050300,1.40805029296875,0.031762919485568995,0.02096292772553861,-0.05014269885011017
1772536405284098300,1.418098388671875,0.024952654948830602,0.017686098011955618,-0.05267009843587875
1772536405294146300,1.428146240234375,0.03135375416278839,0.0009936141472309827,-0.0370508698258549
1772536405304194600,1.438194580078125,0.0008674304842948913,-0.015904329161718488,-0.030226613296382127
1772536405314242300,1.4482421875,-0.037984570479393,-0.022546835916116833,-0.02974164279103279
1772536405324291300,1.458291259765625,-0.10983517020344734,-0.013019932831823825,-0.02712886647675186
1772536405334339300,1.46833935546875,-0.08799392527341843,0.010634279804304241,-0.03932484263982623
1772536405344387300,1.47838720703125,-0.04049918364882469,0.0270757845826447,-0.044898441521078344
1772536405354435300,1.488435302734375,-0.03503858015537262,0.04224938831701874,-0.06306242271047086
1772536405364483300,1.4984833984375,-0.01960311061441898,0.03919263109490275,-0.06161500038113445
1772536405374532000,1.508531982421875,-0.01791793400645256,-0.007080971236899495,-0.03838595435451716
1772536405384580400,1.518580322265625,-0.0033048867642879484,-0.028842721189931034,-0.026607290288060904
1772536405394628400,1.52862841796875,-0.007563128730654716,-0.02088306742236018,-0.01474379748236388
1772536405404676400,1.53867626953125,-0.0015121581286191938,-0.035814240702986715,-0.015185440302640199
1772536405414724400,1.548724365234375,-0.003933247795701027,-0.04037796842195093,-0.012862258052080869
1772536405424773400,1.5587734375,-0.0135112234801054,-0.018565730390697716,-0.0030575609397143124
1772536405434821400,1.5688212890625,-0.031063831305503845,-0.006720248165726661,-0.0031429742008447646
1772536405444869400,1.578869384765625,-0.009473346266150474,0.009489128357172012,-0.03809767546504736
1772536405454917400,1.58891748046875,0.007137012273073196,0.036308527025952934,-0.03729534610621631
1772536405464965400,1.59896533203125,-0.019220833298563954,0.01836801586151123,-0.05007515003923326
1772536405475014400,1.609014404296875,-0.04390285461246967,-0.014367328852787613,-0.041913726621866224
1772536405485062400,1.6190625,-0.07456511937975883,-0.016850450905412435,-0.01535907983649522
1772536405495110400,1.6291103515625,-0.10002864646017551,-0.0058670654024928805,-0.014208010105229913
1772536405505158400,1.639158447265625,-0.05178454777300358,0.009901581615582107,-0.019045257535949347
1772536405515206400,1.649206298828125,-0.021563597032427786,0.020712825421988962,-0.0188093298882246
1772536405525255400,1.65925537109375,-0.03259644770026207,0.030009426881745457,-0.0377226316075772
1772536405535303400,1.669303466796875,0.0009106851041316985,0.018035495971515773,-0.04053209953773766
1772536405545351200,1.67935107421875,0.04148468755483627,0.009816972072049976,-0.022228015757910904
1772536405555399400,1.6893994140625,-0.0004424830704927444,-0.020201953290402887,-0.016903642397373915
1772536405565448200,1.6994482421875,-0.033027824854850764,-0.0478050496827811,-0.022101777296047658
1772536405575496400,1.709496337890625,-0.0025590368330478666,-0.03634403673075139,-0.019141283522639423
1772536405585544400,1.71954443359375,0.030096447578072547,-0.019810469754785297,-0.027703981217276304
1772536405595592200,1.72959228515625,0.02130114670395851,-0.029706863738596438,-0.03302943229004741
1772536405605640400,1.739640380859375,0.0036298809349536894,-0.016214710285142063,-0.038820619444735346
1772536405615689200,1.749689208984375,0.022619243565201758,0.002274813064187765,-0.04482731251362711
1772536405625737500,1.759737548828125,0.0178290866792202,0.005190773576125502,-0.0544884729694575
1772536405635785200,1.76978515625,-0.013175123393535612,-0.0014605740718543528,-0.05299635298186913
1772536405645833200,1.779833251953125,-0.028128946897387503,-0.0031478695716708896,-0.04808054215591401
1772536405655881500,1.789881591796875,-0.00935585736632347,-0.005409384762868285,-0.02551781455092132
1772536405665930200,1.79993017578125,-0.026330373042821882,-0.028058365879207847,-0.008668149096798151
1772536405675978500,1.809978515625,-0.06428162577450275,-0.013856748982146382,-0.02015078935874626
1772536405686026200,1.820026123046875,-0.017139935371279714,0.008012406868115067,-0.021476923395972698
1772536405696074200,1.83007421875,0.016700374910235405,0.008587357211858033,-0.03887154591437429
1772536405706122500,1.84012255859375,-0.002451484805345535,0.011842413485050201,-0.04103920880965888
1772536405716171300,1.850171142578125,-0.02338730532824993,0.012908143020421266,-0.03825233630379662
1772536405726219500,1.860219482421875,-0.03858136732876301,0.013604600851982831,-0.02334458043137565
1772536405736267300,1.870267333984375,-0.05179565368890762,-0.0009505056578665972,-0.02289738465314731
1772536405746315300,1.880315185546875,-0.03985211791694164,0.00410487803556025,-0.012895721930265426
1772536405756363300,1.89036328125,-0.039755671805143354,0.025008622919768093,-0.04318750941734761
1772536405766412300,1.900412353515625,-0.00950315688252449,0.038920390024781225,-0.055674687079340215
1772536405776460300,1.910460205078125,-0.0195499191224575,0.03749620244055986,-0.04062509331712499
1772536405786508300,1.92050830078125,-0.0632733255147934,0.0249249632243067,-0.03970178619343787
1772536405796556300,1.930556396484375,-0.051638417300581926,0.008903364358469843,-0.04820208617635071
1772536405806605300,1.940605224609375,-0.011401683980226516,0.007013239762932061,-0.044040893109980966
1772536405816653300,1.9506533203125,-0.018593056789040566,0.006134484167024493,-0.04158480519475415
1772536405826701300,1.960701416015625,-0.026802082207798957,-0.01152012272812426,-0.03582737417919561
1772536405836749300,1.970749267578125,-0.018702946904301642,-0.005550035342574119,-0.02620188782494515
1772536405846797300,1.98079736328125,-0.01821370208263397,0.012231339737400412,-0.005971914016455412
1772536405856846300,1.990846435546875,0.0027548516660928723,0.014851239912211893,-0.018118735541868953
1772536405866894300,2.000894287109375,0.016558336091041563,0.027733956230431792,-0.020858864562865346
1772536405876942300,2.0109423828125,0.003009118688106537,0.023184476232528686,-0.03224575283275917
1772536405886990300,2.020990234375,0.010299275696277617,-0.010402224614098668,-0.03695743765505031
1772536405897038300,2.031038330078125,-0.0027139351338148114,-0.02670563609600067,-0.022382201672624797
1772536405907087400,2.04108740234375,-0.037355040404200554,-0.013733195667713879,-0.021480156532675026
1772536405917135400,2.05113525390625,-0.05028232651650905,-0.0005203706122934818,-0.022639409570395945
1772536405927183400,2.061183349609375,-0.04783727145195007,0.006378010599315166,-0.02004162989584729
1772536405937231400,2.0712314453125,-0.019718845948576928,0.016642653373628854,-0.03153250826317817
1772536405947279400,2.081279296875,0.02329845800101757,0.025632600037008523,-0.023860968988295643
1772536405957328400,2.091328369140625,0.04017068234682083,0.028254326842725275,-0.04647528065005317
1772536405967376100,2.101376220703125,0.029069442617893217,0.0328869550794363,-0.04002035062331706
1772536405977424400,2.11142431640625,0.010826514440774917,0.019858912006393073,-0.016745876286085693
1772536405987472400,2.121472412109375,-0.01512508841753006,0.0004789426233619451,-0.008733031026553362
1772536405997520400,2.131520263671875,-0.01271685823202133,-0.008357713174447418,-0.0011308306608349085
1772536406007569400,2.1415693359375,-0.019202713119983672,0.001737125990912318,0.007767620060499757
1772536406017617200,2.1516171875,-0.04407411952614784,0.008600582019612193,-0.0020383008945733306
1772536406027665400,2.16166552734375,-0.047391281250119204,0.02912482606694102,-0.020477902421262115
1772536406037713400,2.17171337890625,-0.04083060756027698,0.041811435291171074,-0.02784963676566258
1772536406047761400,2.181761474609375,-0.03463526005148888,0.04003938411734998,-0.03599376198835671
1772536406057810400,2.191810546875,-0.029047815307974813,0.028893647659569976,-0.038826482929941265
1772536406067858200,2.201858154296875,-0.06493161411583423,0.023663126594945787,0.00002858677366748452
1772536406077906400,2.211906494140625,-0.08890285681188106,0.0025554566364735364,-0.03350276715653017
1772536406087954200,2.2219541015625,-0.08212123384773731,0.012722191994264722,-0.010642408311832696
1772536406098002200,2.232002197265625,-0.046999651584029196,0.01798383884951472,-0.021899130863416938
1772536406108051200,2.24205126953125,-0.024960838255286215,0.01713131367340684,-0.024268526875879614
1772536406118099200,2.25209912109375,0.014145429730415344,0.005228913629427552,-0.014589520236104726
1772536406128147200,2.262147216796875,0.030983167284727095,-0.032135186864063144,0.0014472761988639832
1772536406138195200,2.2721953125,0.0368126040905714,-0.04834207916893065,0.002299399516172707
1772536406148243200,2.2822431640625,0.010388123023509978,-0.05984810030646622,-0.0017051234174519777
1772536406158292200,2.292292236328125,0.01734802516400814,-0.05104914617054164,-0.016968323397729544
1772536406168340200,2.30234033203125,0.04047580277323723,-0.028354645412042735,-0.0249050346811302
1772536406178388200,2.31238818359375,0.02783843951821327,-0.018905410673841834,-0.02245062726633623
1772536406188436200,2.322436279296875,0.009399696508049964,-0.032256840482354165,-0.015377638406492769
1772536406198485200,2.3324853515625,-0.007815057665109634,-0.044659372068196534,0.002611735134664923
1772536406208533200,2.342533203125,-0.015077742144465446,-0.038273908814787864,0.0019020524953491985
1772536406218581200,2.352581298828125,0.02052080998122692,-0.03264116362482309,-0.013825056935939937
1772536406228629000,2.36262890625,0.03447159392237663,-0.03694675186425447,-0.022123221942875533
1772536406238677200,2.37267724609375,-0.018473229801654816,-0.027039690355956554,-0.018806772604957223
1772536406248726000,2.38272607421875,-0.061246788123250004,0.005931216679885983,-0.005722688495740294
1772536406258774300,2.392774169921875,-0.052878772750496864,0.02314078322127461,-0.03160003880774602
1772536406268822300,2.402822265625,-0.00959375777542591,0.03704202893227339,-0.050457518686633555
1772536406278870000,2.4128701171875,-0.019033201771974564,0.021023425741121173,-0.03933651481131092
1772536406288918300,2.422918212890625,-0.07460720495581627,0.00877440421655774,-0.023310440699756144
1772536406298967000,2.432967041015625,-0.08949439296424389,0.015609510933607816,-0.02611271170414984
1772536406309015300,2.443015380859375,-0.06328969212770462,0.028849808517843484,-0.013825002137012779
1772536406319063300,2.453063232421875,-0.05417290421426296,0.03877754748798907,-0.01949325703177601
1772536406329111000,2.463111083984375,-0.054397945141792296,0.039662294433265924,-0.025904420982021836
1772536406339159300,2.4731591796875,-0.0456575893253088,0.030340558532252905,-0.010961721660383046
1772536406349208000,2.4832080078125,-0.05146247621178627,0.010437807384133338,-0.015687489806953815
1772536406359256300,2.49325634765625,-0.01643383292853832,0.006813187146186828,-0.02314069188972935
1772536406369304000,2.503303955078125,0.001544306832551956,-0.0029104075539857148,-0.022165380584169177
1772536406379352000,2.51335205078125,-0.008012041541934013,-0.02028919318243861,-0.030366788952052592
1772536406389400300,2.523400390625,0.007780570873618125,-0.02294635662771761,-0.041976745388098056
1772536406399449000,2.533448974609375,0.05621697726249694,-0.029564386527985334,-0.043748412969429044
1772536406409497300,2.543497314453125,0.04079787433445453,-0.04808218612372875,-0.036654728381428865
1772536406419545000,2.553545166015625,0.0259288065046072,-0.06779489459246396,-0.04038653532089665
1772536406429593300,2.56359326171875,0.0355664034217596,-0.05730433410778641,-0.020336813450139015
1772536406439642000,2.57364208984375,0.011768763726949691,-0.053614978070557116,-0.027938118766713885
1772536406449690000,2.583690185546875,-0.010070143115520477,-0.023457740215957163,-0.028893501529097556
1772536406459738400,2.59373828125,-0.006631985360383987,0.010509630511328577,-0.01573240666091442
1772536406469786000,2.6037861328125,0.0011123451560735701,0.03242605956941843,-0.03392044457932934
1772536406479834400,2.61383447265625,0.013052373796701431,0.04141863658130169,-0.03819187482083216
1772536406489883100,2.623883056640625,-0.007149871754646301,0.0389472049664706,-0.037291473648697136
1772536406499931100,2.63393115234375,-0.04136602961122989,0.009412848250567913,-0.024616865389514714
1772536406509979100,2.643979248046875,-0.0548942042261362,-0.009008139907196164,-0.016554244437813757
1772536406520027100,2.654027099609375,-0.06513853486478328,0.0007295563835650682,-0.02318051244346425
1772536406530075400,2.664075439453125,-0.067507602083683,0.022167042818292973,-0.041718423245474694
1772536406540124200,2.674124267578125,-0.05472235479056835,0.03060278966501355,-0.04196615092884749
1772536406550172400,2.68417236328125,-0.03786532801389694,0.014316621578857302,-0.06008000936619937
1772536406560220200,2.69422021484375,-0.0190489838629961,0.010249883596599101,-0.04593969420231878
1772536406570268200,2.70426806640625,-0.009260580298304557,-0.006849938960000872,-0.03259816473331302
1772536406580316400,2.71431640625,-0.01518120251893997,-0.02443462242409587,-0.018600838236697018
1772536406590365200,2.724365234375,-0.007871756288409233,-0.0466263612922281,-0.018836966813821344
1772536406600413400,2.734413330078125,0.007645546317100524,-0.06796900905035436,0.0038433044899255035
1772536406610461200,2.744461181640625,0.00533259319961071,-0.08046740222610532,0.006295300751924514
1772536406620509200,2.75450927734375,-0.006034019467234611,-0.06807999514415859,-0.002407536065764725
1772536406630557200,2.76455712890625,-0.02621288414299488,-0.04166128623075783,0.00587124838726595
1772536406640606200,2.774606201171875,-0.03714753513336182,-0.028324104143306612,-0.017838183301128446
1772536406650654200,2.784654296875,-0.022729133680462837,-0.0004191752601414919,-0.011159527521114796
1772536406660702200,2.7947021484375,-0.04385200120806694,0.016859218733757734,-0.03138898987295106
1772536406670750200,2.804750244140625,-0.05409048662781715,0.027413053712993858,-0.03740468823220581
1772536406680798200,2.814798095703125,-0.05885200194120407,0.025070363044366238,-0.030465956743899732
1772536406690847200,2.82484716796875,-0.05749065046012401,0.019984365016967057,-0.003144307641405612
1772536406700895200,2.834895263671875,-0.062303019177913664,0.014752674908563494,-0.0034458661375567313
1772536406710943200,2.844943115234375,-0.060735915991663926,0.010432546687126159,-0.015373948612064122
1772536406720991200,2.8549912109375,-0.018668460112810134,0.014909765166416764,-0.027118582544755188
1772536406731039200,2.865039306640625,0.039591421154141423,-0.0021921762820333243,-0.026891842850483953
1772536406741088300,2.875088134765625,0.026065000104904174,-0.02704991948902607,-0.019225198946427553
1772536406751136300,2.88513623046875,-0.056281274670362466,-0.038279242577031254,-0.008568360250443219
1772536406761184300,2.895184326171875,-0.018438743010163305,-0.01376242176219821,-0.011554098062962292
1772536406771232300,2.905232177734375,0.03588496785163879,0.004031520538404583,-0.016911862236447632
1772536406781280300,2.9152802734375,0.02226619234383106,-0.005282397382333874,-0.015232585646305233
1772536406791329000,2.9253291015625,-0.04162672637403011,-0.014978081162273883,-0.012209712427482007
1772536406801377300,2.935377197265625,-0.031168460723757743,-0.012453238859772682,-0.00817998198736459
1772536406811425300,2.94542529296875,0.035601474735140796,-0.006555632188543677,-0.010844068363774568
1772536406821473000,2.95547314453125,0.03588262976408005,-0.006114172031357884,-0.015233078836649655
1772536406831521300,2.965521240234375,-0.017232874351739882,-0.01605009430795908,0.002418532383814454
1772536406841570000,2.975570068359375,-0.0852110165566206,0.00043057343699038025,-0.006225779179669916
1772536406851618300,2.985618408203125,-0.016222236004471778,0.045671617850661275,-0.044215098899416626
1772536406861666300,2.995666259765625,0.06471943266987801,0.0553741697628051,-0.023816563590988514
1772536406871714000,3.005714111328125,-0.004733458262681961,0.013993161778151988,-0.010028970854915678
1772536406881763300,3.015763427734375,-0.07689969980716704,-0.03147723441198468,-0.0009247684284113347
1772536406891811000,3.02581103515625,-0.08632745336592197,-0.055239437467232345,0.02081920840591192
1772536406901859300,3.035859375,-0.09229191472828388,-0.023493688312172887,0.004148388383723795
1772536406911907000,3.045906982421875,-0.059435939309000964,0.030635011434182523,-0.007633198292180896
1772536406921955000,3.055955078125,-0.010319733962416647,0.05538673698343336,-0.03142884695930406
1772536406932004000,3.066004150390625,-0.015120996764302253,0.03158960874527693,-0.005525229694880545
1772536406942052000,3.076052001953125,-0.06379881069362163,0.013185279461368918,0.0005828231229446828
1772536406952100400,3.086100341796875,-0.0557744941920042,-0.004485620981454849,0.0026933855361305175
1772536406962148000,3.096148193359375,-0.04532733445763588,-0.02903773230537772,-0.0022421894362196324
1772536406972196000,3.106196044921875,-0.06290916837751866,-0.022761939971521497,-0.026719335827790198
1772536406982245000,3.1162451171875,-0.04509177213609218,-0.006474822037294507,-0.053030894572287796
1772536406992293000,3.126293212890625,0.00978022025823593,0.009427607428282499,-0.05809438850693404
1772536407002341400,3.13634130859375,0.013605916026234626,0.010392580002918839,-0.05975106967277825
1772536407012389000,3.14638916015625,-0.022958266261219978,-0.010017682275921105,-0.05347542346939444
1772536407022437000,3.15643701171875,-0.03614508009254932,-0.024953677862137556,-0.06256356981024146
1772536407032486100,3.166486083984375,0.0009738134682178497,-0.03241802239343524,-0.05730809696745127
1772536407042534100,3.1765341796875,0.024072364982962606,-0.036404534746333955,-0.05226666873414069
1772536407052582100,3.18658203125,0.03676993399262428,-0.02100209069214761,-0.04768021772671491
1772536407062630100,3.196630126953125,0.0007762450695037841,-0.005235489500686526,-0.02036832283325493
1772536407072678400,3.206678466796875,-0.02903670939207077,0.02765482657961547,-0.031536563383787866
1772536407082727400,3.2167275390625,-0.025187048226594923,0.05584734023250639,-0.025169293374195694
1772536407092775400,3.226775390625,-0.0031248540222644804,0.07491013342514634,-0.03387077848501503
1772536407102823400,3.236823486328125,0.026093641677498815,0.08225545468665658,-0.049569228077400475
1772536407112871400,3.246871337890625,0.016008885514736174,0.06690656745061278,-0.0410308976390399
1772536407122919700,3.256919677734375,0.008710545200109481,0.025267931443080306,-0.03729720926973969
1772536407132968400,3.266968505859375,-0.010157236877083777,-0.004106558535993099,-0.027610019323509184
1772536407143016700,3.2770166015625,-0.027454993158578873,-0.006052285776287317,-0.021112547062989324
1772536407153064400,3.287064453125,-0.04411211344897747,0.003312558614090085,-0.04559237860199064
1772536407163112400,3.297112548828125,-0.03804945240914821,0.014611805133149027,-0.05726086029224097
1772536407173161500,3.307161376953125,-0.04135843082666397,0.031615181577950714,-0.06812566091679036
1772536407183209500,3.31720947265625,-0.013081015369296073,0.040381110227108,-0.07785919248908758
1772536407193257500,3.327257568359375,0.006469488275051116,0.026906346299871802,-0.06565715191140771
1772536407203305500,3.337305419921875,-0.0001958148330450058,0.002912818706780672,-0.04269344229009002
1772536407213353500,3.347353515625,-0.02060147400200367,-0.01644881130196154,-0.03694315340137109
1772536407223402500,3.357402587890625,-0.016691607081890106,-0.02383987140133977,-0.02071529137371108
1772536407233450500,3.367450439453125,-0.013016717961430549,-0.03319390213675797,-0.02291300234738737
1772536407243498500,3.37749853515625,-0.021856442499160765,-0.043768268447369335,-0.005679324278049171
1772536407253546500,3.38754638671875,-0.02727379137277603,-0.026822248212993144,-0.0033167415988631546
1772536407263594500,3.397594482421875,-0.051450201252102847,-0.0064535600535571575,-0.003115885264519602
1772536407273643500,3.4076435546875,-0.06566869621872902,0.018722674518078564,-0.01577467490006238
1772536407283691500,3.41769140625,-0.05125146380960941,0.03522168163731694,-0.030856654828228056
1772536407293739500,3.427739501953125,-0.03750233992040157,0.041625338134542104,-0.02997645619390532
1772536407303787500,3.43778759765625,-0.05694529153704643,0.035291532003134486,-0.018750676769856364
1772536407313835300,3.447835205078125,-0.07774433393776416,0.02079604672603309,-0.02622262008571997
1772536407323884500,3.457884521484375,-0.06012392157316208,0.02640292682237923,-0.022777174073271452
1772536407333932300,3.467932373046875,-0.02802197939157486,0.03281184401661157,-0.02393933145413175
1772536407343980500,3.47798046875,-0.002971709287166595,0.035739787227287885,-0.03222582428958267
1772536407354028500,3.488028564453125,0.034039632245898246,0.03397599242515862,-0.044176209927443415
1772536407364076300,3.498076171875,0.035925884383916855,0.00995601521655917,-0.04283414766872302
1772536407374125600,3.50812548828125,0.01678162345290184,-0.01067497714087367,-0.0184373547706753
1772536407384173300,3.51817333984375,-0.012000818917155265,-0.027954101787135005,-0.03125745418146252
1772536407394221600,3.5282216796875,0.020480477970838545,-0.020262232110276817,-0.04770796425016596
1772536407404269600,3.53826953125,0.02046411135792732,-0.0044843058072030545,-0.023699348685797303
1772536407414317300,3.5483173828125,0.019908815562725064,-0.012193784205988049,-0.03985630090171471
1772536407424366600,3.55836669921875,0.027777064719796178,-0.008253960539028047,-0.04141109259566292
1772536407434414300,3.568414306640625,0.0021206454157829285,0.0156843297354877,-0.036423038517404346
1772536407444462600,3.578462646484375,-0.02492401337623596,0.023526859929412603,-0.03566500495802611
1772536407454510300,3.58851025390625,-0.025362989315390584,0.03095423345118761,-0.03852634920589625
1772536407464559600,3.5985595703125,-0.0154021517932415,0.037857583098858595,-0.04261699778670445
1772536407474607400,3.608607421875,-0.013695347875356673,0.015033610741794108,-0.02859499350655824
1772536407484655400,3.6186552734375,-0.0395095880895853,0.0009037439066916703,-0.02466633055442944
1772536407494703600,3.62870361328125,-0.047992169752717015,-0.008789309524744748,-0.012604191637784241
1772536407504751400,3.63875146484375,-0.057388943651318546,-0.010419321879372,-0.010105378825683147
1772536407514800600,3.648800537109375,-0.031630233016610144,-0.02193666812852025,-0.0017279015048407018
1772536407524848400,3.658848388671875,-0.04316811059713364,-0.01685885340757668,-0.0052265024766325946
1772536407534896400,3.668896484375,-0.06448211678266524,-0.004415916746109724,0.0028298348647542294
1772536407544944600,3.678944580078125,-0.05980418809950351,0.007776333089917898,-0.017102471171412614
1772536407554992400,3.688992431640625,-0.04547288040816783,0.01734261833652854,-0.006706767629645764
1772536407565041700,3.699041748046875,-0.03194178318381309,0.0010012859970331192,-0.01660765512548387
1772536407575089400,3.70908935546875,-0.026238603106141088,-0.005333908373862504,-0.009942826941423118
1772536407585137400,3.719137451171875,-0.06333586935698986,0.00531929532662034,-0.010206026188563555
1772536407595185400,3.729185302734375,-0.051961657905578613,0.016259207013994456,-0.021883403571322558
1772536407605233400,3.7392333984375,0.006441431224346161,0.008555939160287379,-0.025683106381539252
1772536407615282400,3.749282470703125,0.01012450365126133,-0.0029427754536271093,-0.01677764139752835
1772536407625330400,3.759330322265625,-0.03764963943660259,-0.005405877631530166,-0.032083621073607356
1772536407635378400,3.76937841796875,-0.01428279237449169,0.005183686248213052,-0.04557433148864656
1772536407645426400,3.779426513671875,0.03157937961220741,0.006320069866999983,-0.042791806364338845
1772536407655474400,3.789474365234375,-0.016354922473430632,0.011528306034579872,-0.04805758140543476
1772536407665523500,3.7995234375,-0.006993804410099983,0.018347411464899776,-0.059376409407798196
1772536407675571500,3.809571533203125,0.042651393246650696,0.017842165356501936,-0.04885992903057486
1772536407685619500,3.819619384765625,0.04385667738318443,0.008426905953139066,-0.03734528619516641
1772536407695667500,3.82966748046875,-0.01011924295425415,-0.008652823663502932,-0.031044048892799762
1772536407705715500,3.839715576171875,-0.025450083076953886,-0.019220760233327746,-0.023959004268981517
1772536407715764500,3.849764404296875,-0.011000117442011832,-0.00444222023114562,-0.01616438660370186
1772536407725812500,3.8598125,-0.006399345648288726,0.0015595774669200182,-0.026082170435413717
1772536407735860200,3.869860107421875,0.008079846081137657,0.008385112638026476,-0.04056320706205442
1772536407745908500,3.879908447265625,0.02366495322585106,-0.00573474425971508,-0.04039621646469459
1772536407755956500,3.88995654296875,0.00039572131931781766,-0.01967310711070895,-0.025481939519941807
1772536407766005500,3.900005615234375,-0.05594225197434425,-0.014592150584608315,-0.016667532086558638
1772536407776053500,3.910053466796875,-0.07777239098846912,0.018865151728689668,-0.015291512759309261
1772536407786101500,3.9201015625,-0.049556350329518314,0.04399265178777277,-0.025969704770576207
1772536407796149500,3.9301494140625,-0.051231590065360065,0.04363170952089131,-0.022332389447838066
1772536407806197500,3.940197509765625,-0.058981765800714486,0.035055458224937316,-0.010100848781038075
1772536407816246500,3.95024658203125,-0.04870236384868622,0.010788228257000446,-0.006948321300558746
1772536407826294500,3.96029443359375,-0.06121580846309661,-0.015214228005707263,-0.0015521065465174614
1772536407836342500,3.970342529296875,-0.06182780288159847,0.0034203298375010487,-0.005128211467619985
1772536407846390500,3.980390625,-0.008119593569636345,0.020416399758681654,-0.02398927154308185
1772536407856439300,3.990439208984375,0.04471534003913402,0.004362067667022347,-0.020560667067579926
1772536407866487600,4.000487548828125,0.0012315876215696334,-0.03132657389491796,-0.027170422329846768
1772536407876535300,4.010535400390625,-0.00895195274055004,-0.05923281795233488,-0.014920524022448808
1772536407886583600,4.02058349609375,0.021444939088821408,-0.06046002165973186,-0.0017584062409587203
1772536407896631600,4.030631591796875,-0.007312368839979171,-0.06529438301362096,-0.018860146760009227
1772536407906680300,4.040680419921875,-0.012564882540702819,-0.035190775042399765,-0.053866651276685294
1772536407916728600,4.050728515625,0.030361820515990255,0.010470394479483365,-0.05964012011159211
1772536407926776300,4.0607763671875,0.024052491238713263,0.039797830446437,-0.05597060128599405
1772536407936824600,4.070824462890625,-0.03253799551129341,0.03242335615567863,-0.04531688612885773
1772536407946872600,4.08087255859375,-0.09248071529865265,0.0411486605335027,-0.03051529404465109
1772536407956921600,4.090921630859375,-0.05701017346680164,0.057612669404596084,-0.02920218388577923
1772536407966969600,4.100969482421875,-0.01035012910068035,0.05080357391163706,-0.01853677829084918
1772536407977017300,4.111017333984375,-0.05926058274209499,0.04252097180001437,-0.01582543697291985
1772536407987065600,4.121065673828125,-0.04011865989863872,0.036718861392512916,-0.012982176371011882
1772536407997113300,4.13111328125,0.011079612419009208,0.028533801371231675,0.007561192501895129
1772536408007162600,4.14116259765625,0.019683190113306045,0.0030885405998677014,0.008012242471333593
1772536408017210400,4.15121044921875,-0.0058925651699304575,-0.041590705212578176,0.016026110644172874
1772536408027258400,4.16125830078125,-0.022893968853354454,-0.06298851722404361,0.0069116790845990175
1772536408037306600,4.171306640625,0.009850947406888008,-0.04781849368624389,-0.01823233371786773
1772536408047354400,4.181354248046875,0.05321136570572853,-0.06408785676807165,-0.03838823764314875
1772536408057403600,4.191403564453125,-0.003119593325257301,-0.00012881401143968103,-0.03809157451782375
1772536408067451400,4.201451416015625,-0.030626024410128593,0.021659458622336387,-0.07732570666689426
1772536408077499400,4.21149951171875,-0.03466974684298038,0.001923003951832652,-0.044160683564748615
1772536408087548000,4.2215478515625,-0.04444236831665039,0.021209157571569083,-0.05345441721398383
1772536408097596000,4.231595947265625,-0.034034956070780754,0.023722163305804133,-0.03298073431011289
1772536408107645000,4.24164501953125,-0.03588321428596973,-0.0016486439898610115,-0.018174557382334023
1772536408117693000,4.25169287109375,-0.03083352968096733,0.00437383117005229,-0.015119864253140986
1772536408127741000,4.261740966796875,-0.015426701712608336,0.012006444940343499,-0.018064393272437154
1772536408137789000,4.271788818359375,-0.002072130098938942,0.009585939795151353,-0.007815733518544584
1772536408147838000,4.281837890625,-0.022492986837029456,0.0034576661732047794,-0.005524955700244754
1772536408157886000,4.291885986328125,-0.04352466894984245,0.01408025553971529,-0.0013219327861443161
1772536408167934000,4.301933837890625,-0.044072950482368464,0.02807633992731571,-0.011972560937050729
1772536408177982000,4.31198193359375,-0.01730360150039196,0.03617401392608881,-0.007341558401845395
1772536408188030000,4.322030029296875,-0.03277238878905773,0.021621099373325705,-0.01773673222064972
1772536408198078000,4.332077880859375,-0.04033727108538151,0.006229103647917508,-0.018524247602839022
1772536408208127000,4.342126953125,-0.039537645140290255,-0.00996485611014068,-0.02546434906432405
1772536408218175000,4.352175048828125,-0.03559212238490581,-0.022497297685965895,-0.02698470876570791
1772536408228222700,4.36222265625,-0.036869887235760686,-0.027574381754547357,-0.03513509933240711
1772536408238271000,4.37227099609375,-0.02361117721199989,-0.01663447006717324,-0.04686623446270823
1772536408248319700,4.38231982421875,-0.02231763027012348,-0.012491671174019574,-0.0374380607788451
1772536408258368000,4.392367919921875,-0.017341010901331902,-0.017558599174767733,-0.03641237099291757
1772536408268416000,4.402416015625,-0.011483517044782638,-0.009913491249084472,-0.032231194584444164
1772536408278464000,4.412464111328125,-0.0010176526099443435,0.008141732336208223,-0.03086390655292198
1772536408288512000,4.422511962890625,0.01681903285384178,0.003117109107226133,-0.029298155073542147
1772536408298560800,4.432560791015625,0.007066869646310806,-0.017783640102297067,-0.019815036332048473
1772536408308609000,4.442609130859375,0.011731938847899435,-0.027749372995272276,-0.015385200658440588
1772536408318657000,4.452656982421875,0.015122165808081626,-0.0306017667517066,-0.013037833814695476
1772536408328705000,4.462705078125,0.008069909209012984,-0.030832360637187955,-0.02043830106323585
1772536408338753000,4.4727529296875,0.0014659808993339539,-0.006043591013178229,-0.020313578705023972
1772536408348801800,4.4828017578125,-0.014562193837761878,0.009473054005205631,-0.017007559429574756
1772536408358850000,4.49285009765625,-0.03034779199063778,0.0192947022523731,-0.021846797887980936
1772536408368897800,4.502897705078125,-0.044725861433148384,0.01768091038018465,-0.025736644933372733
1772536408378946000,4.512946044921875,-0.027454408636689184,0.03931494230031967,-0.020085724765900523
1772536408388994000,4.522994140625,-0.024854455271363256,0.025937574332952497,-0.01901104473909363
1772536408399042800,4.533042724609375,-0.016703297519683837,0.0027565321665257215,-0.032647867360245435
1772536408409091000,4.543091064453125,-0.011177812096476555,-0.0004914367787539959,-0.031565387619473036
1772536408419138800,4.553138916015625,-0.0196457807123661,-0.009401303943246602,-0.02655022633858025
1772536408429187000,4.56318701171875,-0.020851649370789527,-0.018557547084242104,-0.02164046166092157
1772536408439235000,4.573235107421875,-0.03162029614448547,-0.016859218733757734,-0.03471428010445088
1772536408449284000,4.5832841796875,-0.01906067430078983,-0.002127732743695378,-0.04797034151339903
1772536408459332000,4.59333203125,0.01263502516746521,-0.0041657413773238654,-0.06375542820962146
1772536408469379800,4.6033798828125,0.021086627170443534,-0.012320552390813826,-0.0363693721014075
1772536408479428000,4.613427978515625,-0.01901975776851177,-0.011224062390998005,-0.035701409711968154
1772536408489476900,4.623476806640625,-0.02369534836411476,0.006893778101727366,-0.028396968450117854
1772536408499525000,4.633525146484375,-0.019140753799676894,0.02399089724458754,-0.02578932496868074
1772536408509572900,4.64357275390625,-0.013261048111319541,0.012181947637721895,-0.02239997479133308
1772536408519620900,4.653620849609375,-0.03863865047395229,-0.002974631896615028,0.002700618994515389
1772536408529669000,4.663669189453125,-0.06231178700625896,-0.022672946513816714,0.009168079709261655
1772536408539718000,4.6737177734375,-0.035090602603554726,-0.01666639957539737,0.008951240354496985
1772536408549766100,4.68376611328125,-0.03417874845564365,-0.005373290536180139,-0.015116302322875707
1772536408559814000,4.69381396484375,-0.03135843033790588,0.013693886570632457,-0.010101031444128602
1772536408569862000,4.70386181640625,-0.0469558124423027,0.03013312632665038,-0.01934095254689455
1772536408579910100,4.71391015625,-0.04927461077868938,0.027799495747312903,-0.02221130208512768
1772536408589959000,4.723958984375,-0.038299627777934074,0.032928236937895414,-0.02005094571346417
1772536408600007200,4.734007080078125,-0.0547550880163908,0.01944032126814127,-0.014750008027441799
1772536408610055000,4.744054931640625,-0.048527591803669924,0.012836831349879502,-0.013393679781351238
1772536408620103000,4.75410302734375,-0.02687982361912727,0.01610350499562919,-0.00837406152104959
1772536408630151000,4.76415087890625,-0.06917816564440726,0.017364391776919366,-0.01952633731747046
1772536408640200000,4.774199951171875,0.11509469816684723,-0.06989895419962704,-0.022017770540714264
1772536408650248000,4.784248046875,0.11956219896972178,-0.028104470043256877,-0.03662975833695382
1772536408660296000,4.7942958984375,0.01186111818552017,0.0046812166187912225,-0.030594734222721305
1772536408670344000,4.804343994140625,-0.020237901386618615,-0.06032894262596965,-0.02703623802354559
1772536408680392000,4.814391845703125,-0.008754384341835975,-0.024769699597358703,-0.03224416366387158
1772536408690441000,4.82444091796875,-0.012301847690343856,-0.006078808457031845,-0.022705296147149053
1772536408700489000,4.834489013671875,-0.05972878477573394,-0.0018009119421243667,-0.033063261494413014
1772536408710537000,4.844536865234375,-0.08713175548613071,0.04521306042820215,-0.039271103158593175
1772536408720585000,4.8545849609375,-0.0031306992411613463,0.01508789821229875,-0.0262275519891642
1772536408730633000,4.864633056640625,-0.046077276042103765,0.033348362046107645,-0.033887455625180155
1772536408740682000,4.874681884765625,-0.08475450496077537,0.052056788843125104,-0.03490841443706304
1772536408750730000,4.88472998046875,-0.045184711116552354,0.02157550666593015,-0.02669916982259601
1772536408760778000,4.894778076171875,-0.011437924337387084,0.011035773277282715,-0.015363956941012292
1772536408770826000,4.904825927734375,-0.010892565414309502,0.011063099675625562,-0.008263787813298404
1772536408780874000,4.9148740234375,-0.0067167410343885415,0.010288535106554628,0.002090999196190387
1772536408790923000,4.924923095703125,0.017722119173407554,-0.0012588409546762703,0.0025152159576304254
1772536408800971000,4.934970947265625,0.004500234028697013,-0.0005862754553556442,-0.00034654841534793374
1772536408811019000,4.94501904296875,-0.017692308557033538,0.012577230565622448,-0.008382464023213833
1772536408821066800,4.955066650390625,-0.015042670831084251,0.02035750917829573,-0.016376421919185667
1772536408831116000,4.965115966796875,0.0046212300598621366,0.001337532214075327,-0.03635130672175437
1772536408841163800,4.975163818359375,-0.027034721919894217,0.014865852959454058,-0.03691219200752675
1772536408851212000,4.9852119140625,-0.03758534202873707,0.008421645256131887,-0.03890051628053188
1772536408861260000,4.995260009765625,-0.02140051542520523,-0.00763539024926722,-0.05127385830450803
1772536408871307800,5.005307861328125,-0.01445756441950798,-0.006474383645877242,-0.03714649395374581
1772536408881357000,5.015357177734375,-0.03295768222808838,-0.011769421314075589,-0.02414981413334608
1772536408891404800,5.02540478515625,-0.029145430463552474,-0.020879121899604797,-0.02242861636392772
1772536408901453000,5.035453125,-0.019299159231781958,-0.0029324001900851724,-0.026202107020653783
1772536408911501000,5.0455009765625,-0.027885201269388198,0.000749868519231677,-0.02862020101305097
1772536408921548800,5.055548828125,-0.006525017854571342,0.009033420478925108,-0.02789353070631623
1772536408931597800,5.065597900390625,-0.0006096563309431075,0.01406608088389039,-0.01747305804947391
1772536408941645800,5.075645751953125,-0.027193711873888967,0.022878405958041546,-0.013777527999784796
1772536408951694000,5.085694091796875,-0.04403378751575947,0.008413388884440064,-0.012848083396255969
1772536408961741800,5.095741943359375,-0.023020225581526756,0.017166384986788033,-0.016679953176714477
1772536408971790000,5.1057900390625,-0.01447451555430889,0.01704443910755217,-0.019220358374528585
1772536408981838800,5.1158388671875,-0.02745733124613762,0.0042521044865250586,-0.01915498325442895
1772536408991886800,5.125886962890625,-0.021402853512763977,-0.007040785356983542,0.0012551876928657293
1772536409001935000,5.13593505859375,-0.003028407910466194,-0.011751520331203937,-0.0025393822845071554
1772536409011982800,5.14598291015625,-0.03550502862334251,-0.0046302170839160675,-0.0022488201064057647
1772536409022031000,5.156031005859375,-0.04733341358304023,0.006839052239805459,-0.003607687369454652
1772536409032080000,5.166079833984375,-0.016425065100193023,0.013487769539281725,-0.017423282357305288
1772536409042128000,5.1761279296875,0.018957213926315306,0.03332461584433913,-0.021736725109629332
1772536409052176000,5.18617578125,-0.01016366661787033,0.032951179422065616,-0.021052597036678344
1772536409062224000,5.196223876953125,-0.0017050503522157668,-0.004982610718160868,-0.021946239674463866
1772536409072272100,5.206272216796875,0.011776362511515617,-0.0375619611531496,0.004197890081256627
1772536409082320600,5.216320556640625,-0.027322306689620015,-0.03069229457937181,0.0019054500288330017
1772536409092368600,5.22636865234375,-0.03418225558698177,-0.02365991172455251,-0.01545318786073476
1772536409102416600,5.236416748046875,-0.0009153612792491912,0.000047054012119770045,-0.02247424560394138
1772536409112464600,5.246464599609375,-0.025360651227831838,0.01225596272200346,-0.030094657479785382
1772536409122512600,5.2565126953125,-0.027969956943392753,0.02253945632725954,-0.03334299175124615
1772536409132561700,5.266561767578125,0.018128946408629415,0.026933307372033595,-0.02773684230726212
1772536409142609700,5.276609619140625,0.017800445106625557,0.009743322313949466,-0.019993114579003303
1772536409152657400,5.286657470703125,-0.008344049975275993,-0.011619491449370979,-0.0006947773311287164
1772536409162705700,5.29670556640625,-0.012410568761825561,-0.038994770435243846,0.010134477056004107
1772536409172754400,5.30675439453125,-0.014414309799671171,-0.05205846934355795,0.013972064191196114
1772536409182802700,5.316802734375,-0.027314123383164406,-0.04369337658025324,0.008160181308351456
1772536409192850700,5.3268505859375,-0.04639642499387264,-0.020977467707544564,0.005393675737082958
1772536409202898400,5.3368984375,-0.0291746565580368,0.015691197867691516,-0.011368530629295855
1772536409212946700,5.34694677734375,-0.013331190738081932,0.02927365995310247,-0.02592131731789559
1772536409222995500,5.356995361328125,-0.009348258581757545,0.028305983964726326,-0.04162279911758378
1772536409233043700,5.367043701171875,-0.037840193572640415,-0.004736015545949339,-0.009870254895556718
1772536409243091500,5.377091552734375,-0.08903554328083992,0.009069587770849466,0.003615048692002892
1772536409253139500,5.387139404296875,-0.023963059389591215,0.014861688240990042,-0.025507457553688436
1772536409263187700,5.397187744140625,-0.03918050226569175,0.0010834113225340843,0.000030121143627911805
1772536409273236500,5.407236572265625,-0.07508475933969021,0.03421586559563875,0.0055246269066818055
1772536409283284700,5.41728466796875,-0.04762333644032478,0.03823481891341507,0.004932177438866347
1772536409293332500,5.42733251953125,-0.0023977087914943693,0.024922625136747954,-0.005215816685836762
1772536409303380500,5.43738037109375,0.03311141148507595,0.017649638459086417,0.0035188765748403964
1772536409313428700,5.4474287109375,0.008656769186258316,-0.016940978733077643,-0.0023471659143455325
1772536409323477500,5.4574775390625,-0.0020738836646080018,-0.04265643474794924,-0.003968246043846011
1772536409333525800,5.46752587890625,-0.006076105043292045,-0.05369045445956289,-0.011131872329209
1772536409343573500,5.477573486328125,0.021173136410117147,-0.0398700919650495,-0.02884330571182072
1772536409353621500,5.48762158203125,0.015098200410604477,-0.027031945440918206,-0.04015765846846625
1772536409363669800,5.497669677734375,0.005595043528079986,-0.015061740857735276,-0.04055102343391627
1772536409373718500,5.507718505859375,0.015644143855571745,0.010673515836149453,-0.04055376338027417
1772536409383766500,5.5177666015625,-0.001319265905022621,0.01091638468131423,-0.04594913788409903
1772536409393814500,5.527814453125,0.002348608952760696,0.018777765706181525,-0.028410668181907385
1772536409403862500,5.537862548828125,-0.0008756137907505035,-0.008234232925251125,-0.042302561542671174
1772536409413910500,5.54791064453125,-0.038788872599601745,-0.015585691666603087,-0.020877313535008577
1772536409423959600,5.55795947265625,-0.030709026518464088,-0.00668729574419558,-0.011898162260279059
1772536409434007600,5.568007568359375,-0.0029699557214975356,-0.017826091004535555,-0.014657178644835948
1772536409444055600,5.5780556640625,-0.040029228049516676,-0.019937164874374864,0.005189074809383601
1772536409454103600,5.588103515625,-0.08807575833797454,-0.009207169610634445,-0.002443538960907608
1772536409464151600,5.598151611328125,-0.047177346238493914,0.024716800366342065,-0.01275735463919118
1772536409474200600,5.60820068359375,-0.003326514074206352,0.042033918935433026,-0.004754811577964574
1772536409484248600,5.61824853515625,-0.0450257211625576,0.03442797397635877,-0.005082216901425272
1772536409494296600,5.628296630859375,-0.0818295574247837,0.013810206426680087,0.0028274054456502197
1772536409504344600,5.638344482421875,-0.07076338900923729,0.0028819121118634937,-0.00018722966779023407
1772536409514393600,5.6483935546875,-0.03466974684298038,-0.009131912417337297,-0.007115147501137107
1772536409524441600,5.658441650390625,-0.04992576816380024,-0.022194223086163402,-0.00532483001826331
1772536409534489600,5.668489501953125,-0.055064300096035,-0.012472747277840972,-0.016375709533132613
1772536409544537600,5.67853759765625,-0.023854922839999196,-0.0063703387495130295,-0.03255542157012969
1772536409554585600,5.688585693359375,-0.01360007080733776,-0.00775346367098391,-0.02509392658304423
1772536409564634600,5.698634521484375,-0.00978022025823593,-0.004670695224776864,-0.03203722464861348
1772536409574682400,5.708682373046875,-0.005340776506066322,-0.024403569698706266,-0.023370372459758072
1772536409584730600,5.718730712890625,-0.011643091520667075,-0.035686303474381564,-0.021370321216341106
1772536409594778600,5.728778564453125,-0.003828618377447128,-0.02460888301245868,-0.029506993784941732
1772536409604826600,5.73882666015625,0.022010171756148337,-0.005185366748645902,-0.028599286089185622
1772536409614875600,5.748875732421875,0.021444354566931723,-0.0004052928652614355,-0.02181934362547472
1772536409624923400,5.75892333984375,-0.015036825612187384,0.0009589081600308417,-0.025229206867888567
1772536409634971600,5.7689716796875,-0.013225392276048659,0.004625687039270997,-0.024536895488481966
1772536409645019600,5.77901953125,0.015098784932494162,0.015948387499153612,-0.01597414299491793
1772536409655067600,5.789067626953125,-0.0008738602250814438,0.013155541910231112,-0.006210362414829433
1772536409665116700,5.79911669921875,-0.018938509225845335,-0.004246843789517879,0.0035691637236624956
1772536409675164700,5.80916455078125,-0.05107669176459312,0.001903933925181627,0.00410292354049161
1772536409685212700,5.819212646484375,-0.0479272878229618,0.02157090355604887,-0.010452767491247504
1772536409695260400,5.829260498046875,-0.0021627309918403623,0.030793051540106534,-0.03027819735314697
1772536409705308700,5.83930859375,-0.0035281741261482236,0.023733999874070287,-0.031849446991551664
1772536409715357400,5.849357421875,-0.024005729487538336,0.0023844839837402106,-0.018454525101184845
1772536409725405700,5.85940576171875,-0.02033960819542408,-0.01500708806104958,-0.0032144502681680023
1772536409735453700,5.86945361328125,-0.026211130577325818,-0.04016564084552228,0.0050813583848997946
1772536409745501400,5.87950146484375,-0.06556114419102668,-0.04433890794217586,0.006429704253934324
1772536409755549700,5.8895498046875,-0.049561611026525496,-0.022498028338328004,-0.008838811222277582
1772536409765598500,5.899598388671875,-0.017474281892180442,0.007238646016642451,-0.03376552801225334
1772536409775646700,5.909646728515625,-0.01946691701412201,0.020215835685282943,-0.05588465830190107
1772536409785694700,5.91969482421875,0.02242342873215675,0.010556246132031082,-0.03390890027200803
1772536409795742500,5.929742431640625,0.009489128357172012,-0.01150412144139409,-0.02024416673062369
1772536409805791700,5.939791748046875,-0.04068564613163471,-0.013689867982640862,-0.015757212308607993
1772536409815839500,5.949839599609375,-0.023480828830599782,-0.015465060961619018,-0.001408789085689932
1772536409825887700,5.9598876953125,0.021042203506827353,-0.029344314036518333,0.00660716144638136
1772536409835935500,5.969935546875,-0.012479542344808577,-0.04970299225859344,0.022632778900209812
1772536409845983500,5.9799833984375,-0.06720774235427379,-0.044403278415277594,0.014307013500295578
1772536409856032500,5.990032470703125,-0.04861760817468166,-0.019035320663824677,-0.008209719538502394
1772536409866080500,6.00008056640625,0.01082943705022335,0.0005621639274060726,-0.013079133939463644
1772536409876128800,6.010128662109375,-0.02012918031513691,0.01741451452895999,-0.016349241651315242
1772536409886176500,6.020176513671875,-0.10308861855268478,0.033857626742497086,-0.037093485124874856
1772536409896224500,6.030224609375,-0.0873632261544466,0.057449806993082164,-0.018496720275096593
1772536409906273500,6.0402734375,-0.020640052446722984,0.05073474645912647,-0.022658315200265497
1772536409916321500,6.050321533203125,-0.0320505042552948,0.02894084780216217,-0.01364739881409332
1772536409926369800,6.060369873046875,-0.07922960405945778,0.008960866699367761,0.005820577645953744
1772536409936417500,6.07041748046875,-0.06171440563499927,0.0040779169633984565,0.0015954342315904796
1772536409946465500,6.080465576171875,-0.005295768320560455,0.01642126570791006,-0.01177239872245118
1772536409956514600,6.0905146484375,0.030898996132612228,0.007395224817842245,-0.023227803917601705
1772536409966562600,6.1005625,0.03358370517194271,0.01248772565126419,-0.015312866074591874
1772536409976610600,6.110610595703125,0.03752162914276123,-0.023282675909996033,0.0007712766334414482
1772536409986658600,6.120658447265625,0.02313420735001564,-0.05760097896680236,-0.002943670502770692
1772536409996707600,6.13070751953125,0.0009206219762563705,-0.05878478192389011,-0.0019348953190259635
1772536410006755600,6.140755615234375,-0.01882861911058426,-0.042165071034431456,-0.02514240536727011
1772536410016803600,6.150803466796875,0.015764555364847183,-0.023267624471336602,-0.041649705390818414
1772536410026851600,6.1608515625,0.021899112597107886,-0.006730038907378911,-0.03887591156223789
1772536410036899600,6.170899658203125,-0.025310382345318794,-0.00017447978407144545,-0.0348784576902166
1772536410046948600,6.180948486328125,-0.035923546296358105,0.0015730945356190204,-0.03909507073825225
1772536410056996600,6.19099658203125,-0.008279752567410469,-0.0008516483932733535,-0.039143567788787186
1772536410067044600,6.201044677734375,-0.012969371688365936,0.009370762674510478,-0.028047753153648224
1772536410077092600,6.211092529296875,-0.04830547348558902,-0.016367781955003737,-0.017956439385935663
1772536410087140900,6.221140869140625,-0.06028992578983307,-0.02065291192829609,-0.012200908066518605
1772536410097189600,6.231189697265625,-0.015671616384387015,-0.0025327333480119705,-0.0024580972092226147
1772536410107238000,6.24123779296875,0.004296235889196396,0.0035369419544935225,-0.007397270644456147
1772536410117285600,6.25128564453125,-0.043694764819741244,-0.01553878378495574,-0.006336144218966364
1772536410127333600,6.261333740234375,-0.04487900616824626,0.00857552064359188,-0.013855963530857116
1772536410137382000,6.2713818359375,-0.039570962888002395,0.03203457603380084,-0.009696377899684012
1772536410147430700,6.2814306640625,-0.04854980363547802,0.028793840546905994,-0.027751510153431445
1772536410157479000,6.29147900390625,-0.06417407374680043,0.03326850174292922,-0.01275134502351284
1772536410167526700,6.301526611328125,-0.0657522828489542,0.03311477248594165,-0.011263353221770375
1772536410177574700,6.31157470703125,-0.04039981492757797,0.017721096260100603,-0.022605982224829492
1772536410187623000,6.321622802734375,-0.018796470406651496,-0.0021441724218428135,-0.012523509350698441
1772536410197671700,6.331671630859375,-0.0020791443616151807,-0.0033279753789305683,-0.012979546022508292
1772536410207719700,6.3417197265625,-0.005372340688109397,-0.016406652660667896,-0.02202694022785872
1772536410217767700,6.351767578125,0.012933715853095053,-0.016845190208405254,-0.03703006449984386
1772536410227815700,6.361815673828125,0.03516308331787586,-0.013665683389455079,-0.039126415724586694
1772536410237864700,6.37186474609375,0.006958148574829101,-0.021746990775316954,-0.03714484998593107
1772536410247912700,6.38191259765625,-0.0065653498649597165,-0.018002397419512272,-0.0361466327288188
1772536410257960700,6.391960693359375,0.02753390361368656,-0.007022738243639469,-0.023376455140672624
1772536410268008700,6.4020087890625,-0.0002659574598073959,-0.009038608110696077,-0.019326686559524384
1772536410278056700,6.412056640625,-0.061927756124734876,-0.009312456616014242,-0.01679884858233854
1772536410288105700,6.422105712890625,-0.04420739051699638,0.0113664665363729,-0.01822232378050685
1772536410298153700,6.43215380859375,-0.003440495842695236,0.03765358495935797,0.0028487587609328326
1772536410308201700,6.44220166015625,-0.015815993291139602,0.02403203297257423,-0.0058105677085928615
1772536410318249700,6.452249755859375,-0.04541618178486824,0.004765022444725036,0.009088511667028069
1772536410328297700,6.462297607421875,-0.022899814072251317,0.005612579184770584,0.012503434677049516
1772536410338346800,6.4723466796875,0.00208440505862236,0.015273556977510452,0.005014521960075944
1772536410348394800,6.482394775390625,-0.029599603971838948,0.0063711424671113485,0.007101356437802314
1772536410358442800,6.49244287109375,-0.02900572973191738,0.010277940647304057,-0.004017455480434
1772536410368490800,6.50249072265625,0.03188800716996193,0.025045447798818347,-0.027044914520345627
1772536410378538500,6.51253857421875,0.041486441120505334,0.005506780722737312,-0.029781664274167268
1772536410388587800,6.522587890625,0.0038163434177637097,-0.019433160874992608,-0.04407636628216132
1772536410398635500,6.532635498046875,-0.0077770637422800055,-0.04395093153789639,-0.029710023810062557
1772536410408683800,6.542683837890625,-0.015440730237960814,-0.04972425424233079,-0.014474004097655415
1772536410418731800,6.552731689453125,-0.051827802392840384,-0.03999152638763189,-0.020172581065446137
1772536410428779500,6.562779541015625,-0.061086044603586194,-0.009129501264542341,-0.03378043332044035
1772536410438828800,6.572828857421875,0.0007996259450912475,0.02132058205679059,-0.024435133880749343
1772536410448876500,6.58287646484375,-0.005763385832309722,0.025886867059022187,-0.027138949479348955
1772536410458924800,6.5929248046875,-0.011053893455862999,0.016599398753792047,-0.021350283075310287
1772536410468972800,6.602972900390625,-0.012744915282726288,-0.00030438977405428883,0.0053534533245489
1772536410479020500,6.6130205078125,-0.02365092470049858,-0.00013780103549361229,0.015111607881449163
1772536410489069800,6.62306982421875,-0.012750760501623153,-0.003865735517442226,0.01339011785108596
1772536410499117600,6.63311767578125,0.0024351181924343107,0.0058517947681248185,0.030014358785189686
1772536410509165800,6.643165771484375,-0.021596330258250234,0.0036332419358193874,0.028180421356298026
1772536410519213600,6.653213623046875,-0.01838555151820183,-0.006747574564069509,0.020749540703184903
1772536410529262800,6.663262939453125,-0.02188157694041729,-0.005663432589173316,0.009391001744940876
1772536410539310600,6.673310546875,-0.022666005316376685,-0.011985036826133727,-0.018854812997765837
1772536410549358600,6.683358642578125,-0.014487375035881996,-0.011756634897738694,-0.02674359348621219
1772536410559406800,6.69340673828125,-0.031438509836792944,-0.0219093417301774,-0.012548990851826964
1772536410569454600,6.70345458984375,-0.07775660889744758,-0.01363455759882927,-0.019244396837241946
1772536410579503900,6.71350390625,-0.05214636682271957,0.022012655974179503,-0.037434718044288454
1772536410589551600,6.723551513671875,-0.023911621463298796,0.03954422101154923,-0.03278082782384008
1772536410599599600,6.733599609375,-0.04800561375617981,0.017921295007318257,-0.022324827195890247
1772536410609647900,6.74364794921875,-0.05318038604557514,0.019946663355082273,-0.010289558019861578
1772536410619695600,6.753695556640625,-0.02742985871732235,0.018144874630123375,-0.0041716596614569425
1772536410629745000,6.763744873046875,-0.0007797522008419036,-0.00204977213665843,-0.011933854628168046
1772536410639792600,6.773792724609375,0.02413841595649719,-0.024141630826890467,0.0013030454225838183
1772536410649840600,6.783840576171875,0.017725626304745674,-0.037002865965664385,-0.00521364299505949
1772536410659888600,6.793888671875,0.020541268247365952,-0.03430047513917088,-0.004518683000840246
1772536410669936600,6.8039365234375,0.02386836684346199,-0.03437383263632655,-0.01158979043085128
1772536410679985700,6.813985595703125,0.006265490135550498,-0.01062426986694336,-0.015190664467029272
1772536410690033700,6.82403369140625,0.011270751076936722,-0.002085720232874155,-0.027948694959655403
1772536410700082000,6.83408203125,0.01929389853477478,0.006636223144084215,-0.03954374608751386
1772536410710129700,6.844129638671875,-0.012483049476146698,0.009331599707901476,-0.029810762504488227
1772536410720177700,6.854177734375,-0.030683892077207564,0.006327887847274541,-0.037468729911744596
1772536410730226700,6.864226806640625,-0.024794249516725538,0.0012972002036869526,-0.028596308680810034
1772536410740274700,6.874274658203125,-0.028496611166000364,-0.0016230711571872233,-0.03233670078553259
1772536410750323000,6.884322998046875,-0.020997779843211172,-0.013866612789034843,-0.023395561699941753
1772536410760370700,6.89437060546875,-0.023082184901833534,-0.009244505946338176,-0.03025193040072918
1772536410770418700,6.904418701171875,-0.03324468247592449,-0.01661751893237233,-0.032865364302136005
1772536410780467700,6.9144677734375,-0.04659340887069702,-0.021743337513506412,-0.017987565176561474
1772536410790515700,6.924515625,-0.05565817433595657,-0.008027677502483128,-0.025852635995857416
1772536410800563700,6.934563720703125,-0.03743044372797012,0.003023877865821123,-0.020515878077782688
1772536410810611700,6.94461181640625,-0.02985971621274948,0.011267390076071023,-0.011329495526850223
1772536410820660700,6.95466064453125,-0.06396364586651325,0.010867430973052978,-0.011024959622323513
1772536410830708700,6.964708740234375,-0.06909282544851303,0.010457827258855103,-0.016602832819893956
1772536410840756700,6.9747568359375,-0.05059563024938106,0.016806757894158364,-0.017030008723400533
1772536410850804700,6.9848046875,-0.041811435291171074,0.022564006246626377,-0.022839498719759283
1772536410860852700,6.994852783203125,-0.0382809230774641,0.008015402542799711,-0.020885807368718087
1772536410870901800,7.00490185546875,-0.03890869958698749,-0.00609247165620327,-0.015406754903122781
1772536410880949800,7.01494970703125,-0.04057809410393238,-0.0015814239725470542,-0.01261146162878722
1772536410890997800,7.024997802734375,-0.015423194581270217,0.016092472144961355,-0.022840923491865395
1772536410901045800,7.035045654296875,0.0011900865674018858,0.0240061678789556,-0.020449023386649785
1772536410911093800,7.04509375,0.009456395131349563,0.031998920198529957,-0.019213015318289398
1772536410921142800,7.055142822265625,0.015534253740310668,0.046149902886897326,-0.0362940966418013
1772536410931190800,7.065190673828125,0.026933599632978436,0.03927753289937973,-0.01702127742767334
1772536410941238500,7.075238525390625,-0.004088146096467972,0.00615998393446207,-0.013457483998872338
1772536410951286800,7.085286865234375,-0.02026712748110294,0.0014323708906769752,-0.02198675434794277
1772536410961334800,7.095334716796875,-0.004708323821425438,0.005632452929019927,-0.02195464217662811
1772536410971383800,7.1053837890625,-0.0046603930264711374,0.005085194309800863,-0.023617753083258867
1772536410981431800,7.115431884765625,-0.016140402939915657,0.014830635515600443,-0.031125279169157145
1772536410991479600,7.1254794921875,-0.009811784440279006,0.013986732037365435,-0.027607772567495702
1772536411001527800,7.13552783203125,-0.027392449316382406,-0.006196808813512325,-0.017308825664781032
1772536411011575800,7.145575927734375,-0.02238251219987869,0.008649901054054498,-0.020396087623015046
1772536411021624800,7.155624755859375,-0.03416530445218086,-0.002103840411454439,-0.01988718825280666
1772536411031672800,7.1656728515625,0.002379588612914085,0.01639101670011878,-0.031876974319294094
1772536411041720600,7.175720458984375,0.02385784544944763,0.027622458679974076,-0.034341793530248105
1772536411051768800,7.185768798828125,0.005395721563696861,0.006814356189966201,-0.029959596390649674
1772536411061816600,7.195816650390625,0.001772270369529724,-0.03306187325492501,-0.013377441032603382
1772536411071865900,7.205865966796875,-0.030097032099962232,-0.03621829145923257,-0.0042807095265015955
1772536411081913600,7.21591357421875,-0.04924070850908756,-0.024374855060875413,-0.007088022032193839
1772536411091961300,7.22596142578125,-0.02723229031860828,-0.009328823228925465,-0.02513794838786125
1772536411102009300,7.23600927734375,0.004322539374232292,0.0020971184097230435,-0.028647965802811086
1772536411112058400,7.246058349609375,-0.0014385083705186843,0.0038324177697300907,-0.027597105043008923
1772536411122106400,7.2561064453125,-0.03084522011876106,0.010022796842455862,0.002895611843653023
1772536411132154000,7.266154052734375,-0.010935820034146308,-0.003503331945836544,-0.016544161435216663
1772536411142202400,7.276202392578125,0.009704816934466362,0.008666267666965722,0.00006214198339730501
1772536411152250400,7.28625048828125,-0.016767010405659675,-0.0004281622841954231,0.01554419061243534
1772536411162299400,7.29629931640625,-0.04112696015834808,-0.01636252125799656,0.012451631424576044
1772536411172347400,7.306347412109375,-0.04883855744898319,-0.028249650667607783,0.016667714749649166
1772536411182395100,7.31639501953125,-0.032331659284234045,-0.013981617470830678,0.006720028970018029
1772536411192443400,7.326443359375,-0.03736673084199428,-0.011200316189229488,0.010057027905620634
1772536411202491400,7.336491455078125,-0.04724982695281505,-0.008875672633945942,-0.007819660774990916
1772536411212540400,7.34654052734375,-0.041298809593915936,0.004635112454742193,-0.01670055757332593
1772536411222588400,7.35658837890625,-0.04465513428449631,0.018485797022283076,-0.023125183793343603
1772536411232636400,7.366636474609375,-0.03694470603764057,0.021206600288301704,-0.017709296224452553
1772536411242684400,7.376684326171875,-0.0609942746669054,0.019212649992108345,-0.004883716920949519
1772536411252733200,7.386733154296875,-0.05259469511210918,0.02816051107943058,-0.007006810022145509
1772536411262781400,7.396781494140625,-0.04183072451353073,0.016090718579292295,-0.011990662849321961
1772536411272829200,7.4068291015625,0.0021539631634950635,0.00825417973473668,-0.00686221391968429
1772536411282877400,7.41687744140625,0.02073299142718315,0.014380261399596929,-0.012651903237029909
1772536411292925400,7.426925537109375,0.026498130825161934,-0.005420563744008541,0.005754143079929054
1772536411302973200,7.43697314453125,0.036544308543205256,-0.025606150421500204,0.003271386353485286
1772536411313022500,7.4470224609375,0.01930558897256851,-0.040014176610857245,0.005139226051978767
1772536411323070200,7.4570703125,0.007821487405896187,-0.0343444604113698,-0.011682875541783868
1772536411333118500,7.467118408203125,0.016715572479367256,-0.01670095943212509,-0.012269662453792988
1772536411343166500,7.47716650390625,0.020080080476403236,-0.01864858636856079,-0.03289188698288053
1772536411353215200,7.48721533203125,-0.013559738796949385,-0.021755320212244987,-0.02494352179430425
1772536411363263500,7.497263427734375,-0.04174187718629837,-0.0011617372557520865,-0.031095103226602076
1772536411373311200,7.507311279296875,-0.031245033091306683,0.01413446994498372,-0.03395736078992486
1772536411383359500,7.517359375,-0.02003624133467674,0.01408113232254982,-0.03101622930411249
1772536411393407200,7.5274072265625,-0.039977790123224256,0.0036066461898386477,-0.024197379602119325
1772536411403456500,7.53745654296875,-0.036139234873652455,0.005275602315366268,-0.012723689831607043
1772536411413504300,7.547504150390625,-0.0030868600994348526,0.0021500176407396794,-0.0047376960463821885
1772536411423552300,7.55755224609375,-0.030000585988163946,-0.0034720600247383116,0.001706657787412405
1772536411433600500,7.5676005859375,-0.048072833773493764,0.004547434171289205,0.012422478395327926
1772536411443648300,7.577648193359375,-0.01962882957756519,0.0028853461779654024,0.011466748573072253
1772536411453697500,7.587697509765625,-0.0016635492980480193,0.01858472735211253,0.00046885962076485154
1772536411463745300,7.597745361328125,-0.0282815071105957,0.011452391254156827,0.0010506780967116354
1772536411473793300,7.607793212890625,-0.0345645329028368,0.011273819816857576,-0.00864606512915343
1772536411483841500,7.617841552734375,-0.04012041346430778,0.01005085389316082,-0.014415332712978124
1772536411493889300,7.62788916015625,-0.03972703023254871,0.01774316196143627,-0.027160869050212203
1772536411503938600,7.6379384765625,-0.027265608066320418,0.029557810656726358,-0.03678166096303612
1772536411513986300,7.647986328125,-0.014077040669322013,0.031750206134468315,-0.04616429673843085
1772536411524034300,7.658034423828125,-0.04227028497457504,0.010861293493211268,-0.04600337055567652
1772536411534082300,7.668082275390625,-0.042514030602574346,-0.014563947403430939,-0.03422445076089352
1772536411544130300,7.67813037109375,-0.05335691165626049,0.003862082255631685,-0.024445947535708546
1772536411554179300,7.688179443359375,0.016763503274321554,-0.015224895530194044,-0.05569437816049903
1772536411564227300,7.698227294921875,0.0006143325060606002,-0.03500277818962932,-0.030723456902615725
1772536411574275300,7.708275390625,-0.030737083569169044,-0.01719970273450017,-0.025208821666985747
1772536411584323300,7.7183232421875,-0.003118424281477928,-0.03470467202588916,-0.030739860048145055
1772536411594372400,7.728372314453125,0.017752514311671255,-0.0011839490875601769,-0.015320976315811275
1772536411604420400,7.73842041015625,0.03521042959094047,0.011035773277282715,-0.026737492538988588
1772536411614468400,7.74846826171875,-0.0031219314128160475,-0.013630758206546306,-0.020967202041856942
1772536411624516400,7.758516357421875,-0.03410568321943283,-0.014387129531800746,-0.0016572656877338885
1772536411634564400,7.768564453125,-0.032142274191975594,-0.00988835680782795,-0.007484474003873765
1772536411644613400,7.77861328125,-0.025981413474678992,0.004762538226693869,-0.009270772898755967
1772536411654661400,7.788661376953125,-0.0039472763210535045,0.04285246877670288,-0.010126147619076072
1772536411664709400,7.79870947265625,-0.023072832551598546,0.04447568606436252,-0.012227942203916608
1772536411674757000,7.808757080078125,-0.0013490765213966369,0.03828194599077105,-0.03553513150066137
1772536411684805400,7.818805419921875,0.0009229600638151168,0.02349032731130719,-0.024036709147691727
1772536411694854100,7.828854248046875,-0.020294015488028526,0.014405541971325873,-0.014543196876347064
1772536411704902400,7.83890234375,-0.030256022053956985,-0.015602935062348841,-0.007336261172220111
1772536411714950400,7.848950439453125,-0.04532558089196682,-0.028163141427934166,-0.018003639528527855
1772536411724998100,7.858998046875,-0.06128945822119713,0.0017151333548128605,-0.0053292687313631175
1772536411735046400,7.86904638671875,-0.0014116203635931015,0.007486556363105774,-0.044535891819000244
1772536411745095200,7.87909521484375,0.01486322261095047,0.00383767846673727,-0.03960972399581224
1772536411755143400,7.889143310546875,-0.019643442624807356,0.004804477672278881,-0.016174414807371796
1772536411765191400,7.89919140625,-0.022418168035149573,-0.017555676565319298,-0.003728665134310722
1772536411775239200,7.9092392578125,-0.0030120412975549694,-0.010354951406270265,0.004813282033242285
1772536411785288400,7.919288330078125,0.014818214425444603,-0.003503770337253809,0.012302797538414597
1772536411795336200,7.929336181640625,0.01656067417860031,-0.029818507419526574,0.009860628550685941
1772536411805384400,7.939384521484375,-0.013124854511022566,-0.028630612809211014,0.02428491175509989
1772536411815432200,7.94943212890625,-0.01841419309079647,-0.026032413009554146,0.011508907214365899
1772536411825480200,7.959480224609375,-0.01474164205789566,-0.023508593620359897,-0.0027213147226721047
1772536411835529200,7.969529296875,-0.05719195977449417,-0.020549597684293985,0.006766242731921375
1772536411845577200,7.9795771484375,-0.07865735712945461,0.0205902219556272,-0.013581110378541051
1772536411855625500,7.98962548828125,-0.05188508553802967,0.021850305019319057,-0.031792437840998174
1772536411865673200,7.999673095703125,-0.05656535230875015,0.012559037321805954,-0.006464446773752569
1772536411875721500,8.009721435546876,-0.06784545573592185,0.027955197765678164,-0.01791307516824454
1772536411885770200,8.019770263671875,-0.04349894998669624,0.009029694151878357,-0.0014195114091038704
1772536411895818200,8.029818359375,-0.026328619477152822,0.0016598960362374782,0.009041713383235037
1772536411905866500,8.039866455078124,-0.015885551396012304,0.009836042098701,0.0034949659762904045
1772536411915914200,8.049914306640625,0.00298632233440876,0.008914981731027364,-0.008160217840969562
1772536411925962500,8.05996240234375,0.046131052055954934,0.0047784664481878274,-0.027094745011441407
1772536411936011300,8.07001123046875,0.04087561574578285,-0.01043430025279522,-0.013623981405887753
1772536411946059300,8.080059326171876,0.005907762739062309,-0.02846343954876065,-0.0016007314612157641
1772536411956107300,8.090107177734374,0.01513502528965473,-0.044337300506979226,-0.02248182612219825
1772536411966155300,8.1001552734375,0.01213701251745224,-0.03640256198495626,-0.012451266098394989
1772536411976203500,8.11020361328125,-0.015425532668828963,-0.01984597945958376,-0.005995477555133402
1772536411986252300,8.120252197265625,-0.030934067445993422,-0.019338322198390958,-0.020583901812694965
1772536411996300300,8.13030029296875,-0.018380875343084333,-0.0007141396187245845,-0.02129358445201069
1772536412006348300,8.140348388671875,-0.022323475489020347,0.0077821783088147635,-0.020237243799492717
1772536412016396300,8.150396240234375,-0.053523500394821164,-0.0064468380518257614,-0.01837976109823212
1772536412026445300,8.1604453125,-0.06543605650663376,-0.013807137686759233,0.0030407924680039286
1772536412036493300,8.170493408203125,-0.03844108207523823,0.0009450257651507853,-0.0029927338088862596
1772536412046541600,8.18054150390625,-0.03138122669160366,0.00976239234060049,-0.003735496733896434
1772536412056589300,8.19058935546875,-0.028370938959717748,0.004091068705916404,-0.012276548852305858
1772536412066637300,8.20063720703125,-0.010866846451163292,0.003014379385113716,-0.007908252373896538
1772536412076686300,8.210686279296874,-0.012193711140751838,0.007776040828973055,0.0008511186703108251
1772536412086734300,8.220734375,-0.05329904398918152,0.02253317271694541,0.006311776962690055
1772536412096782000,8.230781982421876,-0.04006897553801536,0.02130669966191053,-0.008562387167382985
1772536412106830000,8.240830078125,-0.039411388412117956,-0.001305675771087408,-0.017259561429265886
1772536412116878300,8.25087841796875,-0.036630817782878876,0.012343787135928869,-0.014910568884015082
1772536412126927000,8.260927001953124,0.00400631303191185,0.0020775369264185426,-0.028925705031957474
1772536412136975400,8.270975341796875,-0.0008785364001989365,-0.008765782518684864,-0.031276177148241546
1772536412147023000,8.281023193359376,-0.038224224454164506,-0.007807020489126444,-0.02274900742471218
1772536412157071000,8.291071044921875,-0.021820202142000197,0.009985387441515921,-0.01517511983802542
1772536412167119400,8.301119384765625,0.019889526340365407,0.012778671421855688,-0.038522275818977506
1772536412177168100,8.311168212890625,0.0053606502503156656,0.0009970482133328914,-0.029751597929466515
1772536412187216400,8.32121630859375,-0.005841711765527725,0.008312339662760496,-0.03478542737821117
1772536412197264100,8.33126416015625,-0.027654315122961997,-0.007270137133449315,-0.04095149399358779
1772536412207312100,8.34131201171875,-0.00006312836408615112,-0.002160831295698881,-0.03500617572311312
1772536412217360400,8.3513603515625,0.01843991205394268,0.002299509114027023,-0.037266339207440616
1772536412227409200,8.3614091796875,-0.0052151042997837065,-0.018989362630248068,-0.043797439742926506
1772536412237457200,8.37145703125,0.000647065731883049,-0.018324761241674422,-0.04937273739092052
1772536412247505200,8.381505126953124,0.0016506898164749145,0.00230009363591671,-0.0451863916169852
1772536412257553200,8.39155322265625,0.025906010150909424,-0.0046906420342624185,-0.039612080349680036
1772536412267601200,8.40160107421875,-0.02123451120853424,-0.027466829726845023,-0.0010935308577492832
1772536412277650200,8.411650146484375,-0.08068973973989486,0.011145371131598948,0.0002989098813384771
1772536412287698200,8.4216982421875,-0.04593114556968212,0.05915054649636149,-0.01146841080719605
1772536412297746200,8.43174609375,-0.018128946408629415,0.04882072953134775,-0.013559994525276124
1772536412307794200,8.441794189453125,-0.03651157531738281,0.029384646046906708,-0.01282283935714513
1772536412317842200,8.45184228515625,-0.040862171742320055,0.005541413644701242,-0.006725728058442473
1772536412327891200,8.46189111328125,-0.057223523956537244,-0.03147270436733961,-0.0018207126211374997
1772536412337939200,8.471939208984375,-0.05846446392834186,-0.03191036513224244,0.016135014378745108
1772536412347987200,8.4819873046875,-0.03592646890580654,-0.014443535894155502,0.001501417538896203
1772536412358035200,8.49203515625,-0.024476854130625725,-0.009785334824770689,-0.011585790109168737
1772536412368084200,8.502084228515624,-0.013479659298062325,0.004209434388577938,-0.0075771937886253
1772536412378132200,8.51213232421875,-0.030808395239710806,0.005897533605992794,-0.024262498993892222
1772536412388180200,8.52218017578125,-0.011100070685148239,-0.005594751267135143,-0.019147859393898396
1772536412398228200,8.532228271484374,-0.004296235889196396,-0.005941665008664131,-0.02155727688949555
1772536412408276200,8.542276123046875,0.014479191729426383,0.002014700823277235,-0.0228902425263077
1772536412418325200,8.5523251953125,0.02270283019542694,0.003353109820187092,0.007782123509887605
1772536412428373000,8.562373046875,0.015625439155101777,-0.002113338892161846,0.002397927987203002
1772536412438421200,8.572421142578126,0.040210429835319514,-0.0036459552869200704,0.020989212944265454
1772536412448469200,8.58246923828125,0.030185294905304905,-0.016132219633460045,0.040078784545976666
1772536412458517200,8.592517333984375,0.006294716230034828,-0.04719079024195671,0.015187394797708838
1772536412468566300,8.602566162109374,-0.004435352098941803,-0.0554389786273241,0.021914839889202266
1772536412478614300,8.6126142578125,-0.0010778583645820617,-0.017603315099328755,0.011687460385356098
1772536412488662300,8.622662353515626,-0.00187222361266613,0.0132290455378592,-0.03697464451817795
1772536412498710300,8.632710205078125,0.0695119276434183,0.019545681338757274,-0.022267178724519908
1772536412508758300,8.64275830078125,0.23678631038069722,0.02856090857386589,-0.04757522298227995
1772536412518807300,8.652807373046874,0.2687427066117525,0.04545958253517746,0.00731708154771477
1772536412528855300,8.662855224609375,-0.20912848812639712,-0.01564443611651659,0.03422781176175922
1772536412538903300,8.6729033203125,-0.4191559709191322,-0.057388651390373704,0.030332375225797292
1772536412548951000,8.682950927734375,-0.19781740503907203,-0.06279036430343986,-0.01882412559855729
1772536412559000300,8.693000244140626,-0.05132686713337898,-0.0034361119285225864,-0.08007421992374583
1772536412569048000,8.703048095703124,-0.09712883336544036,-0.0003514437861740589,-0.10312933415556326
1772536412579096300,8.713096435546875,-0.1735100622564554,-0.05660714562386274,-0.07046362061137333
1772536412589144300,8.723144287109376,-0.18124796303212642,-0.05468479925915599,-0.050558531375695014
1772536412599192000,8.733192138671875,-0.09086743488311767,-0.02901478982120752,-0.041373445732705294
1772536412609241300,8.743241455078126,0.0002034136176109314,-0.009830050749331713,0.009556311841867863
