time,seconds_elapsed,z,y,x
1772536403931361800,0.06536181640625,-1.008636474609375,-0.1075897216796875,-0.02935791015625
1772536403941409800,0.075409912109375,-0.98931884765625,-0.1079254150390625,-0.0368804931640625
1772536403951457800,0.085457763671875,-0.9759368896484375,-0.1046295166015625,-0.0314178466796875
1772536403961505500,0.095505615234375,-0.9688262939453125,-0.1042938232421875,-0.0254974365234375
1772536403971554800,0.105554931640625,-0.9722137451171875,-0.109771728515625,-0.0236663818359375
1772536403981602600,0.1156025390625,-0.983734130859375,-0.1184539794921875,-0.0299224853515625
1772536403991650800,0.12565087890625,-0.984039306640625,-0.12042236328125,-0.0296478271484375
1772536404001698800,0.13569873046875,-0.9829864501953125,-0.12054443359375,-0.0361175537109375
1772536404011746600,0.14574658203125,-0.9780426025390625,-0.1215667724609375,-0.0364227294921875
1772536404021795800,0.1557958984375,-0.977294921875,-0.1248321533203125,-0.039581298828125
1772536404031843600,0.165843505859375,-0.9779052734375,-0.123748779296875,-0.0439910888671875
1772536404041891800,0.175891845703125,-0.978515625,-0.12274169921875,-0.0462646484375
1772536404051939800,0.18593994140625,-0.9834442138671875,-0.124176025390625,-0.0491485595703125
1772536404061987600,0.195987548828125,-0.9867095947265625,-0.12579345703125,-0.052825927734375
1772536404072036900,0.206036865234375,-0.990570068359375,-0.1253204345703125,-0.0514068603515625
1772536404082082300,0.216082275390625,-0.9947967529296875,-0.1266326904296875,-0.0496978759765625
1772536404092130300,0.22613037109375,-0.9950103759765625,-0.125640869140625,-0.0475921630859375
1772536404102178300,0.23617822265625,-0.9995269775390625,-0.1219024658203125,-0.0473480224609375
1772536404112227300,0.246227294921875,-1.003570556640625,-0.115814208984375,-0.049530029296875
1772536404122275300,0.256275390625,-0.998687744140625,-0.112274169921875,-0.0558013916015625
1772536404132323300,0.2663232421875,-0.9897308349609375,-0.1030120849609375,-0.05340576171875
1772536404142371300,0.276371337890625,-0.9887542724609375,-0.1026763916015625,-0.0537109375
1772536404152419300,0.28641943359375,-0.9952545166015625,-0.108062744140625,-0.0482635498046875
1772536404162468400,0.29646826171875,-0.998016357421875,-0.1121368408203125,-0.048919677734375
1772536404172516400,0.306516357421875,-0.997161865234375,-0.1124725341796875,-0.0470123291015625
1772536404182564400,0.316564453125,-0.995452880859375,-0.111602783203125,-0.048065185546875
1772536404192612400,0.3266123046875,-0.9974517822265625,-0.109832763671875,-0.049285888671875
1772536404202660400,0.336660400390625,-0.996063232421875,-0.0932769775390625,-0.0413970947265625
1772536404212709400,0.34670947265625,-0.9912872314453125,-0.10455322265625,-0.0462799072265625
1772536404222757400,0.35675732421875,-1.00616455078125,-0.1408538818359375,-0.0448150634765625
1772536404232805400,0.366805419921875,-1.022216796875,-0.146484375,-0.026214599609375
1772536404242853400,0.376853271484375,-1.0230255126953125,-0.1341400146484375,-0.0223388671875
1772536404252901400,0.3869013671875,-1.004974365234375,-0.1235198974609375,-0.0257415771484375
1772536404262950400,0.396950439453125,-0.98785400390625,-0.1186676025390625,-0.024932861328125
1772536404272998400,0.406998291015625,-0.985748291015625,-0.1166534423828125,-0.0258331298828125
1772536404283046100,0.417046142578125,-0.9904632568359375,-0.115936279296875,-0.023406982421875
1772536404293094400,0.427094482421875,-0.992584228515625,-0.114532470703125,-0.0207061767578125
1772536404303142400,0.437142333984375,-0.9931793212890625,-0.114227294921875,-0.020965576171875
1772536404313191400,0.44719140625,-0.99163818359375,-0.114013671875,-0.0228118896484375
1772536404323239400,0.457239501953125,-0.9892578125,-0.1141204833984375,-0.024322509765625
1772536404333287200,0.467287109375,-0.9883270263671875,-0.11529541015625,-0.0257415771484375
1772536404343335400,0.47733544921875,-0.9904937744140625,-0.1181793212890625,-0.0257568359375
1772536404353384200,0.48738427734375,-0.993499755859375,-0.121856689453125,-0.0273284912109375
1772536404363432400,0.497432373046875,-1.0030517578125,-0.12225341796875,-0.028533935546875
1772536404373480200,0.507480224609375,-1.0040130615234375,-0.1201019287109375,-0.033935546875
1772536404383528200,0.517528076171875,-0.9945526123046875,-0.1170806884765625,-0.031707763671875
1772536404393576400,0.527576416015625,-0.9970245361328125,-0.1173248291015625,-0.035247802734375
1772536404403625200,0.537625244140625,-1.0006866455078125,-0.1177978515625,-0.039520263671875
1772536404413673500,0.547673583984375,-0.9977264404296875,-0.1141815185546875,-0.037506103515625
1772536404423721200,0.55772119140625,-0.9980010986328125,-0.1125640869140625,-0.0382080078125
1772536404433769200,0.567769287109375,-0.99468994140625,-0.1154327392578125,-0.03863525390625
1772536404443817500,0.5778173828125,-0.99395751953125,-0.118621826171875,-0.036895751953125
1772536404453866200,0.5878662109375,-1.0019073486328125,-0.1204986572265625,-0.033599853515625
1772536404463914500,0.59791455078125,-1.0051422119140625,-0.116485595703125,-0.035980224609375
1772536404473962200,0.607962158203125,-0.9924468994140625,-0.1101531982421875,-0.0364837646484375
1772536404484010200,0.61801025390625,-0.9847412109375,-0.10821533203125,-0.0349578857421875
1772536404494058500,0.62805859375,-0.98797607421875,-0.1088104248046875,-0.035430908203125
1772536404504107300,0.638107177734375,-0.98956298828125,-0.113861083984375,-0.03289794921875
1772536404514155300,0.6481552734375,-0.9939117431640625,-0.1175689697265625,-0.029296875
1772536404524203300,0.658203369140625,-1.0019378662109375,-0.117340087890625,-0.033935546875
1772536404534251500,0.66825146484375,-0.9977569580078125,-0.1141510009765625,-0.0350799560546875
1772536404544299300,0.67829931640625,-0.988616943359375,-0.11090087890625,-0.037689208984375
1772536404554348300,0.688348388671875,-0.9895172119140625,-0.112335205078125,-0.0388946533203125
1772536404564396300,0.698396240234375,-0.9947052001953125,-0.11737060546875,-0.035400390625
1772536404574444300,0.7084443359375,-0.9972381591796875,-0.121337890625,-0.0340576171875
1772536404584492500,0.718492431640625,-0.997955322265625,-0.126190185546875,-0.0379486083984375
1772536404594541300,0.728541259765625,-0.9886474609375,-0.122314453125,-0.036407470703125
1772536404604589300,0.73858935546875,-0.98687744140625,-0.1209869384765625,-0.0377197265625
1772536404614637300,0.74863720703125,-0.9959564208984375,-0.1216888427734375,-0.038330078125
1772536404624685300,0.758685302734375,-0.9953155517578125,-0.122344970703125,-0.03936767578125
1772536404634733300,0.7687333984375,-0.9898529052734375,-0.1188507080078125,-0.036102294921875
1772536404644782300,0.7787822265625,-0.9889068603515625,-0.11614990234375,-0.037994384765625
1772536404654830300,0.788830322265625,-0.9945831298828125,-0.1146392822265625,-0.03900146484375
1772536404664878300,0.79887841796875,-0.99749755859375,-0.113922119140625,-0.039581298828125
1772536404674926300,0.80892626953125,-0.9966278076171875,-0.111297607421875,-0.0399627685546875
1772536404684974300,0.818974365234375,-0.9952392578125,-0.1097412109375,-0.04156494140625
1772536404695023400,0.8290234375,-0.9915924072265625,-0.1107330322265625,-0.0418701171875
1772536404705071400,0.8390712890625,-0.9922332763671875,-0.1141357421875,-0.0395965576171875
1772536404715119400,0.849119384765625,-0.996978759765625,-0.11639404296875,-0.0401153564453125
1772536404725167400,0.85916748046875,-1.000823974609375,-0.1168365478515625,-0.0404052734375
1772536404735215400,0.86921533203125,-0.9993743896484375,-0.1147613525390625,-0.043304443359375
1772536404745264400,0.879264404296875,-0.99322509765625,-0.1122894287109375,-0.0440673828125
1772536404755312400,0.8893125,-0.9918060302734375,-0.111358642578125,-0.0442657470703125
1772536404765360400,0.8993603515625,-0.9942169189453125,-0.1129608154296875,-0.0442352294921875
1772536404775408400,0.909408447265625,-0.997406005859375,-0.1160125732421875,-0.041839599609375
1772536404785456400,0.919456298828125,-0.9952545166015625,-0.11834716796875,-0.03826904296875
1772536404795505400,0.92950537109375,-0.9959716796875,-0.11669921875,-0.03948974609375
1772536404805553400,0.939553466796875,-0.9977264404296875,-0.1154937744140625,-0.038909912109375
1772536404815601400,0.949601318359375,-0.99932861328125,-0.11676025390625,-0.0372467041015625
1772536404825649200,0.959649169921875,-0.9977264404296875,-0.117218017578125,-0.038360595703125
1772536404835698400,0.969698486328125,-0.9933319091796875,-0.115325927734375,-0.0378570556640625
1772536404845746200,0.97974609375,-0.9933929443359375,-0.1167144775390625,-0.0365753173828125
1772536404855794400,0.98979443359375,-0.994598388671875,-0.1168060302734375,-0.0373687744140625
1772536404865842400,0.999842529296875,-0.99859619140625,-0.11822509765625,-0.03704833984375
1772536404875890200,1.00989013671875,-0.997283935546875,-0.116973876953125,-0.03985595703125
1772536404885939500,1.019939453125,-0.9927215576171875,-0.116455078125,-0.039459228515625
1772536404895987200,1.0299873046875,-0.994720458984375,-0.1183319091796875,-0.037353515625
1772536404906035500,1.040035400390625,-0.996124267578125,-0.119415283203125,-0.037109375
1772536404916083500,1.05008349609375,-0.991943359375,-0.1172637939453125,-0.0378570556640625
1772536404926131200,1.060131103515625,-0.9882659912109375,-0.1148223876953125,-0.0396881103515625
1772536404936180500,1.070180419921875,-0.988922119140625,-0.11737060546875,-0.0386962890625
1772536404946228200,1.080228271484375,-0.99163818359375,-0.1195220947265625,-0.037689208984375
1772536404956276500,1.0902763671875,-0.99237060546875,-0.120758056640625,-0.0387420654296875
1772536404966324200,1.10032421875,-0.9877777099609375,-0.12078857421875,-0.03704833984375
1772536404976372200,1.110372314453125,-0.987762451171875,-0.12109375,-0.0372772216796875
1772536404986421200,1.120421142578125,-0.9933013916015625,-0.12158203125,-0.0382537841796875
1772536404996469200,1.13046923828125,-0.995635986328125,-0.12176513671875,-0.038116455078125
1772536405006517500,1.140517578125,-0.9923858642578125,-0.120147705078125,-0.0370025634765625
1772536405016565200,1.150565185546875,-0.993194580078125,-0.1192474365234375,-0.035675048828125
1772536405026613200,1.16061328125,-0.996307373046875,-0.1187286376953125,-0.036895751953125
1772536405036662300,1.170662353515625,-0.99530029296875,-0.1176910400390625,-0.036163330078125
1772536405046710300,1.180710205078125,-0.9940185546875,-0.119659423828125,-0.034881591796875
1772536405056758500,1.190758544921875,-0.9966278076171875,-0.1201019287109375,-0.034454345703125
1772536405066806300,1.20080615234375,-1.0002593994140625,-0.1194915771484375,-0.0340423583984375
1772536405076853200,1.210853271484375,-0.99822998046875,-0.1197357177734375,-0.0373382568359375
1772536405086902300,1.22090234375,-0.9950714111328125,-0.1191253662109375,-0.0364837646484375
1772536405096950300,1.2309501953125,-0.996368408203125,-0.1182708740234375,-0.03790283203125
1772536405106998500,1.24099853515625,-0.99615478515625,-0.11981201171875,-0.0395050048828125
1772536405117046300,1.25104638671875,-0.9924774169921875,-0.12127685546875,-0.039276123046875
1772536405127094300,1.26109423828125,-0.9918975830078125,-0.1218109130859375,-0.039398193359375
1772536405137143300,1.271143310546875,-0.9927520751953125,-0.12030029296875,-0.0390777587890625
1772536405147191300,1.28119140625,-0.99554443359375,-0.118927001953125,-0.0388946533203125
1772536405157239600,1.291239501953125,-0.9978485107421875,-0.1180267333984375,-0.040069580078125
1772536405167287300,1.301287353515625,-0.99468994140625,-0.11651611328125,-0.03985595703125
1772536405177336600,1.311336669921875,-0.9920501708984375,-0.118072509765625,-0.040863037109375
1772536405187384300,1.32138427734375,-0.9940032958984375,-0.1206512451171875,-0.0408782958984375
1772536405197432300,1.331432373046875,-0.99542236328125,-0.1226654052734375,-0.0400848388671875
1772536405207480300,1.341480224609375,-0.9943695068359375,-0.123687744140625,-0.03936767578125
1772536405217528300,1.3515283203125,-0.99200439453125,-0.1242218017578125,-0.040008544921875
1772536405227577300,1.361577392578125,-0.98651123046875,-0.124420166015625,-0.0395355224609375
1772536405237625300,1.371625244140625,-0.989044189453125,-0.124176025390625,-0.0402069091796875
1772536405247673300,1.38167333984375,-0.9890594482421875,-0.122589111328125,-0.040924072265625
1772536405257721300,1.391721435546875,-0.9872894287109375,-0.120941162109375,-0.0384063720703125
1772536405267769300,1.401769287109375,-0.9886932373046875,-0.1201324462890625,-0.0385894775390625
1772536405277818400,1.411818359375,-0.9893951416015625,-0.1204681396484375,-0.0386199951171875
1772536405287866400,1.421866455078125,-0.9887542724609375,-0.1221466064453125,-0.0367584228515625
1772536405297914400,1.431914306640625,-0.99188232421875,-0.1237640380859375,-0.0358734130859375
1772536405307962400,1.44196240234375,-0.9958648681640625,-0.124267578125,-0.0358428955078125
1772536405318010400,1.45201025390625,-1.003204345703125,-0.1231536865234375,-0.0357208251953125
1772536405328059400,1.462059326171875,-1.0009765625,-0.1207275390625,-0.0370330810546875
1772536405338107400,1.472107421875,-0.996124267578125,-0.1191558837890625,-0.0374908447265625
1772536405348155100,1.482155029296875,-0.99554443359375,-0.11785888671875,-0.0391082763671875
1772536405358203400,1.492203369140625,-0.9939422607421875,-0.11846923828125,-0.0386962890625
1772536405368251400,1.50225146484375,-0.993743896484375,-0.12347412109375,-0.0360565185546875
1772536405378300400,1.512300537109375,-0.9922332763671875,-0.12591552734375,-0.034637451171875
1772536405388348400,1.522348388671875,-0.9926605224609375,-0.1251983642578125,-0.0332794189453125
1772536405398396200,1.532396240234375,-0.9920501708984375,-0.126678466796875,-0.0332794189453125
1772536405408444400,1.5424443359375,-0.9923095703125,-0.1270294189453125,-0.0330963134765625
1772536405418493200,1.5524931640625,-0.9933013916015625,-0.1246490478515625,-0.0322265625
1772536405428541400,1.56254150390625,-0.9951019287109375,-0.123321533203125,-0.0323638916015625
1772536405438589400,1.57258935546875,-0.9929046630859375,-0.1216278076171875,-0.03594970703125
1772536405448637200,1.58263720703125,-0.9912109375,-0.118927001953125,-0.035736083984375
1772536405458685400,1.592685546875,-0.993896484375,-0.120819091796875,-0.036865234375
1772536405468734200,1.602734130859375,-0.9964141845703125,-0.124176025390625,-0.0359344482421875
1772536405478782500,1.612782470703125,-0.999542236328125,-0.124420166015625,-0.0332183837890625
1772536405488830200,1.622830322265625,-1.00213623046875,-0.1233062744140625,-0.0331573486328125
1772536405498878200,1.632878173828125,-0.9972076416015625,-0.12176513671875,-0.0336761474609375
1772536405508926500,1.642926513671875,-0.994110107421875,-0.1208038330078125,-0.033599853515625
1772536405518975200,1.652975341796875,-0.995208740234375,-0.1201019287109375,-0.035400390625
1772536405529023500,1.6630234375,-0.99176025390625,-0.12164306640625,-0.035430908203125
1772536405539071200,1.6730712890625,-0.9875946044921875,-0.122772216796875,-0.0333099365234375
1772536405549119200,1.683119140625,-0.991851806640625,-0.126007080078125,-0.03265380859375
1772536405559167500,1.69316748046875,-0.9951629638671875,-0.12890625,-0.0332183837890625
1772536405569216300,1.70321630859375,-0.9920501708984375,-0.1277618408203125,-0.0330047607421875
1772536405579264500,1.713264404296875,-0.9887237548828125,-0.12603759765625,-0.0339202880859375
1772536405589312300,1.723312255859375,-0.9896240234375,-0.12701416015625,-0.03448486328125
1772536405599360300,1.7333603515625,-0.991424560546875,-0.1256561279296875,-0.0350494384765625
1772536405609408300,1.743408203125,-0.9894866943359375,-0.123809814453125,-0.035552978515625
1772536405619457300,1.753457275390625,-0.9899749755859375,-0.1235504150390625,-0.0363922119140625
1772536405629505300,1.76350537109375,-0.993133544921875,-0.1242828369140625,-0.0361175537109375
1772536405639553300,1.77355322265625,-0.994659423828125,-0.1244659423828125,-0.0355377197265625
1772536405649601300,1.783601318359375,-0.9927520751953125,-0.1246490478515625,-0.033203125
1772536405659649300,1.793649169921875,-0.9944915771484375,-0.1268768310546875,-0.0315399169921875
1772536405669698300,1.8036982421875,-0.9983673095703125,-0.1253662109375,-0.03277587890625
1772536405679746300,1.813746337890625,-0.993560791015625,-0.123138427734375,-0.0328826904296875
1772536405689794300,1.823794189453125,-0.9901123046875,-0.1230926513671875,-0.0345306396484375
1772536405699842600,1.833842529296875,-0.9920654296875,-0.1227874755859375,-0.034637451171875
1772536405709891300,1.843891357421875,-0.99420166015625,-0.1226806640625,-0.0343017578125
1772536405719939300,1.853939208984375,-0.995758056640625,-0.1225433349609375,-0.0328216552734375
1772536405729987300,1.8639873046875,-0.9971160888671875,-0.1239166259765625,-0.0328826904296875
1772536405740035300,1.874035400390625,-0.99591064453125,-0.1232757568359375,-0.0319671630859375
1772536405750083300,1.884083251953125,-0.99591064453125,-0.121063232421875,-0.035064697265625
1772536405760132400,1.89413232421875,-0.992828369140625,-0.1196441650390625,-0.0362548828125
1772536405770180400,1.904180419921875,-0.9938507080078125,-0.1198272705078125,-0.034637451171875
1772536405780228400,1.914228271484375,-0.9983062744140625,-0.1211395263671875,-0.034515380859375
1772536405790276400,1.9242763671875,-0.9971160888671875,-0.122802734375,-0.0353851318359375
1772536405800324400,1.934324462890625,-0.993011474609375,-0.123016357421875,-0.0349273681640625
1772536405810373400,1.944373291015625,-0.993743896484375,-0.1231231689453125,-0.034637451171875
1772536405820421000,1.954421142578125,-0.9945831298828125,-0.124908447265625,-0.0340423583984375
1772536405830469400,1.964469482421875,-0.9937591552734375,-0.124267578125,-0.0331268310546875
1772536405840517400,1.974517333984375,-0.99371337890625,-0.122406005859375,-0.0311279296875
1772536405850565400,1.9845654296875,-0.9915771484375,-0.1221160888671875,-0.0323944091796875
1772536405860614400,1.994614501953125,-0.99017333984375,-0.12078857421875,-0.0326080322265625
1772536405870662400,2.004662353515625,-0.9915618896484375,-0.1212310791015625,-0.03363037109375
1772536405880710400,2.01471044921875,-0.9908294677734375,-0.124603271484375,-0.033966064453125
1772536405890758400,2.02475830078125,-0.9921722412109375,-0.12615966796875,-0.0323944091796875
1772536405900806400,2.034806396484375,-0.9957275390625,-0.1246490478515625,-0.032318115234375
1772536405910855200,2.044855224609375,-0.9970703125,-0.1230621337890625,-0.0326080322265625
1772536405920903400,2.0549033203125,-0.9968414306640625,-0.1221466064453125,-0.03253173828125
1772536405930951400,2.064951416015625,-0.993988037109375,-0.1209564208984375,-0.0338287353515625
1772536405940999200,2.074999267578125,-0.9896087646484375,-0.1199798583984375,-0.033050537109375
1772536405951047400,2.08504736328125,-0.987884521484375,-0.1197662353515625,-0.0352630615234375
1772536405961096200,2.09509619140625,-0.989013671875,-0.119354248046875,-0.034454345703125
1772536405971144400,2.10514453125,-0.990875244140625,-0.120697021484375,-0.031982421875
1772536405981192400,2.1151923828125,-0.9935302734375,-0.1226043701171875,-0.031158447265625
1772536405991240200,2.125240234375,-0.9933013916015625,-0.1233673095703125,-0.0303955078125
1772536406001289500,2.13528955078125,-0.993988037109375,-0.1221160888671875,-0.0295562744140625
1772536406011337200,2.145337158203125,-0.996551513671875,-0.1211700439453125,-0.0306549072265625
1772536406021385500,2.155385498046875,-0.996917724609375,-0.11883544921875,-0.0325927734375
1772536406031433200,2.16543310546875,-0.99627685546875,-0.1173248291015625,-0.033294677734375
1772536406041481200,2.175481201171875,-0.99566650390625,-0.1173553466796875,-0.034027099609375
1772536406051530200,2.1855302734375,-0.9951171875,-0.1183624267578125,-0.0341644287109375
1772536406061578200,2.195578125,-0.9987945556640625,-0.1187744140625,-0.03009033203125
1772536406071626500,2.20562646484375,-1.001251220703125,-0.1208343505859375,-0.033477783203125
1772536406081674000,2.215674072265625,-1.0005645751953125,-0.1197662353515625,-0.0311126708984375
1772536406091722200,2.22572216796875,-0.996978759765625,-0.1192779541015625,-0.0322113037109375
1772536406101771000,2.23577099609375,-0.994720458984375,-0.119476318359375,-0.0323638916015625
1772536406111819300,2.2458193359375,-0.99072265625,-0.1208038330078125,-0.03125
1772536406121867300,2.2558671875,-0.9889984130859375,-0.12469482421875,-0.0295257568359375
1772536406131915000,2.2659150390625,-0.9884033203125,-0.1263580322265625,-0.0294189453125
1772536406141963300,2.27596337890625,-0.9911041259765625,-0.127471923828125,-0.0298614501953125
1772536406152012000,2.286011962890625,-0.9904022216796875,-0.1265106201171875,-0.0314178466796875
1772536406162060300,2.296060302734375,-0.9880523681640625,-0.1241455078125,-0.0321502685546875
1772536406172108300,2.3061083984375,-0.989349365234375,-0.123138427734375,-0.03179931640625
1772536406182156300,2.31615625,-0.991241455078125,-0.124420166015625,-0.031005859375
1772536406192204300,2.326204345703125,-0.993011474609375,-0.1255645751953125,-0.0291748046875
1772536406202253000,2.336253173828125,-0.9937744140625,-0.124725341796875,-0.029266357421875
1772536406212301300,2.34630126953125,-0.99017333984375,-0.1239166259765625,-0.030853271484375
1772536406222349000,2.35634912109375,-0.9887847900390625,-0.12408447265625,-0.0316619873046875
1772536406232397300,2.366397216796875,-0.9942169189453125,-0.122802734375,-0.03131103515625
1772536406242445300,2.3764453125,-0.9986114501953125,-0.119171142578125,-0.02996826171875
1772536406252494000,2.386494140625,-0.9977874755859375,-0.1172027587890625,-0.0324859619140625
1772536406262542300,2.396542236328125,-0.9933929443359375,-0.1156768798828125,-0.0341949462890625
1772536406272590000,2.406590087890625,-0.9943695068359375,-0.1172332763671875,-0.03289794921875
1772536406282638300,2.416638427734375,-1.0000457763671875,-0.1184234619140625,-0.03118896484375
1772536406292687000,2.42668701171875,-1.0015716552734375,-0.1176605224609375,-0.0314788818359375
1772536406302735400,2.4367353515625,-0.9989013671875,-0.1162872314453125,-0.0302581787109375
1772536406312783400,2.446783447265625,-0.9979705810546875,-0.1152801513671875,-0.030853271484375
1772536406322831000,2.4568310546875,-0.99798583984375,-0.1152496337890625,-0.031524658203125
1772536406332879400,2.46687939453125,-0.9970855712890625,-0.11627197265625,-0.0300140380859375
1772536406342928100,2.47692822265625,-0.9976654052734375,-0.1183929443359375,-0.0305328369140625
1772536406352976400,2.486976318359375,-0.99407958984375,-0.118865966796875,-0.031341552734375
1772536406363024100,2.497024169921875,-0.9922332763671875,-0.1199493408203125,-0.03131103515625
1772536406373072100,2.507072021484375,-0.993194580078125,-0.1218109130859375,-0.0322265625
1772536406383120400,2.517120361328125,-0.9915771484375,-0.12213134765625,-0.033447265625
1772536406393169200,2.527169189453125,-0.98663330078125,-0.1228485107421875,-0.0336151123046875
1772536406403217400,2.537217529296875,-0.9882049560546875,-0.1247406005859375,-0.03289794921875
1772536406413265200,2.54726513671875,-0.9897308349609375,-0.1266632080078125,-0.0333099365234375
1772536406423313200,2.557313232421875,-0.98876953125,-0.125396728515625,-0.031341552734375
1772536406433361400,2.567361328125,-0.9912261962890625,-0.1247406005859375,-0.0322418212890625
1772536406443410200,2.57741015625,-0.9934844970703125,-0.121368408203125,-0.0324859619140625
1772536406453458400,2.58745849609375,-0.9931640625,-0.1176300048828125,-0.0312347412109375
1772536406463506200,2.597506103515625,-0.992401123046875,-0.11517333984375,-0.0330810546875
1772536406473554200,2.60755419921875,-0.9912109375,-0.1140594482421875,-0.03338623046875
1772536406483602200,2.617602294921875,-0.9933013916015625,-0.1140899658203125,-0.0331573486328125
1772536406493651200,2.627651123046875,-0.996826171875,-0.1168060302734375,-0.0318450927734375
1772536406503699200,2.63769921875,-0.9982452392578125,-0.1183319091796875,-0.031097412109375
1772536406513747200,2.647747314453125,-0.99932861328125,-0.116973876953125,-0.03192138671875
1772536406523795200,2.657795166015625,-0.999603271484375,-0.114471435546875,-0.0339508056640625
1772536406533843200,2.66784326171875,-0.998321533203125,-0.1134033203125,-0.0340576171875
1772536406543892200,2.677892333984375,-0.996612548828125,-0.1149749755859375,-0.035919189453125
1772536406553940200,2.687940185546875,-0.99468994140625,-0.1154327392578125,-0.0344390869140625
1772536406563988200,2.69798828125,-0.993682861328125,-0.117279052734375,-0.0329742431640625
1772536406574036200,2.7080361328125,-0.9942779541015625,-0.119171142578125,-0.0314483642578125
1772536406584084200,2.718084228515625,-0.9935302734375,-0.1214599609375,-0.0314483642578125
1772536406594133200,2.72813330078125,-0.9919586181640625,-0.12353515625,-0.0291748046875
1772536406604181200,2.73818115234375,-0.992218017578125,-0.12457275390625,-0.0290679931640625
1772536406614229200,2.748229248046875,-0.993408203125,-0.12298583984375,-0.030181884765625
1772536406624277000,2.758277099609375,-0.9954986572265625,-0.11993408203125,-0.029632568359375
1772536406634326300,2.768326171875,-0.99664306640625,-0.118255615234375,-0.0323028564453125
1772536406644374000,2.7783740234375,-0.9951934814453125,-0.1151885986328125,-0.0317840576171875
1772536406654422300,2.78842236328125,-0.9973602294921875,-0.1132965087890625,-0.0339202880859375
1772536406664470300,2.79847021484375,-0.9984130859375,-0.1121368408203125,-0.0345611572265625
1772536406674518000,2.80851806640625,-0.9989013671875,-0.1123504638671875,-0.0338592529296875
1772536406684566300,2.818566162109375,-0.9987640380859375,-0.11285400390625,-0.0310821533203125
1772536406694615000,2.828614990234375,-0.9992523193359375,-0.1133880615234375,-0.03118896484375
1772536406704663300,2.838663330078125,-0.99908447265625,-0.1138763427734375,-0.0324859619140625
1772536406714711300,2.848711181640625,-0.994781494140625,-0.1135406494140625,-0.033660888671875
1772536406724759000,2.858759033203125,-0.98883056640625,-0.1154022216796875,-0.0335235595703125
1772536406734808300,2.868808349609375,-0.990203857421875,-0.1179962158203125,-0.03271484375
1772536406744856000,2.87885595703125,-0.99859619140625,-0.1191558837890625,-0.0317230224609375
1772536406754904300,2.888904296875,-0.9947357177734375,-0.1166534423828125,-0.0320892333984375
1772536406764952000,2.8989521484375,-0.98919677734375,-0.114837646484375,-0.032623291015625
1772536406775000000,2.909,-0.9905853271484375,-0.11578369140625,-0.032470703125
1772536406785049000,2.919049072265625,-0.997100830078125,-0.1167449951171875,-0.032257080078125
1772536406795097000,2.92909716796875,-0.99603271484375,-0.116485595703125,-0.0319061279296875
1772536406805145300,2.939145263671875,-0.989227294921875,-0.1158599853515625,-0.03216552734375
1772536406815193000,2.949193115234375,-0.9892120361328125,-0.115692138671875,-0.0326385498046875
1772536406825241300,2.959241455078125,-0.9946441650390625,-0.1165313720703125,-0.030975341796875
1772536406835290000,2.9692900390625,-1.0015869140625,-0.1147308349609375,-0.031951904296875
1772536406845338000,2.979338134765625,-0.9945526123046875,-0.1101531982421875,-0.035675048828125
1772536406855386400,2.989386474609375,-0.986297607421875,-0.1092681884765625,-0.0332489013671875
1772536406865434000,2.99943408203125,-0.993377685546875,-0.1135711669921875,-0.0316009521484375
1772536406875482400,3.009482421875,-1.000732421875,-0.1182403564453125,-0.0306854248046875
1772536406885531100,3.01953125,-1.0016937255859375,-0.12060546875,-0.0286865234375
1772536406895579100,3.0295791015625,-1.0023040771484375,-0.1172943115234375,-0.0305938720703125
1772536406905627100,3.039627197265625,-0.9989471435546875,-0.1118011474609375,-0.0319061279296875
1772536406915675100,3.049675048828125,-0.993927001953125,-0.1093902587890625,-0.0342864990234375
1772536406925723400,3.059723388671875,-0.9944000244140625,-0.1119842529296875,-0.03155517578125
1772536406935772200,3.069772216796875,-0.9993438720703125,-0.1140289306640625,-0.03094482421875
1772536406945820200,3.079820068359375,-0.998504638671875,-0.1159820556640625,-0.0308380126953125
1772536406955868200,3.0898681640625,-0.9974212646484375,-0.11859130859375,-0.031524658203125
1772536406965916200,3.099916259765625,-0.9991912841796875,-0.1180877685546875,-0.03424072265625
1772536406975964400,3.10996435546875,-0.997344970703125,-0.1166534423828125,-0.037017822265625
1772536406986013200,3.12001318359375,-0.9917144775390625,-0.1153564453125,-0.037445068359375
1772536406996061400,3.1300615234375,-0.9912872314453125,-0.1156158447265625,-0.0374603271484375
1772536407006109200,3.140109130859375,-0.9949798583984375,-0.1180267333984375,-0.0367279052734375
1772536407016157200,3.1501572265625,-0.9962921142578125,-0.1198272705078125,-0.0376434326171875
1772536407026206200,3.160206298828125,-0.9924774169921875,-0.1208343505859375,-0.0371246337890625
1772536407036254200,3.170254150390625,-0.9900970458984375,-0.1214447021484375,-0.0366363525390625
1772536407046302200,3.18030224609375,-0.9887847900390625,-0.1200103759765625,-0.0362091064453125
1772536407056350200,3.19035009765625,-0.9924468994140625,-0.1184539794921875,-0.0334930419921875
1772536407066398200,3.200398193359375,-0.9954833984375,-0.1151123046875,-0.034698486328125
1772536407076447200,3.210447265625,-0.995086669921875,-0.112274169921875,-0.0340423583984375
1772536407086495500,3.22049560546875,-0.992828369140625,-0.1104278564453125,-0.0348358154296875
1772536407096543500,3.23054345703125,-0.989837646484375,-0.1098175048828125,-0.0362701416015625
1772536407106591500,3.240591552734375,-0.9908599853515625,-0.111480712890625,-0.03521728515625
1772536407116639500,3.250639404296875,-0.991607666015625,-0.1157379150390625,-0.0346832275390625
1772536407126688500,3.2606884765625,-0.9935455322265625,-0.118621826171875,-0.0336761474609375
1772536407136736500,3.270736572265625,-0.995330810546875,-0.1186065673828125,-0.03314208984375
1772536407146784500,3.280784423828125,-0.9970550537109375,-0.1173858642578125,-0.03582763671875
1772536407156832500,3.29083251953125,-0.9964599609375,-0.115997314453125,-0.03717041015625
1772536407166880300,3.30088037109375,-0.9968109130859375,-0.1141357421875,-0.038330078125
1772536407176929500,3.310929443359375,-0.993927001953125,-0.1132659912109375,-0.03924560546875
1772536407186977300,3.320977294921875,-0.9919281005859375,-0.1147308349609375,-0.0378265380859375
1772536407197025500,3.331025634765625,-0.9925994873046875,-0.1172943115234375,-0.035308837890625
1772536407207073500,3.341073486328125,-0.9946746826171875,-0.119354248046875,-0.034576416015625
1772536407217121300,3.351121337890625,-0.9942779541015625,-0.1201171875,-0.0328216552734375
1772536407227170600,3.361170654296875,-0.9939117431640625,-0.121002197265625,-0.0330352783203125
1772536407237218300,3.37121826171875,-0.9948272705078125,-0.1219482421875,-0.0313262939453125
1772536407247266600,3.3812666015625,-0.995391845703125,-0.120086669921875,-0.0312042236328125
1772536407257314600,3.391314453125,-0.99786376953125,-0.117919921875,-0.03131103515625
1772536407267362300,3.4013623046875,-0.9993133544921875,-0.1153411865234375,-0.03265380859375
1772536407277411600,3.41141162109375,-0.997833251953125,-0.1137542724609375,-0.034149169921875
1772536407287459300,3.421459228515625,-0.9964141845703125,-0.1132659912109375,-0.0339813232421875
1772536407297507600,3.431507568359375,-0.998382568359375,-0.114044189453125,-0.0327911376953125
1772536407307555300,3.441555419921875,-1.00048828125,-0.1156463623046875,-0.0335693359375
1772536407317604600,3.4516044921875,-0.9986724853515625,-0.115234375,-0.0332183837890625
1772536407327652400,3.46165234375,-0.9953765869140625,-0.114776611328125,-0.0333099365234375
1772536407337700400,3.471700439453125,-0.9927978515625,-0.114715576171875,-0.034027099609375
1772536407347748600,3.48174853515625,-0.9889984130859375,-0.1151580810546875,-0.0350494384765625
1772536407357796400,3.49179638671875,-0.9887847900390625,-0.117828369140625,-0.0347442626953125
1772536407367845600,3.501845703125,-0.99072265625,-0.1200714111328125,-0.0321807861328125
1772536407377893400,3.511893310546875,-0.99365234375,-0.1218719482421875,-0.03350830078125
1772536407387941400,3.52194140625,-0.9903411865234375,-0.121063232421875,-0.035247802734375
1772536407397989600,3.53198974609375,-0.9903564453125,-0.11932373046875,-0.032867431640625
1772536407408037400,3.542037353515625,-0.9904327392578125,-0.11993408203125,-0.0345611572265625
1772536407418086700,3.552086669921875,-0.989654541015625,-0.11932373046875,-0.0347442626953125
1772536407428134400,3.562134521484375,-0.9922943115234375,-0.1166839599609375,-0.03424072265625
1772536407438182400,3.572182373046875,-0.9950714111328125,-0.1157379150390625,-0.0341033935546875
1772536407448230400,3.58223046875,-0.9951324462890625,-0.1148834228515625,-0.03424072265625
1772536407458278400,3.5922783203125,-0.9941253662109375,-0.1141510009765625,-0.03448486328125
1772536407468327400,3.602327392578125,-0.99395751953125,-0.1164703369140625,-0.0328826904296875
1772536407478375400,3.61237548828125,-0.9965972900390625,-0.1178741455078125,-0.032379150390625
1772536407488423400,3.62242333984375,-0.997467041015625,-0.1188201904296875,-0.031158447265625
1772536407498471400,3.632471435546875,-0.9984283447265625,-0.1189422607421875,-0.030975341796875
1772536407508519400,3.64251953125,-0.9958038330078125,-0.1200714111328125,-0.0302276611328125
1772536407518568400,3.652568359375,-0.996978759765625,-0.119537353515625,-0.03070068359375
1772536407528616400,3.662616455078125,-0.9991455078125,-0.1182861328125,-0.030029296875
1772536407538664700,3.672664794921875,-0.9986572265625,-0.1171112060546875,-0.03216552734375
1772536407548712400,3.68271240234375,-0.9971771240234375,-0.1162872314453125,-0.0311279296875
1772536407558760400,3.692760498046875,-0.9957733154296875,-0.1181640625,-0.0321044921875
1772536407568809500,3.7028095703125,-0.9951629638671875,-0.119049072265625,-0.03143310546875
1772536407578857500,3.712857421875,-0.9989166259765625,-0.118194580078125,-0.0315093994140625
1772536407588905500,3.722905517578125,-0.9977264404296875,-0.1173248291015625,-0.0327301025390625
1772536407598953500,3.732953369140625,-0.9917449951171875,-0.1183319091796875,-0.0330963134765625
1772536407609001500,3.74300146484375,-0.9913482666015625,-0.1196746826171875,-0.0322113037109375
1772536407619050500,3.753050537109375,-0.9962005615234375,-0.12005615234375,-0.0338897705078125
1772536407629098500,3.763098388671875,-0.993804931640625,-0.1190643310546875,-0.03533935546875
1772536407639146500,3.773146484375,-0.9891204833984375,-0.1190032958984375,-0.03509521484375
1772536407649194500,3.783194580078125,-0.9940032958984375,-0.118499755859375,-0.0356903076171875
1772536407659243300,3.7932431640625,-0.9930419921875,-0.11785888671875,-0.0368499755859375
1772536407669291500,3.80329150390625,-0.98797607421875,-0.1179656982421875,-0.035675048828125
1772536407679339500,3.813339599609375,-0.98785400390625,-0.1189422607421875,-0.0344085693359375
1772536407689387500,3.823387451171875,-0.9933624267578125,-0.1206512451171875,-0.03375244140625
1772536407699435500,3.833435546875,-0.99493408203125,-0.1216583251953125,-0.0330352783203125
1772536407709484500,3.843484619140625,-0.99346923828125,-0.1200714111328125,-0.0322723388671875
1772536407719532500,3.853532470703125,-0.993011474609375,-0.119354248046875,-0.0333251953125
1772536407729580300,3.863580322265625,-0.991546630859375,-0.118560791015625,-0.0348052978515625
1772536407739628500,3.873628662109375,-0.9899749755859375,-0.1198577880859375,-0.0347747802734375
1772536407749676500,3.883676513671875,-0.99237060546875,-0.1210784912109375,-0.033294677734375
1772536407759725600,3.8937255859375,-0.998138427734375,-0.1203460693359375,-0.0324859619140625
1772536407769773600,3.903773681640625,-1.0003814697265625,-0.1167755126953125,-0.03240966796875
1772536407779821300,3.9138212890625,-0.9975128173828125,-0.1141510009765625,-0.0334625244140625
1772536407789869600,3.92386962890625,-0.9976806640625,-0.114227294921875,-0.0330352783203125
1772536407799917600,3.93391748046875,-0.9984588623046875,-0.115203857421875,-0.0317840576171875
1772536407809966600,3.943966552734375,-0.9973907470703125,-0.117828369140625,-0.031524658203125
1772536407820014600,3.9540146484375,-0.9986419677734375,-0.1206512451171875,-0.0311126708984375
1772536407830062300,3.964062255859375,-0.9986724853515625,-0.118988037109375,-0.031585693359375
1772536407840110600,3.974110595703125,-0.9931640625,-0.1175384521484375,-0.0334320068359375
1772536407850158300,3.984158447265625,-0.9877471923828125,-0.1194610595703125,-0.0329132080078125
1772536407860207600,3.99420751953125,-0.992156982421875,-0.123321533203125,-0.03350830078125
1772536407870255400,4.00425537109375,-0.9931793212890625,-0.1262969970703125,-0.0322723388671875
1772536407880303400,4.014303466796875,-0.990081787109375,-0.126373291015625,-0.0310516357421875
1772536407890351600,4.0243515625,-0.9930267333984375,-0.126708984375,-0.0330047607421875
1772536407900399400,4.0343994140625,-0.9935760498046875,-0.12347412109375,-0.036773681640625
1772536407910448600,4.04444873046875,-0.9892120361328125,-0.1186981201171875,-0.0373992919921875
1772536407920496400,4.054496337890625,-0.9898681640625,-0.1156158447265625,-0.0369720458984375
1772536407930544400,4.06454443359375,-0.9956512451171875,-0.11627197265625,-0.035858154296875
1772536407940592600,4.074592529296875,-1.00177001953125,-0.115325927734375,-0.03436279296875
1772536407950640400,4.084640380859375,-0.9981536865234375,-0.1136627197265625,-0.034149169921875
1772536407960689700,4.094689697265625,-0.9933929443359375,-0.114410400390625,-0.0329437255859375
1772536407970737400,4.1047373046875,-0.9983673095703125,-0.115386962890625,-0.0325775146484375
1772536407980785400,4.114785400390625,-0.99639892578125,-0.11614990234375,-0.0321502685546875
1772536407990833400,4.12483349609375,-0.9911651611328125,-0.1171417236328125,-0.0298614501953125
1772536408000881400,4.13488134765625,-0.9902801513671875,-0.1198272705078125,-0.0297088623046875
1772536408010930400,4.144930419921875,-0.992889404296875,-0.124359130859375,-0.0289459228515625
1772536408020978400,4.154978515625,-0.99462890625,-0.1264495849609375,-0.0300445556640625
1772536408031026400,4.1650263671875,-0.991302490234375,-0.1247711181640625,-0.03271484375
1772536408041074400,4.175074462890625,-0.9868927001953125,-0.1263275146484375,-0.0347900390625
1772536408051123500,4.18512353515625,-0.992645263671875,-0.1197357177734375,-0.034759521484375
1772536408061171500,4.19517138671875,-0.995452880859375,-0.1175079345703125,-0.0386962890625
1772536408071219500,4.205219482421875,-0.9958648681640625,-0.1195526123046875,-0.0352020263671875
1772536408081268000,4.21526806640625,-0.996856689453125,-0.1176605224609375,-0.0360107421875
1772536408091316000,4.22531591796875,-0.99578857421875,-0.11749267578125,-0.0337982177734375
1772536408101364700,4.23536474609375,-0.9959716796875,-0.1201629638671875,-0.032135009765625
1772536408111413000,4.2454130859375,-0.995452880859375,-0.1196136474609375,-0.0316925048828125
1772536408121461000,4.2554609375,-0.9938812255859375,-0.118865966796875,-0.031890869140625
1772536408131509000,4.265509033203125,-0.992523193359375,-0.1190948486328125,-0.030792236328125
1772536408141557000,4.275556884765625,-0.9946136474609375,-0.1196441650390625,-0.0305938720703125
1772536408151605800,4.285605712890625,-0.99676513671875,-0.1184844970703125,-0.030242919921875
1772536408161654000,4.295654052734375,-0.996826171875,-0.11700439453125,-0.0313720703125
1772536408171702000,4.305701904296875,-0.9940948486328125,-0.1161956787109375,-0.0308837890625
1772536408181750000,4.31575,-0.99566650390625,-0.11773681640625,-0.0319061279296875
1772536408191798000,4.325798095703125,-0.996429443359375,-0.119384765625,-0.031951904296875
1772536408201847000,4.335846923828125,-0.996337890625,-0.121124267578125,-0.0326385498046875
1772536408211895000,4.34589501953125,-0.9959259033203125,-0.1224822998046875,-0.0327911376953125
1772536408221942800,4.35594287109375,-0.9960479736328125,-0.1230621337890625,-0.0336456298828125
1772536408231991000,4.365990966796875,-0.99468994140625,-0.1219940185546875,-0.03485107421875
1772536408242039000,4.3760390625,-0.9945526123046875,-0.121612548828125,-0.033905029296875
1772536408252088000,4.386088134765625,-0.9940338134765625,-0.122222900390625,-0.0337982177734375
1772536408262136000,4.396135986328125,-0.9934234619140625,-0.1215667724609375,-0.0333099365234375
1772536408272183800,4.406183837890625,-0.992340087890625,-0.1198883056640625,-0.033050537109375
1772536408282232000,4.416232177734375,-0.990509033203125,-0.1205291748046875,-0.03277587890625
1772536408292280000,4.426280029296875,-0.9915008544921875,-0.1226959228515625,-0.0317535400390625
1772536408302329000,4.4363291015625,-0.99102783203125,-0.123687744140625,-0.03131103515625
1772536408312377000,4.446377197265625,-0.990692138671875,-0.1238861083984375,-0.0311126708984375
1772536408322424800,4.4564248046875,-0.991424560546875,-0.1237945556640625,-0.031890869140625
1772536408332473000,4.46647314453125,-0.9921112060546875,-0.12115478515625,-0.031890869140625
1772536408342520800,4.476520751953125,-0.9937591552734375,-0.1194610595703125,-0.03155517578125
1772536408352570000,4.486570068359375,-0.9953765869140625,-0.1183929443359375,-0.0320587158203125
1772536408362617900,4.496617919921875,-0.9968414306640625,-0.118560791015625,-0.0324859619140625
1772536408372665900,4.506665771484375,-0.9950714111328125,-0.116424560546875,-0.03192138671875
1772536408382714000,4.516714111328125,-0.9947967529296875,-0.1178741455078125,-0.0317840576171875
1772536408392763000,4.526762939453125,-0.99395751953125,-0.120330810546875,-0.0330657958984375
1772536408402811100,4.53681103515625,-0.9933929443359375,-0.120697021484375,-0.0328521728515625
1772536408412859000,4.54685888671875,-0.9942626953125,-0.1215667724609375,-0.03228759765625
1772536408422907000,4.556906982421875,-0.9944000244140625,-0.12237548828125,-0.0318145751953125
1772536408432955100,4.566955078125,-0.995513916015625,-0.1220550537109375,-0.0332183837890625
1772536408443004000,4.57700390625,-0.9942474365234375,-0.12042236328125,-0.0346221923828125
1772536408453052200,4.58705224609375,-0.99102783203125,-0.1205291748046875,-0.036224365234375
1772536408463100000,4.597099853515625,-0.99017333984375,-0.121307373046875,-0.0334014892578125
1772536408473148000,4.60714794921875,-0.9942626953125,-0.1212005615234375,-0.0333251953125
1772536408483196000,4.61719580078125,-0.9947357177734375,-0.1194000244140625,-0.0325164794921875
1772536408493245000,4.627244873046875,-0.9942626953125,-0.117767333984375,-0.0320892333984375
1772536408503293000,4.63729296875,-0.99365234375,-0.1190948486328125,-0.0316009521484375
1772536408513341000,4.6473408203125,-0.9962310791015625,-0.1207275390625,-0.02899169921875
1772536408523389000,4.657388916015625,-0.9986419677734375,-0.1227569580078125,-0.028350830078125
1772536408533437000,4.66743701171875,-0.9958648681640625,-0.12213134765625,-0.028472900390625
1772536408543486000,4.67748583984375,-0.9957733154296875,-0.120941162109375,-0.031036376953125
1772536408553534000,4.687533935546875,-0.9954833984375,-0.118988037109375,-0.0306396484375
1772536408563582000,4.69758203125,-0.9970703125,-0.1173248291015625,-0.031646728515625
1772536408573630000,4.7076298828125,-0.9972991943359375,-0.11761474609375,-0.031982421875
1772536408583678000,4.717677978515625,-0.9961700439453125,-0.1171722412109375,-0.031768798828125
1772536408593727000,4.72772705078125,-0.997833251953125,-0.1186676025390625,-0.0312347412109375
1772536408603775000,4.73777490234375,-0.9971771240234375,-0.1195068359375,-0.0311279296875
1772536408613823000,4.747822998046875,-0.9949493408203125,-0.1192779541015625,-0.0308685302734375
1772536408623871000,4.75787109375,-0.9992523193359375,-0.1191864013671875,-0.032196044921875
1772536408633920000,4.767919921875,-0.9804534912109375,-0.128173828125,-0.0323638916015625
1772536408643967700,4.7779677734375,-0.9799957275390625,-0.12396240234375,-0.033721923828125
1772536408654016000,4.78801611328125,-0.9909820556640625,-0.1205902099609375,-0.0330963134765625
1772536408664064000,4.79806396484375,-0.9942626953125,-0.12713623046875,-0.0328216552734375
1772536408674111700,4.80811181640625,-0.99310302734375,-0.1233978271484375,-0.0334320068359375
1772536408684161000,4.8181611328125,-0.99346923828125,-0.121429443359375,-0.032562255859375
1772536408694208800,4.828208740234375,-0.9983062744140625,-0.120941162109375,-0.0337982177734375
1772536408704257000,4.838257080078125,-1.0010986328125,-0.11614990234375,-0.03448486328125
1772536408714305000,4.848304931640625,-0.992523193359375,-0.11932373046875,-0.0330657958984375
1772536408724353000,4.85835302734375,-0.99688720703125,-0.11761474609375,-0.0337371826171875
1772536408734402000,4.868402099609375,-1.0008087158203125,-0.1159210205078125,-0.033721923828125
1772536408744449800,4.87844970703125,-0.9967498779296875,-0.1192626953125,-0.0327301025390625
1772536408754498000,4.888498046875,-0.9932861328125,-0.1205596923828125,-0.0314178466796875
1772536408764545800,4.8985458984375,-0.9932098388671875,-0.1207427978515625,-0.0306243896484375
1772536408774594000,4.908593994140625,-0.992767333984375,-0.1209564208984375,-0.029571533203125
1772536408784642800,4.918642822265625,-0.990264892578125,-0.1222076416015625,-0.029571533203125
1772536408794690800,4.92869091796875,-0.991607666015625,-0.122161865234375,-0.0299530029296875
1772536408804739000,4.938739013671875,-0.993865966796875,-0.1208343505859375,-0.0308685302734375
1772536408814786800,4.948786865234375,-0.99359130859375,-0.1200714111328125,-0.031707763671875
1772536408824835000,4.9588349609375,-0.9915771484375,-0.1220855712890625,-0.0337371826171875
1772536408834883800,4.9688837890625,-0.9947967529296875,-0.1207733154296875,-0.0337982177734375
1772536408844932000,4.97893212890625,-0.9958648681640625,-0.1215057373046875,-0.0339508056640625
1772536408854980000,4.98897998046875,-0.99420166015625,-0.123260498046875,-0.03515625
1772536408865027800,4.99902783203125,-0.9934844970703125,-0.12322998046875,-0.033660888671875
1772536408875076000,5.009076171875,-0.995361328125,-0.1238555908203125,-0.0323028564453125
1772536408885124900,5.019124755859375,-0.994964599609375,-0.124847412109375,-0.032135009765625
1772536408895173000,5.029173095703125,-0.99395751953125,-0.1230316162109375,-0.032562255859375
1772536408905220900,5.039220947265625,-0.9948272705078125,-0.1226959228515625,-0.0328369140625
1772536408915268900,5.049268798828125,-0.992645263671875,-0.12188720703125,-0.032745361328125
1772536408925317000,5.059317138671875,-0.992034912109375,-0.121429443359375,-0.0316925048828125
1772536408935366000,5.069365966796875,-0.9947357177734375,-0.1205902099609375,-0.031402587890625
1772536408945414100,5.0794140625,-0.9964447021484375,-0.1221160888671875,-0.0313720703125
1772536408955462000,5.0894619140625,-0.994293212890625,-0.1212921142578125,-0.031768798828125
1772536408965510000,5.099510009765625,-0.993408203125,-0.1214141845703125,-0.0320281982421875
1772536408975558100,5.10955810546875,-0.994720458984375,-0.122802734375,-0.0320587158203125
1772536408985607000,5.11960693359375,-0.9940948486328125,-0.1240081787109375,-0.030029296875
1772536408995655200,5.1296552734375,-0.992218017578125,-0.1244964599609375,-0.030487060546875
1772536409005703000,5.139702880859375,-0.9955291748046875,-0.123748779296875,-0.0305633544921875
1772536409015751000,5.1497509765625,-0.996734619140625,-0.12255859375,-0.0308074951171875
1772536409025800000,5.159800048828125,-0.9935760498046875,-0.1219329833984375,-0.0322265625
1772536409035848000,5.169847900390625,-0.989959716796875,-0.1199951171875,-0.0325927734375
1772536409045896000,5.17989599609375,-0.992919921875,-0.1201324462890625,-0.0324249267578125
1772536409055944000,5.18994384765625,-0.9920501708984375,-0.12408447265625,-0.03240966796875
1772536409065992000,5.199991943359375,-0.9906768798828125,-0.127410888671875,-0.0296783447265625
1772536409076041000,5.210041015625,-0.9946746826171875,-0.1266021728515625,-0.029998779296875
1772536409086088700,5.220088623046875,-0.995391845703125,-0.125701904296875,-0.0319366455078125
1772536409096136400,5.230136474609375,-0.9920196533203125,-0.123077392578125,-0.0328369140625
1772536409106184400,5.240184326171875,-0.9945220947265625,-0.1217193603515625,-0.03375244140625
1772536409116232700,5.250232666015625,-0.994781494140625,-0.1207275390625,-0.0340728759765625
1772536409126281500,5.260281494140625,-0.9900665283203125,-0.1204376220703125,-0.0333251953125
1772536409136329700,5.270329833984375,-0.990081787109375,-0.1223907470703125,-0.032318115234375
1772536409146377500,5.28037744140625,-0.99273681640625,-0.12469482421875,-0.0301971435546875
1772536409156425500,5.290425537109375,-0.9931488037109375,-0.1275177001953125,-0.029052734375
1772536409166473700,5.3004736328125,-0.9933624267578125,-0.128753662109375,-0.02874755859375
1772536409176522500,5.3105224609375,-0.99468994140625,-0.1277618408203125,-0.029510498046875
1772536409186570800,5.32057080078125,-0.99664306640625,-0.1253509521484375,-0.029937744140625
1772536409196618500,5.330618408203125,-0.9948883056640625,-0.1215972900390625,-0.0316619873046875
1772536409206666500,5.34066650390625,-0.9932708740234375,-0.1202545166015625,-0.0330352783203125
1772536409216714500,5.350714599609375,-0.99285888671875,-0.1204376220703125,-0.03448486328125
1772536409226763500,5.360763427734375,-0.995758056640625,-0.123870849609375,-0.03118896484375
1772536409236811500,5.3708115234375,-1.0009765625,-0.1224822998046875,-0.0298004150390625
1772536409246859500,5.380859619140625,-0.9943389892578125,-0.121917724609375,-0.0327301025390625
1772536409256907800,5.39090771484375,-0.995880126953125,-0.1233978271484375,-0.0301666259765625
1772536409266955500,5.40095556640625,-0.9995269775390625,-0.1201171875,-0.0296783447265625
1772536409277004500,5.411004638671875,-0.9967041015625,-0.1198883056640625,-0.0297393798828125
1772536409287052500,5.421052490234375,-0.9920654296875,-0.121490478515625,-0.0306549072265625
1772536409297100500,5.4311005859375,-0.9884185791015625,-0.1224822998046875,-0.0295867919921875
1772536409307148800,5.441148681640625,-0.9908905029296875,-0.1262054443359375,-0.03009033203125
1772536409317196500,5.451196533203125,-0.991973876953125,-0.12890625,-0.0302886962890625
1772536409327245600,5.46124560546875,-0.9923858642578125,-0.129974365234375,-0.0311279296875
1772536409337293600,5.47129345703125,-0.9896240234375,-0.1284027099609375,-0.033050537109375
1772536409347341600,5.481341552734375,-0.990264892578125,-0.12689208984375,-0.034332275390625
1772536409357389600,5.4913896484375,-0.9912567138671875,-0.1254730224609375,-0.0344390869140625
1772536409367437600,5.5014375,-0.9902496337890625,-0.122711181640625,-0.034423828125
1772536409377486600,5.511486572265625,-0.9919891357421875,-0.1226348876953125,-0.0348663330078125
1772536409387534600,5.52153466796875,-0.9916229248046875,-0.1218109130859375,-0.0329132080078125
1772536409397582600,5.53158251953125,-0.9919586181640625,-0.124542236328125,-0.0341949462890625
1772536409407630600,5.541630615234375,-0.9958343505859375,-0.1252288818359375,-0.031951904296875
1772536409417679600,5.5516796875,-0.995025634765625,-0.12420654296875,-0.031005859375
1772536409427727600,5.5617275390625,-0.992218017578125,-0.1251678466796875,-0.03131103515625
1772536409437775600,5.571775634765625,-0.9960174560546875,-0.12518310546875,-0.0294342041015625
1772536409447823600,5.58182373046875,-1.0009307861328125,-0.123931884765625,-0.0303955078125
1772536409457871600,5.59187158203125,-0.99676513671875,-0.12042236328125,-0.031494140625
1772536409467920600,5.601920654296875,-0.9922943115234375,-0.1186676025390625,-0.030609130859375
1772536409477968600,5.61196875,-0.9965362548828125,-0.119537353515625,-0.0305938720703125
1772536409488016600,5.6220166015625,-1.000274658203125,-0.1217498779296875,-0.029815673828125
1772536409498064600,5.632064697265625,-0.9991302490234375,-0.12298583984375,-0.0301513671875
1772536409508112600,5.642112548828125,-0.9954376220703125,-0.124298095703125,-0.0308990478515625
1772536409518161400,5.652161376953125,-0.996978759765625,-0.125732421875,-0.0307769775390625
1772536409528209700,5.662209716796875,-0.9974822998046875,-0.1248931884765625,-0.031951904296875
1772536409538257700,5.672257568359375,-0.9942779541015625,-0.12445068359375,-0.0335845947265625
1772536409548305400,5.682305419921875,-0.9932098388671875,-0.124786376953125,-0.0327606201171875
1772536409558353700,5.692353759765625,-0.9927978515625,-0.124664306640625,-0.033416748046875
1772536409568402400,5.70240234375,-0.9923248291015625,-0.1268463134765625,-0.032501220703125
1772536409578450700,5.71245068359375,-0.992950439453125,-0.1281280517578125,-0.032318115234375
1772536409588498700,5.722498779296875,-0.9921417236328125,-0.1270904541015625,-0.0331573486328125
1772536409598546400,5.73254638671875,-0.989501953125,-0.125152587890625,-0.033050537109375
1772536409608594700,5.7425947265625,-0.98956298828125,-0.1246337890625,-0.032379150390625
1772536409618643500,5.7526435546875,-0.9932861328125,-0.12445068359375,-0.032806396484375
1772536409628691700,5.762691650390625,-0.99310302734375,-0.124053955078125,-0.03277587890625
1772536409638739700,5.77273974609375,-0.9902191162109375,-0.1228790283203125,-0.0318450927734375
1772536409648787500,5.782787353515625,-0.991851806640625,-0.1231536865234375,-0.03076171875
1772536409658836500,5.79283642578125,-0.9936981201171875,-0.1248931884765625,-0.0297698974609375
1772536409668884500,5.802884521484375,-0.996978759765625,-0.1242218017578125,-0.02978515625
1772536409678932700,5.8129326171875,-0.9966583251953125,-0.1222076416015625,-0.031280517578125
1772536409688980500,5.82298046875,-0.9919891357421875,-0.121307373046875,-0.0332183837890625
1772536409699028500,5.833028564453125,-0.99212646484375,-0.1220703125,-0.03326416015625
1772536409709077500,5.843077392578125,-0.9942169189453125,-0.1242523193359375,-0.03179931640625
1772536409719125500,5.85312548828125,-0.9938507080078125,-0.1259765625,-0.0301971435546875
1772536409729173800,5.863173828125,-0.9944610595703125,-0.1284332275390625,-0.0294189453125
1772536409739221500,5.873221435546875,-0.9984893798828125,-0.128692626953125,-0.029449462890625
1772536409749269500,5.88326953125,-0.9968719482421875,-0.126312255859375,-0.0311737060546875
1772536409759318500,5.893318603515625,-0.9936065673828125,-0.123199462890625,-0.0338287353515625
1772536409769366500,5.903366455078125,-0.993804931640625,-0.121917724609375,-0.03607177734375
1772536409779414500,5.91341455078125,-0.9895172119140625,-0.1230621337890625,-0.0337066650390625
1772536409789462500,5.923462646484375,-0.990814208984375,-0.125518798828125,-0.0321807861328125
1772536409799510500,5.933510498046875,-0.99591064453125,-0.12591552734375,-0.0316619873046875
1772536409809559600,5.9435595703125,-0.994140625,-0.1262359619140625,-0.0301361083984375
1772536409819607600,5.953607666015625,-0.989593505859375,-0.127716064453125,-0.0292816162109375
1772536409829655600,5.963655517578125,-0.993011474609375,-0.1297760009765625,-0.0277252197265625
1772536409839703600,5.97370361328125,-0.99859619140625,-0.1291656494140625,-0.0287322998046875
1772536409849752600,5.983752685546875,-0.9967041015625,-0.12652587890625,-0.0311279296875
1772536409859800600,5.993800537109375,-0.9906463623046875,-0.1244964599609375,-0.0316162109375
1772536409869848600,6.0038486328125,-0.993804931640625,-0.1227569580078125,-0.031982421875
1772536409879896600,6.013896484375,-1.00225830078125,-0.1211090087890625,-0.0341796875
1772536409889944600,6.023944580078125,-1.000640869140625,-0.1188201904296875,-0.032257080078125
1772536409899993600,6.03399365234375,-0.9938201904296875,-0.1196746826171875,-0.03253173828125
1772536409910041600,6.04404150390625,-0.994964599609375,-0.1220703125,-0.031524658203125
1772536409920089600,6.054089599609375,-0.999755859375,-0.1242523193359375,-0.0295867919921875
1772536409930137600,6.0641376953125,-0.997955322265625,-0.124847412109375,-0.03009033203125
1772536409940185600,6.074185546875,-0.9921875,-0.1237030029296875,-0.031463623046875
1772536409950234600,6.084234619140625,-0.9884796142578125,-0.1247711181640625,-0.0325775146484375
1772536409960282600,6.09428271484375,-0.988189697265625,-0.1244049072265625,-0.0316619873046875
1772536409970330400,6.104330322265625,-0.9877777099609375,-0.1281585693359375,-0.0299224853515625
1772536409980378600,6.114378662109375,-0.9892425537109375,-0.1316680908203125,-0.03033447265625
1772536409990426600,6.124426513671875,-0.99151611328125,-0.131683349609375,-0.0303955078125
1772536410000475600,6.1344755859375,-0.9935455322265625,-0.12982177734375,-0.0329437255859375
1772536410010523600,6.144523681640625,-0.9900360107421875,-0.1277313232421875,-0.0347137451171875
1772536410020571400,6.1545712890625,-0.9894256591796875,-0.12591552734375,-0.0344696044921875
1772536410030619600,6.16461962890625,-0.9942474365234375,-0.12518310546875,-0.0340728759765625
1772536410040667600,6.174667724609375,-0.995330810546875,-0.1250152587890625,-0.034423828125
1772536410050716700,6.184716552734375,-0.9925079345703125,-0.125335693359375,-0.0342559814453125
1772536410060764700,6.1947646484375,-0.99298095703125,-0.1243743896484375,-0.032958984375
1772536410070812700,6.204812744140625,-0.99658203125,-0.1270294189453125,-0.0318756103515625
1772536410080860700,6.214860595703125,-0.997802734375,-0.127471923828125,-0.03131103515625
1772536410090909700,6.22490966796875,-0.993255615234375,-0.1255950927734375,-0.0303497314453125
1772536410100957700,6.234957763671875,-0.9912261962890625,-0.124908447265625,-0.030914306640625
1772536410111005700,6.245005615234375,-0.996124267578125,-0.126800537109375,-0.0308837890625
1772536410121053700,6.2550537109375,-0.996246337890625,-0.1243133544921875,-0.0317230224609375
1772536410131101700,6.265101806640625,-0.995697021484375,-0.121978759765625,-0.0313262939453125
1772536410141150700,6.275150634765625,-0.9965972900390625,-0.1224212646484375,-0.033203125
1772536410151198700,6.28519873046875,-0.9981689453125,-0.12213134765625,-0.0316925048828125
1772536410161246700,6.295246826171875,-0.9983062744140625,-0.1223297119140625,-0.03155517578125
1772536410171294700,6.305294677734375,-0.995697021484375,-0.12408447265625,-0.0327301025390625
1772536410181342700,6.3153427734375,-0.99346923828125,-0.1262969970703125,-0.03173828125
1772536410191391700,6.325391845703125,-0.9917449951171875,-0.126556396484375,-0.0318450927734375
1772536410201439700,6.335439697265625,-0.9920654296875,-0.12799072265625,-0.0328521728515625
1772536410211487700,6.34548779296875,-0.9901885986328125,-0.1280975341796875,-0.034454345703125
1772536410221535700,6.35553564453125,-0.9879150390625,-0.1278228759765625,-0.0346832275390625
1772536410231583500,6.36558349609375,-0.99078369140625,-0.1287078857421875,-0.0344696044921875
1772536410241632800,6.3756328125,-0.992156982421875,-0.1283721923828125,-0.03436279296875
1772536410251680500,6.385680419921875,-0.988677978515625,-0.1272735595703125,-0.0330352783203125
1772536410261728800,6.395728759765625,-0.99151611328125,-0.12744140625,-0.0326690673828125
1772536410271776800,6.40577685546875,-0.997802734375,-0.12744140625,-0.032562255859375
1772536410281824800,6.41582470703125,-0.9959869384765625,-0.1253814697265625,-0.0327911376953125
1772536410291873800,6.425873779296875,-0.9918212890625,-0.122772216796875,-0.0306243896484375
1772536410301921500,6.435921630859375,-0.993072509765625,-0.1242523193359375,-0.0314788818359375
1772536410311969800,6.4459697265625,-0.9960784912109375,-0.126312255859375,-0.02996826171875
1772536410322017800,6.456017822265625,-0.9937744140625,-0.12628173828125,-0.0296478271484375
1772536410332065800,6.466065673828125,-0.9912261962890625,-0.125274658203125,-0.030517578125
1772536410342114600,6.476114501953125,-0.9944610595703125,-0.1261138916015625,-0.03045654296875
1772536410352162600,6.48616259765625,-0.9944000244140625,-0.1256866455078125,-0.0317230224609375
1772536410362210800,6.4962109375,-0.988189697265625,-0.1241912841796875,-0.0340576171875
1772536410372258600,6.506258544921875,-0.987213134765625,-0.126190185546875,-0.03424072265625
1772536410382307800,6.516307861328125,-0.991058349609375,-0.12872314453125,-0.035614013671875
1772536410392355600,6.52635546875,-0.99224853515625,-0.13116455078125,-0.0341339111328125
1772536410402403600,6.536403564453125,-0.9930419921875,-0.1316375732421875,-0.0326690673828125
1772536410412451800,6.546451904296875,-0.99676513671875,-0.1304931640625,-0.0334625244140625
1772536410422499600,6.55649951171875,-0.997711181640625,-0.127288818359375,-0.0350189208984375
1772536410432548900,6.566548828125,-0.99139404296875,-0.1242218017578125,-0.03411865234375
1772536410442596600,6.5765966796875,-0.9920501708984375,-0.123870849609375,-0.0343475341796875
1772536410452644900,6.586644775390625,-0.9925689697265625,-0.125,-0.0336761474609375
1772536410462692900,6.59669287109375,-0.9927215576171875,-0.12689208984375,-0.0308990478515625
1772536410472740600,6.60674072265625,-0.9938201904296875,-0.126983642578125,-0.0298919677734375
1772536410482789600,6.61678955078125,-0.992706298828125,-0.12738037109375,-0.0300750732421875
1772536410492837600,6.626837646484375,-0.9911651611328125,-0.1263275146484375,-0.0283966064453125
1772536410502886000,6.636885986328125,-0.993621826171875,-0.126495361328125,-0.02862548828125
1772536410512933600,6.64693359375,-0.9933013916015625,-0.1274871826171875,-0.0294342041015625
1772536410522981600,6.656981689453125,-0.9936676025390625,-0.127288818359375,-0.0306396484375
1772536410533030700,6.66703076171875,-0.9937591552734375,-0.127838134765625,-0.033538818359375
1772536410543078700,6.67707861328125,-0.9929351806640625,-0.1277313232421875,-0.03436279296875
1772536410553127000,6.687126953125,-0.9946746826171875,-0.128662109375,-0.032989501953125
1772536410563174700,6.697174560546875,-0.9994049072265625,-0.12774658203125,-0.0337371826171875
1772536410573222700,6.70722265625,-0.996795654296875,-0.1240997314453125,-0.0355682373046875
1772536410583271700,6.717271728515625,-0.9939117431640625,-0.12237548828125,-0.0349884033203125
1772536410593319700,6.727319580078125,-0.9963531494140625,-0.124725341796875,-0.0338287353515625
1772536410603367700,6.73736767578125,-0.996856689453125,-0.124725341796875,-0.03253173828125
1772536410613415700,6.747415771484375,-0.99420166015625,-0.125152587890625,-0.0318450927734375
1772536410623463700,6.757463623046875,-0.991455078125,-0.1274566650390625,-0.032562255859375
1772536410633512700,6.7675126953125,-0.9888916015625,-0.1298980712890625,-0.031158447265625
1772536410643560700,6.777560791015625,-0.989532470703125,-0.1313018798828125,-0.0318603515625
1772536410653608700,6.787608642578125,-0.9892425537109375,-0.1310272216796875,-0.0318756103515625
1772536410663656700,6.79765673828125,-0.9889068603515625,-0.1309814453125,-0.0326995849609375
1772536410673705700,6.807705810546875,-0.9907073974609375,-0.1284942626953125,-0.0331573486328125
1772536410683753700,6.817753662109375,-0.990203857421875,-0.1275634765625,-0.03448486328125
1772536410693801700,6.8278017578125,-0.9893951416015625,-0.1266021728515625,-0.0356597900390625
1772536410703849700,6.837849609375,-0.992645263671875,-0.126251220703125,-0.03466796875
1772536410713897700,6.847897705078125,-0.9945068359375,-0.1265106201171875,-0.03546142578125
1772536410723946800,6.85794677734375,-0.9939117431640625,-0.126983642578125,-0.0345458984375
1772536410733994800,6.867994873046875,-0.994293212890625,-0.12725830078125,-0.0348968505859375
1772536410744042800,6.878042724609375,-0.9935302734375,-0.128509521484375,-0.0339202880859375
1772536410754090800,6.8880908203125,-0.993743896484375,-0.1280364990234375,-0.0345916748046875
1772536410764138800,6.898138671875,-0.994781494140625,-0.1287689208984375,-0.0348968505859375
1772536410774187800,6.908187744140625,-0.9961395263671875,-0.1292877197265625,-0.0334930419921875
1772536410784235800,6.91823583984375,-0.9970550537109375,-0.1279296875,-0.0344085693359375
1772536410794283500,6.928283447265625,-0.99517822265625,-0.126922607421875,-0.0339508056640625
1772536410804331800,6.938331787109375,-0.994384765625,-0.1262359619140625,-0.0330657958984375
1772536410814379800,6.9483798828125,-0.997833251953125,-0.1264801025390625,-0.0331268310546875
1772536410824428800,6.9584287109375,-0.998321533203125,-0.12677001953125,-0.033782958984375
1772536410834476800,6.968476806640625,-0.99639892578125,-0.1263885498046875,-0.0338897705078125
1772536410844524500,6.978524658203125,-0.9954681396484375,-0.1260528564453125,-0.0345611572265625
1772536410854572800,6.98857275390625,-0.9950714111328125,-0.1277923583984375,-0.0344696044921875
1772536410864620800,6.998620849609375,-0.9951019287109375,-0.12945556640625,-0.0340423583984375
1772536410874669800,7.008669921875,-0.9952392578125,-0.12921142578125,-0.033905029296875
1772536410884717800,7.0187177734375,-0.992645263671875,-0.1276092529296875,-0.0350341796875
1772536410894765600,7.028765625,-0.9909210205078125,-0.1270294189453125,-0.0348052978515625
1772536410904813800,7.038813720703125,-0.99005126953125,-0.126434326171875,-0.0346221923828125
1772536410914862600,7.048862548828125,-0.989410400390625,-0.1251678466796875,-0.0363006591796875
1772536410924910800,7.058910888671875,-0.9882354736328125,-0.1259613037109375,-0.0343475341796875
1772536410934958600,7.06895849609375,-0.99139404296875,-0.1293487548828125,-0.034088134765625
1772536410945006600,7.079006591796875,-0.9930419921875,-0.1298065185546875,-0.0351104736328125
1772536410955054800,7.089054931640625,-0.991455078125,-0.1293487548828125,-0.0352325439453125
1772536410965103600,7.099103515625,-0.991455078125,-0.1293487548828125,-0.0354766845703125
1772536410975151900,7.10915185546875,-0.9926300048828125,-0.1283111572265625,-0.036285400390625
1772536410985199600,7.11919970703125,-0.9919891357421875,-0.12835693359375,-0.03594970703125
1772536410995247600,7.12924755859375,-0.9937896728515625,-0.130340576171875,-0.0349578857421875
1772536411005295900,7.1392958984375,-0.9932861328125,-0.128753662109375,-0.03533935546875
1772536411015344600,7.1493447265625,-0.9944915771484375,-0.1298065185546875,-0.03533935546875
1772536411025393000,7.159392822265625,-0.9907684326171875,-0.127899169921875,-0.0365447998046875
1772536411035440600,7.169440673828125,-0.98858642578125,-0.126708984375,-0.0367279052734375
1772536411045488600,7.179488525390625,-0.990478515625,-0.1287689208984375,-0.0362396240234375
1772536411055536600,7.18953662109375,-0.9908599853515625,-0.1327362060546875,-0.034576416015625
1772536411065585700,7.199585693359375,-0.9941253662109375,-0.132904052734375,-0.033782958984375
1772536411075633700,7.209633544921875,-0.99609375,-0.13153076171875,-0.0342254638671875
1772536411085681400,7.219681396484375,-0.993865966796875,-0.1298370361328125,-0.03619384765625
1772536411095729400,7.2297294921875,-0.99066162109375,-0.1285552978515625,-0.0366058349609375
1772536411105777200,7.239777099609375,-0.9912567138671875,-0.1283111572265625,-0.036529541015625
1772536411115826400,7.249826416015625,-0.9942626953125,-0.12762451171875,-0.033416748046875
1772536411125874200,7.259874267578125,-0.9922332763671875,-0.1290130615234375,-0.03533935546875
1772536411135922400,7.26992236328125,-0.9901275634765625,-0.1278076171875,-0.033538818359375
1772536411145970400,7.279970458984375,-0.992828369140625,-0.1287384033203125,-0.0319061279296875
1772536411156019500,7.29001953125,-0.9953155517578125,-0.1303253173828125,-0.0322723388671875
1772536411166067500,7.3000673828125,-0.9961090087890625,-0.1314544677734375,-0.031951904296875
1772536411176115200,7.310115234375,-0.9944305419921875,-0.1299285888671875,-0.0330963134765625
1772536411186163500,7.32016357421875,-0.9949493408203125,-0.1295623779296875,-0.0329132080078125
1772536411196211500,7.33021142578125,-0.9959564208984375,-0.1292877197265625,-0.0348968505859375
1772536411206260500,7.340260498046875,-0.9953460693359375,-0.1279144287109375,-0.035888671875
1772536411216308500,7.35030859375,-0.9956817626953125,-0.126556396484375,-0.036529541015625
1772536411226356200,7.360356201171875,-0.9948883056640625,-0.1263580322265625,-0.035888671875
1772536411236404500,7.370404541015625,-0.9973297119140625,-0.1266632080078125,-0.034515380859375
1772536411246452200,7.3804521484375,-0.9964599609375,-0.1258697509765625,-0.03466796875
1772536411256501500,7.39050146484375,-0.9953460693359375,-0.1272430419921875,-0.0351104736328125
1772536411266549200,7.40054931640625,-0.9908447265625,-0.1281890869140625,-0.0345001220703125
1772536411276597200,7.41059716796875,-0.9889373779296875,-0.127685546875,-0.035003662109375
1772536411286645500,7.4206455078125,-0.98834228515625,-0.1297760009765625,-0.0330657958984375
1772536411296693200,7.430693359375,-0.9873199462890625,-0.1318206787109375,-0.0333099365234375
1772536411306742500,7.440742431640625,-0.9890899658203125,-0.1331787109375,-0.0331878662109375
1772536411316790300,7.450790283203125,-0.9902801513671875,-0.1324310302734375,-0.0349884033203125
1772536411326838300,7.46083837890625,-0.9893951416015625,-0.1304473876953125,-0.0351104736328125
1772536411336886500,7.470886474609375,-0.98907470703125,-0.130462646484375,-0.0372467041015625
1772536411346934300,7.480934326171875,-0.992523193359375,-0.1306304931640625,-0.036468505859375
1772536411356983300,7.4909833984375,-0.9954071044921875,-0.128448486328125,-0.037109375
1772536411367031300,7.50103125,-0.9943389892578125,-0.12689208984375,-0.037322998046875
1772536411377079300,7.511079345703125,-0.993194580078125,-0.1269378662109375,-0.0369110107421875
1772536411387127300,7.521127197265625,-0.9952239990234375,-0.1280670166015625,-0.036102294921875
1772536411397175300,7.53117529296875,-0.9948272705078125,-0.1279754638671875,-0.0347900390625
1772536411407224300,7.541224365234375,-0.991455078125,-0.1283416748046875,-0.033843994140625
1772536411417272300,7.551272216796875,-0.99420166015625,-0.12890625,-0.0331573486328125
1772536411427320300,7.5613203125,-0.9960479736328125,-0.1280517578125,-0.0321044921875
1772536411437368300,7.571368408203125,-0.9931488037109375,-0.128204345703125,-0.0322265625
1772536411447417300,7.581417236328125,-0.9913177490234375,-0.1265869140625,-0.03338623046875
1772536411457465300,7.59146533203125,-0.9940338134765625,-0.127288818359375,-0.0333709716796875
1772536411467513300,7.601513427734375,-0.9946746826171875,-0.127288818359375,-0.034423828125
1772536411477561300,7.611561279296875,-0.9952392578125,-0.127410888671875,-0.0350799560546875
1772536411487609300,7.621609375,-0.9951934814453125,-0.1266632080078125,-0.036407470703125
1772536411497658400,7.631658447265625,-0.9939117431640625,-0.1255645751953125,-0.0373077392578125
1772536411507706400,7.641706298828125,-0.9925537109375,-0.1254730224609375,-0.03814697265625
1772536411517754400,7.65175439453125,-0.9954071044921875,-0.1277923583984375,-0.0380401611328125
1772536411527802000,7.661802001953125,-0.9954071044921875,-0.130584716796875,-0.03680419921875
1772536411537850400,7.671850341796875,-0.996490478515625,-0.1288909912109375,-0.0357513427734375
1772536411547899100,7.681899169921875,-0.98931884765625,-0.131011962890625,-0.0388946533203125
1772536411557947400,7.691947509765625,-0.9909515380859375,-0.1331329345703125,-0.0363616943359375
1772536411567995400,7.701995361328125,-0.994140625,-0.1313629150390625,-0.035858154296875
1772536411578043100,7.712043212890625,-0.9913177490234375,-0.1331939697265625,-0.03643798828125
1772536411588091400,7.72209130859375,-0.9891815185546875,-0.129852294921875,-0.0348052978515625
1772536411598140200,7.73214013671875,-0.987396240234375,-0.1286773681640625,-0.0358428955078125
1772536411608188400,7.7421884765625,-0.991302490234375,-0.1312408447265625,-0.0351409912109375
1772536411618236400,7.752236328125,-0.9944610595703125,-0.1313323974609375,-0.03314208984375
1772536411628284400,7.762284423828125,-0.9942626953125,-0.130859375,-0.0337371826171875
1772536411638332400,7.77233251953125,-0.9936370849609375,-0.1293487548828125,-0.033905029296875
1772536411648381200,7.782381103515625,-0.99139404296875,-0.1254425048828125,-0.033966064453125
1772536411658429400,7.792429443359375,-0.99334716796875,-0.125274658203125,-0.0341033935546875
1772536411668477200,7.802477294921875,-0.9911346435546875,-0.12591552734375,-0.0363616943359375
1772536411678525400,7.812525390625,-0.99090576171875,-0.1274261474609375,-0.03509521484375
1772536411688574200,7.82257421875,-0.993072509765625,-0.1283416748046875,-0.0340728759765625
1772536411698622200,7.832622314453125,-0.9940948486328125,-0.13134765625,-0.033355712890625
1772536411708670500,7.84267041015625,-0.995635986328125,-0.132568359375,-0.0345458984375
1772536411718718200,7.85271826171875,-0.9972686767578125,-0.1294708251953125,-0.0333099365234375
1772536411728766500,7.862766357421875,-0.9911651611328125,-0.128875732421875,-0.037261962890625
1772536411738815200,7.872815185546875,-0.989501953125,-0.129302978515625,-0.036651611328125
1772536411748863200,7.88286328125,-0.993011474609375,-0.129302978515625,-0.034149169921875
1772536411758911500,7.892911376953125,-0.9932861328125,-0.1316680908203125,-0.0327911376953125
1772536411768959200,7.902959228515625,-0.991302490234375,-0.1309967041015625,-0.0318145751953125
1772536411779007500,7.913007568359375,-0.9894866943359375,-0.13031005859375,-0.0309295654296875
1772536411789056300,7.92305615234375,-0.98931884765625,-0.1329345703125,-0.0311126708984375
1772536411799104500,7.9331044921875,-0.9923553466796875,-0.13275146484375,-0.02960205078125
1772536411809152300,7.94315234375,-0.9929046630859375,-0.132415771484375,-0.0308837890625
1772536411819200300,7.9532001953125,-0.9925384521484375,-0.1320953369140625,-0.0323333740234375
1772536411829248500,7.96324853515625,-0.9968719482421875,-0.1317596435546875,-0.0313568115234375
1772536411839297300,7.97329736328125,-0.999053955078125,-0.12762451171875,-0.0334014892578125
1772536411849345500,7.983345458984375,-0.996307373046875,-0.1276397705078125,-0.035186767578125
1772536411859393300,7.993393310546875,-0.99676513671875,-0.128753662109375,-0.03253173828125
1772536411869441300,8.003441162109375,-0.997894287109375,-0.1273651123046875,-0.0336151123046875
1772536411879489500,8.013489501953124,-0.995391845703125,-0.1294708251953125,-0.031829833984375
1772536411889538300,8.023538330078125,-0.993621826171875,-0.1303863525390625,-0.0306854248046875
1772536411899586600,8.033586669921876,-0.9925384521484375,-0.1297149658203125,-0.031158447265625
1772536411909634300,8.04363427734375,-0.9906005859375,-0.12994384765625,-0.0322113037109375
1772536411919682300,8.053682373046875,-0.9861907958984375,-0.1304779052734375,-0.03399658203125
1772536411929731300,8.0637314453125,-0.986724853515625,-0.1320648193359375,-0.03253173828125
1772536411939779300,8.073779296875,-0.99029541015625,-0.1338653564453125,-0.03131103515625
1772536411949827300,8.083827392578126,-0.9893646240234375,-0.1353912353515625,-0.03350830078125
1772536411959875300,8.093875244140625,-0.98968505859375,-0.1344451904296875,-0.0325927734375
1772536411969923300,8.10392333984375,-0.9925079345703125,-0.1326446533203125,-0.032012939453125
1772536411979972400,8.113972412109375,-0.9940948486328125,-0.1325531005859375,-0.0334930419921875
1772536411990020400,8.124020263671875,-0.9928131103515625,-0.1306915283203125,-0.0334625244140625
1772536412000068400,8.134068359375,-0.9932098388671875,-0.1298980712890625,-0.0332183837890625
1772536412010116400,8.144116455078125,-0.9963836669921875,-0.1314239501953125,-0.032958984375
1772536412020164400,8.154164306640626,-0.997589111328125,-0.1322479248046875,-0.03076171875
1772536412030213400,8.16421337890625,-0.9948272705078125,-0.1308135986328125,-0.0313720703125
1772536412040261400,8.174261474609375,-0.9940948486328125,-0.1300201416015625,-0.031402587890625
1772536412050309400,8.184309326171874,-0.9937744140625,-0.1307220458984375,-0.0321807861328125
1772536412060357400,8.194357421875,-0.991973876953125,-0.1309814453125,-0.0316009521484375
1772536412070405000,8.204405029296876,-0.992095947265625,-0.130615234375,-0.0306243896484375
1772536412080454400,8.214454345703125,-0.99627685546875,-0.1291961669921875,-0.0300445556640625
1772536412090502100,8.224502197265625,-0.9949188232421875,-0.1293792724609375,-0.0316009521484375
1772536412100550100,8.234550048828124,-0.994842529296875,-0.131744384765625,-0.03253173828125
1772536412110598400,8.244598388671875,-0.9945526123046875,-0.130401611328125,-0.03228759765625
1772536412120646100,8.254646240234376,-0.9904022216796875,-0.131500244140625,-0.0337066650390625
1772536412130695200,8.264695068359375,-0.9908905029296875,-0.1326751708984375,-0.033966064453125
1772536412140743200,8.2747431640625,-0.99468994140625,-0.13262939453125,-0.0331573486328125
1772536412150791200,8.284791259765624,-0.993011474609375,-0.130859375,-0.032379150390625
1772536412160839400,8.29483935546875,-0.9887542724609375,-0.130615234375,-0.0347137451171875
1772536412170888200,8.30488818359375,-0.990234375,-0.1318359375,-0.033782958984375
1772536412180936200,8.314936279296875,-0.9913787841796875,-0.131072998046875,-0.0343017578125
1772536412190984200,8.324984130859375,-0.9936065673828125,-0.13262939453125,-0.0349578857421875
1772536412201032200,8.3350322265625,-0.9907989501953125,-0.1320648193359375,-0.0343475341796875
1772536412211080200,8.345080078125,-0.988922119140625,-0.1315460205078125,-0.0345306396484375
1772536412221129200,8.355129150390624,-0.9913482666015625,-0.1336212158203125,-0.03515625
1772536412231177200,8.36517724609375,-0.9907684326171875,-0.1334228515625,-0.03570556640625
1772536412241225200,8.37522509765625,-0.990692138671875,-0.131134033203125,-0.0352325439453125
1772536412251273200,8.385273193359374,-0.988250732421875,-0.131622314453125,-0.0345916748046875
1772536412261321200,8.3953212890625,-0.9930877685546875,-0.1337127685546875,-0.0306854248046875
1772536412271370200,8.405370361328124,-0.999176025390625,-0.12957763671875,-0.0305633544921875
1772536412281418200,8.415418212890625,-0.9956512451171875,-0.1245574951171875,-0.0316619873046875
1772536412291466200,8.42546630859375,-0.992828369140625,-0.1255645751953125,-0.03167724609375
1772536412301514200,8.43551416015625,-0.9947052001953125,-0.1275787353515625,-0.0313873291015625
1772536412311562200,8.445562255859375,-0.995147705078125,-0.1300506591796875,-0.0306243896484375
1772536412321611300,8.455611328125,-0.9968109130859375,-0.1338653564453125,-0.030120849609375
1772536412331659300,8.4656591796875,-0.9969329833984375,-0.1339263916015625,-0.0283660888671875
1772536412341707300,8.475707275390626,-0.99462890625,-0.132171630859375,-0.029937744140625
1772536412351755300,8.48575537109375,-0.9934539794921875,-0.1317291259765625,-0.0313720703125
1772536412361803300,8.49580322265625,-0.9923248291015625,-0.130340576171875,-0.0310516357421875
1772536412371852000,8.50585205078125,-0.99407958984375,-0.1302490234375,-0.032806396484375
1772536412381900300,8.515900390625,-0.9920501708984375,-0.1315765380859375,-0.032257080078125
1772536412391948300,8.5259482421875,-0.9913330078125,-0.1318206787109375,-0.0323638916015625
1772536412401996000,8.53599609375,-0.9893951416015625,-0.1312408447265625,-0.032257080078125
1772536412412044300,8.546044189453125,-0.9885406494140625,-0.13128662109375,-0.0288543701171875
1772536412422093000,8.556093017578124,-0.9892578125,-0.1319427490234375,-0.02911376953125
1772536412432141300,8.566141357421875,-0.9867706298828125,-0.1320037841796875,-0.0269775390625
1772536412442189300,8.576189208984376,-0.9878387451171875,-0.1329498291015625,-0.0249481201171875
1772536412452237000,8.586237060546875,-0.9903411865234375,-0.135589599609375,-0.0276031494140625
1772536412462286300,8.596286376953126,-0.99151611328125,-0.135772705078125,-0.0271148681640625
1772536412472334000,8.606333984375,-0.9912567138671875,-0.1312408447265625,-0.0283355712890625
1772536412482382300,8.61638232421875,-0.9914093017578125,-0.1275482177734375,-0.033294677734375
1772536412492430300,8.626430419921874,-0.98419189453125,-0.1265106201171875,-0.03143310546875
1772536412502478000,8.63647802734375,-0.9671783447265625,-0.1254425048828125,-0.033172607421875
1772536412512527000,8.646527099609376,-0.9639739990234375,-0.123443603515625,-0.02691650390625
1772536412522575000,8.6565751953125,-1.0127716064453125,-0.1291351318359375,-0.0242156982421875
1772536412532623400,8.666623291015625,-1.0342559814453125,-0.132781982421875,-0.024993896484375
1772536412542671000,8.676671142578124,-1.0117340087890625,-0.1329193115234375,-0.0301666259765625
1772536412552719000,8.686718994140625,-0.996826171875,-0.1266632080078125,-0.0362701416015625
1772536412562768100,8.69676806640625,-1.0015106201171875,-0.1262664794921875,-0.0384979248046875
1772536412572816100,8.706816162109375,-1.0092926025390625,-0.1320343017578125,-0.0352630615234375
1772536412582864400,8.716864501953125,-1.0100555419921875,-0.131988525390625,-0.033477783203125
1772536412592912100,8.726912109375,-1.00079345703125,-0.1296844482421875,-0.032745361328125
1772536412602960100,8.736960205078125,-0.9914398193359375,-0.1282501220703125,-0.027557373046875
1772536412613009200,8.747009033203126,-0.9864349365234375,-0.1259918212890625,-0.032501220703125
