time,seconds_elapsed,z,y,x
1772536403947689700,0.081689697265625,0.008209179155528545,0.08768016844987869,0.15493997931480408
1772536403957737700,0.09173779296875,0.01868312433362007,0.09304483979940414,0.1455795019865036
1772536403967785700,0.10178564453125,0.031194385141134262,0.08200044184923172,0.12132755666971207
1772536403977834800,0.111834716796875,0.046859100461006165,0.059404850006103516,0.09540434926748276
1772536403987882800,0.1218828125,0.05630003288388252,0.04766690731048584,0.06228724867105484
1772536403997930800,0.1319306640625,0.06156936287879944,0.041248954832553864,0.03118312731385231
1772536404007978800,0.141978759765625,0.06200522556900978,0.039739757776260376,0.010047976858913898
1772536404018027800,0.15202783203125,0.057872798293828964,0.04542587697505951,-0.010388588532805443
1772536404028075800,0.16207568359375,0.05039364472031593,0.04767204821109772,-0.028021181002259254
1772536404038123800,0.172123779296875,0.04183903709053993,0.04696071520447731,-0.04351651668548584
1772536404048171800,0.182171875,0.0379294753074646,0.050410181283950806,-0.06218070164322853
1772536404058219800,0.1922197265625,0.036991510540246964,0.04380740225315094,-0.07048789411783218
1772536404068268800,0.202268798828125,0.032292649149894714,0.03136291354894638,-0.08310385048389435
1772536404078314200,0.212314208984375,0.023203812539577484,0.009307947009801865,-0.09193941950798035
1772536404088362500,0.222362548828125,0.01201408077031374,-0.011944827623665333,-0.1002819761633873
1772536404098410200,0.23241015625,-0.003701232373714447,-0.04440130293369293,-0.10037758201360703
1772536404108458200,0.242458251953125,-0.0153858233243227,-0.0705520287156105,-0.0987715870141983
1772536404118507300,0.25250732421875,-0.018471628427505493,-0.07205591350793839,-0.07798109203577042
1772536404128555300,0.26255517578125,-0.023841530084609985,-0.034283798187971115,-0.06668858975172043
1772536404138603500,0.272603515625,-0.029294881969690323,0.004932314157485962,-0.04372601583600044
1772536404148651300,0.2826513671875,-0.035405274480581284,0.022923389449715614,-0.013680735602974892
1772536404158699300,0.29269921875,-0.05085480585694313,0.05039602518081665,0.008752135559916496
1772536404168748300,0.302748291015625,-0.06488580256700516,0.08643647283315659,0.03946851193904877
1772536404178796300,0.31279638671875,-0.07645750790834427,0.1322750747203827,0.061172470450401306
1772536404188844500,0.322844482421875,-0.08312436193227768,0.1647445112466812,0.07227268069982529
1772536404198892300,0.332892333984375,-0.10511168837547302,0.19328933954238892,0.07682722061872482
1772536404208940300,0.342940185546875,-0.1048249900341034,0.21757858991622925,0.08744151890277863
1772536404218989300,0.3529892578125,-0.07720641046762466,0.19405968487262726,0.0910988375544548
1772536404229037300,0.363037353515625,-0.06439869105815887,0.10231123119592667,0.08303393423557281
1772536404239085300,0.373085205078125,-0.06218826770782471,0.014175781980156898,0.07140976935625076
1772536404249133300,0.38313330078125,-0.05496380478143692,-0.019307363778352737,0.05042330175638199
1772536404259182300,0.393182373046875,-0.04650641232728958,-0.004841073416173458,0.029828280210494995
1772536404269230300,0.403230224609375,-0.033247366547584534,0.007645782083272934,0.01710505597293377
1772536404279278300,0.4132783203125,-0.028012393042445183,0.0024622054770588875,0.005332552827894688
1772536404289326300,0.423326416015625,-0.0220264233648777,-0.0027740346267819405,-0.004087823908776045
1772536404299374300,0.433374267578125,-0.017549118027091026,-0.012838652357459068,-0.010217355564236641
1772536404309423400,0.44342333984375,-0.008837793953716755,-0.01270932238548994,-0.008248602040112019
1772536404319471400,0.453471435546875,-0.0034502195194363594,-0.009850685484707355,-0.005147617310285568
1772536404329519400,0.463519287109375,-0.0001885443925857544,-0.0036016167141497135,-0.004524139687418938
1772536404339567400,0.4735673828125,0.005767615046352148,-0.003876721253618598,-0.01185209397226572
1772536404349615400,0.483615478515625,0.006949086673557758,-0.016819162294268608,-0.018877871334552765
1772536404359664400,0.493664306640625,0.015145231038331985,-0.043589524924755096,-0.027960581704974174
1772536404369712400,0.50371240234375,0.014570754021406174,-0.056303903460502625,-0.026348676532506943
1772536404379760400,0.513760498046875,0.007118429988622665,-0.04850483685731888,-0.014949548989534378
1772536404389808400,0.523808349609375,0.0034985519014298916,-0.03464406728744507,-0.003851372981444001
1772536404399856400,0.5338564453125,0.0038160006515681744,-0.02718961052596569,0.016273602843284607
1772536404409905400,0.543905517578125,-0.0016140220686793327,-0.012974690645933151,0.03213442116975784
1772536404419953400,0.553953369140625,-0.0007647396996617317,-0.004445384722203016,0.046292584389448166
1772536404430001200,0.564001220703125,0.0015731961466372013,-0.004497699439525604,0.049517590552568436
1772536404440049400,0.57404931640625,0.009925668127834797,-0.01951979100704193,0.04197338968515396
1772536404450097400,0.584097412109375,0.007899913005530834,-0.038771823048591614,0.02572973445057869
1772536404460146400,0.594146484375,0.007251699920743704,-0.054251983761787415,0.02278214693069458
1772536404470194400,0.6041943359375,0.007901772856712341,-0.03251340612769127,0.02792377769947052
1772536404480242200,0.6142421875,0.008021614514291286,-0.0018255333416163921,0.03670954704284668
1772536404490290400,0.62429052734375,0.01750369369983673,0.009114781394600868,0.034113600850105286
1772536404500339200,0.634339111328125,0.02538585104048252,0.00440285075455904,0.0242625679820776
1772536404510387500,0.644387451171875,0.030273225158452988,-0.022404324263334274,0.0047395359724760056
1772536404520435500,0.654435546875,0.03713672235608101,-0.051478318870067596,-0.0045453086495399475
1772536404530483200,0.664483154296875,0.03696809709072113,-0.05071118474006653,-0.00448547163978219
1772536404540531500,0.674531494140625,0.03408415615558624,-0.022694461047649384,0.0027660494670271873
1772536404550580200,0.684580322265625,0.036494940519332886,-0.0024206330999732018,0.016542352735996246
1772536404560628500,0.69462841796875,0.029989106580615044,-0.00007039355114102364,0.01866436004638672
1772536404570676200,0.70467626953125,0.025252940133213997,-0.015955083072185516,0.0070559075102210045
1772536404580724200,0.71472412109375,0.022759422659873962,-0.040319014340639114,-0.0008155978284776211
1772536404590772500,0.7247724609375,0.022345906123518944,-0.030865807086229324,-0.009541650302708149
1772536404600821200,0.7348212890625,0.017646491527557373,-0.03529917076230049,-0.012096154503524303
1772536404610869500,0.744869384765625,0.017594344913959503,-0.04891606420278549,-0.02176121436059475
1772536404620917200,0.754917236328125,0.019252963364124298,-0.0558147169649601,-0.023481883108615875
1772536404630965200,0.76496533203125,0.01722467876970768,-0.035280074924230576,-0.02640281617641449
1772536404641013500,0.775013427734375,0.01433568075299263,-0.017473915591835976,-0.02917942777276039
1772536404651062300,0.785062255859375,0.012066379189491272,-0.011654839850962162,-0.0301397405564785
1772536404661110500,0.795110595703125,0.007766972295939922,-0.015911903232336044,-0.02417106367647648
1772536404671158300,0.805158203125,0.009767100214958191,-0.013484450988471508,-0.0180625319480896
1772536404681206300,0.815206298828125,0.010421705432236195,0.001156809739768505,-0.013096803799271584
1772536404691255300,0.82525537109375,0.010778659954667091,0.006173919886350632,-0.013151626102626324
1772536404701303300,0.83530322265625,0.001046404242515564,0.00562158040702343,-0.017596974968910217
1772536404711351300,0.845351318359375,-0.009327548556029797,-0.004021824803203344,-0.017873531207442284
1772536404721399300,0.8553994140625,-0.02015915885567665,-0.0179594773799181,-0.022932473570108414
1772536404731447300,0.865447265625,-0.025120381265878677,-0.023982681334018707,-0.024791870266199112
1772536404741496300,0.875496337890625,-0.027410432696342468,-0.014869343489408493,-0.020552117377519608
1772536404751544300,0.88554443359375,-0.02934568002820015,0.0020862529054284096,-0.01367657259106636
1772536404761592300,0.89559228515625,-0.027391720563173294,0.004470048472285271,-0.003485721070319414
1772536404771640300,0.905640380859375,-0.025406016036868095,0.006280574947595596,0.0019619890954345465
1772536404781688600,0.9156884765625,-0.029969343915581703,0.00591172743588686,0.00463526975363493
1772536404791737300,0.9257373046875,-0.027073698118329048,0.009326985105872154,0.0039766766130924225
1772536404801785300,0.935785400390625,-0.027838027104735374,0.009066794067621231,0.004803854506462812
1772536404811833300,0.945833251953125,-0.02224353514611721,0.0030350578017532825,0.005399490240961313
1772536404821881300,0.95588134765625,-0.019086623564362526,0.005615926813334227,0.006203232333064079
1772536404831929300,0.965929443359375,-0.020721741020679474,0.00904986821115017,0.01699668914079666
1772536404841978400,0.975978271484375,-0.022901274263858795,0.010721268132328987,0.02096453122794628
1772536404852026000,0.986026123046875,-0.01889907382428646,0.00965254195034504,0.02022550441324711
1772536404862074400,0.996074462890625,-0.019904151558876038,0.00026356708258390427,0.016229964792728424
1772536404872122400,1.006122314453125,-0.018366552889347076,0.00135741475969553,0.011198439635336399
1772536404882170400,1.01617041015625,-0.018483202904462814,0.005075453780591488,0.009871652349829674
1772536404892219400,1.026219482421875,-0.019312486052513123,0.0042225876823067665,0.006365691777318716
1772536404902267100,1.03626708984375,-0.01961076259613037,-0.005611666943877935,0.012742364779114723
1772536404912315400,1.0463154296875,-0.020555682480335236,-0.0036421255208551884,0.018534254282712936
1772536404922363400,1.05636328125,-0.021700043231248856,0.002995271235704422,0.017178170382976532
1772536404932412400,1.066412353515625,-0.018809307366609573,0.007116345688700676,0.014803020283579826
1772536404942460400,1.07646044921875,-0.016237225383520126,0.009034354239702225,0.01368422619998455
1772536404952508400,1.08650830078125,-0.017402643337845802,0.005307061597704887,0.01150498352944851
1772536404962556400,1.096556396484375,-0.019275911152362823,0.011187320575118065,0.012038681656122208
1772536404972604200,1.106604248046875,-0.020071860402822495,0.012755706906318665,0.0060583483427762985
1772536404982653400,1.1166533203125,-0.016878195106983185,0.0014796159230172634,-0.003496807534247637
1772536404992701200,1.126701171875,-0.015593506395816803,-0.006958009209483862,-0.004887487273663282
1772536405002749400,1.13674951171875,-0.017226556316018105,-0.0028388979844748974,-0.0047945426777005196
1772536405012797400,1.14679736328125,-0.016144443303346634,-0.00021190661936998367,-0.00305170938372612
1772536405022845200,1.15684521484375,-0.014263718388974667,0.0013537663035094738,0.002699919743463397
1772536405032894500,1.16689453125,-0.007189583964645863,0.004243896342813969,0.008089114911854267
1772536405042942200,1.176942138671875,-0.007808770053088665,0.006295862607657909,0.005590271204710007
1772536405052990500,1.186990478515625,-0.0069638462737202644,0.0029445523396134377,0.00544974859803915
1772536405063038500,1.19703857421875,-0.0030276942998170853,-0.005697937682271004,0.0039051154162734747
1772536405073086200,1.207086181640625,-0.0011437991634011269,-0.001475142315030098,0.008862086571753025
1772536405083134500,1.217134521484375,-0.0019131861627101898,0.0053369575180113316,0.018566377460956573
1772536405093182200,1.22718212890625,-0.0015255706384778023,0.013152383267879486,0.025534532964229584
1772536405103230200,1.237230224609375,-0.001614786684513092,0.010214118286967278,0.026642940938472748
1772536405113278500,1.247278564453125,0.00015343166887760162,0.010481907054781914,0.025051837787032127
1772536405123326200,1.257326171875,-0.003148888237774372,0.01214531809091568,0.016613878309726715
1772536405133375500,1.26737548828125,-0.0050340015441179276,0.008309677243232727,0.009143438190221786
1772536405143423200,1.27742333984375,-0.005855320021510124,0.0012839906848967075,0.00001678476110100746
1772536405153471200,1.28747119140625,-0.0059754736721515656,0.0033139814622700214,0.007519884034991264
1772536405163519500,1.29751953125,-0.007501731626689434,0.013296041637659073,0.018884658813476562
1772536405173567200,1.307567138671875,-0.008178483694791794,0.030279390513896942,0.029184332117438316
1772536405183616500,1.317616455078125,-0.006764078512787819,0.02874673902988434,0.03190075606107712
1772536405193664300,1.327664306640625,-0.009302018210291862,0.01906733214855194,0.03229765221476555
1772536405203712300,1.337712158203125,-0.015150053426623344,0.011579321697354317,0.022827452048659325
1772536405213760300,1.34776025390625,-0.014337264932692051,0.007459732703864574,0.01318935863673687
1772536405223808300,1.357808349609375,-0.01761428266763687,0.008881594054400921,0.00888489093631506
1772536405233857300,1.367857177734375,-0.017461489886045456,0.008643191307783127,0.0018780534155666828
1772536405243905300,1.3779052734375,-0.01514054648578167,0.00479785306379199,-0.0017374542076140642
1772536405253953300,1.387953369140625,-0.013052728027105331,0.012355402112007141,-0.003145102644339204
1772536405264001300,1.398001220703125,-0.010224716737866402,0.017955496907234192,-0.0054759010672569275
1772536405274050300,1.40805029296875,-0.008293002843856812,0.02371262013912201,-0.0009840690763667226
1772536405284098300,1.418098388671875,-0.007467424497008324,0.025538749992847443,-0.0023052634205669165
1772536405294146300,1.428146240234375,-0.011678680777549744,0.025360848754644394,-0.0055732280015945435
1772536405304194600,1.438194580078125,-0.011647520586848259,0.008458033204078674,-0.014275372959673405
1772536405314242300,1.4482421875,-0.01207113079726696,-0.012591887265443802,-0.018874485045671463
1772536405324291300,1.458291259765625,-0.015396354719996452,-0.014379668049514294,-0.007976563647389412
1772536405334339300,1.46833935546875,-0.016091734170913696,-0.00035751285031437874,0.002717253053560853
1772536405344387300,1.47838720703125,-0.0167817585170269,0.01752588152885437,0.01813269406557083
1772536405354435300,1.488435302734375,-0.017634160816669464,0.02526373416185379,0.027457676827907562
1772536405364483300,1.4984833984375,-0.014125180430710316,0.026440054178237915,0.029806051403284073
1772536405374532000,1.508531982421875,-0.011615441180765629,0.02310425601899624,0.026109211146831512
1772536405384580400,1.518580322265625,-0.013860219158232212,0.01702239364385605,0.017586298286914825
1772536405394628400,1.52862841796875,-0.008539612405002117,0.010218372568488121,0.0013199618551880121
1772536405404676400,1.53867626953125,-0.004084941931068897,-0.0006079087033867836,-0.00871962308883667
1772536405414724400,1.548724365234375,-0.004520442336797714,-0.009847786277532578,-0.015680251643061638
1772536405424773400,1.5587734375,-0.005963343195617199,-0.01749665103852749,-0.013626156374812126
1772536405434821400,1.5688212890625,-0.005372879095375538,-0.007877184078097343,-0.007112110033631325
1772536405444869400,1.578869384765625,-0.007290622219443321,0.00616300106048584,-0.0012688678689301014
1772536405454917400,1.58891748046875,-0.0072440169751644135,0.018936321139335632,0.006854039616882801
1772536405464965400,1.59896533203125,-0.008354553952813148,0.012941278517246246,0.005259871482849121
1772536405475014400,1.609014404296875,-0.00843327958136797,0.0066023925319314,-0.0014545887243002653
1772536405485062400,1.6190625,-0.005438289605081081,-0.004164502024650574,-0.0013296864926815033
1772536405495110400,1.6291103515625,-0.0024172980338335037,-0.007052687928080559,0.002795376582071185
1772536405505158400,1.639158447265625,-0.002500387839972973,0.0012353360652923584,0.01029110886156559
1772536405515206400,1.649206298828125,0.00019149389117956161,0.008630502969026566,0.020955370739102364
1772536405525255400,1.65925537109375,-0.002734786830842495,0.020231232047080994,0.030311057344079018
1772536405535303400,1.669303466796875,-0.0025093182921409607,0.02797684259712696,0.032985784113407135
1772536405545351200,1.67935107421875,0.0009501283057034016,0.021969817578792572,0.022862840443849564
1772536405555399400,1.6893994140625,0.00711576733738184,0.00446383748203516,0.012842933647334576
1772536405565448200,1.6994482421875,0.008144013583660126,-0.005991732701659203,0.002850220538675785
1772536405575496400,1.709496337890625,0.006804548669606447,-0.00644716527312994,-0.0021254620514810085
1772536405585544400,1.71954443359375,0.0075374506413936615,-0.002804760355502367,-0.004710858687758446
1772536405595592200,1.72959228515625,0.004358187783509493,-0.00040212366729974747,-0.0002785830292850733
1772536405605640400,1.739640380859375,0.0002081841230392456,0.00804062932729721,0.002947303932160139
1772536405615689200,1.749689208984375,0.001201186329126358,0.013471098616719246,0.0037797705736011267
1772536405625737500,1.759737548828125,0.0005468474701046944,0.01535928063094616,0.004402151331305504
1772536405635785200,1.76978515625,0.007397796027362347,0.011208292096853256,0.0044885971583426
1772536405645833200,1.779833251953125,0.007032410241663456,0.006159472279250622,-0.0020310874097049236
1772536405655881500,1.789881591796875,0.0073987459763884544,0.0018300414085388184,-0.008761715143918991
1772536405665930200,1.79993017578125,0.01095033809542656,-0.007761865388602018,-0.009384628385305405
1772536405675978500,1.809978515625,0.008888817392289639,-0.0025336123071610928,-0.003658187109977007
1772536405686026200,1.820026123046875,0.0070901187136769295,0.010963819921016693,-0.00043762626592069864
1772536405696074200,1.83007421875,0.005442953668534756,0.016406256705522537,0.0018668072298169136
1772536405706122500,1.84012255859375,0.007067748345434666,0.01185278408229351,0.0009072700049728155
1772536405716171300,1.850171142578125,0.0067612407729029655,0.002998495474457741,-0.0012122327461838722
1772536405726219500,1.860219482421875,0.010359969921410084,-0.006390745285898447,-0.008145506493747234
1772536405736267300,1.870267333984375,0.008184847421944141,-0.010237094946205616,-0.015208902768790722
1772536405746315300,1.880315185546875,0.005083596333861351,-0.005263907834887505,-0.01155318133533001
1772536405756363300,1.89036328125,-0.00046422891318798065,0.006865818984806538,-0.0019795733969658613
1772536405766412300,1.900412353515625,-0.003692513331770897,0.009387565776705742,0.0021006555762141943
1772536405776460300,1.910460205078125,0.0008260481990873814,0.009051553905010223,0.0018906916957348585
1772536405786508300,1.92050830078125,0.0031754886731505394,0.0019097542390227318,0.004328816197812557
1772536405796556300,1.930556396484375,0.0027119768783450127,0.00268509890884161,0.004820290021598339
1772536405806605300,1.940605224609375,-0.0057241180911660194,0.005910986103117466,0.0005131601355969906
1772536405816653300,1.9506533203125,-0.007980912923812866,0.003780537284910679,-0.0006278450600802898
1772536405826701300,1.960701416015625,-0.005815230309963226,-0.001849917694926262,-0.003285147249698639
1772536405836749300,1.970749267578125,-0.002803841605782509,-0.005676534958183765,-0.0024820887483656406
1772536405846797300,1.98079736328125,-0.0017500286921858788,-0.0014666100032627583,0.0009049195796251297
1772536405856846300,1.990846435546875,0.003209033515304327,0.0040983520448207855,0.003482332918792963
1772536405866894300,2.000894287109375,-0.00013962481170892715,0.013797317631542683,-0.0021446598693728447
1772536405876942300,2.0109423828125,-0.0031941989436745644,0.016920456662774086,-0.0019467261154204607
1772536405886990300,2.020990234375,-0.0061500417068600655,0.011667104437947273,-0.008122064173221588
1772536405897038300,2.031038330078125,-0.0072844065725803375,0.00761254271492362,-0.013170229271054268
1772536405907087400,2.04108740234375,-0.006473207846283913,-0.00975819118320942,-0.02358904853463173
1772536405917135400,2.05113525390625,-0.002346356399357319,-0.019363481551408768,-0.0246141217648983
1772536405927183400,2.061183349609375,-0.0018350295722484589,-0.015784991905093193,-0.018504831939935684
1772536405937231400,2.0712314453125,-0.005175698548555374,-0.006120380945503712,-0.00902664102613926
1772536405947279400,2.081279296875,-0.004979690536856651,0.005682482849806547,-0.0005897465161979198
1772536405957328400,2.091328369140625,-0.0048635294660925865,0.013034576550126076,0.007388787344098091
1772536405967376100,2.101376220703125,-0.0032983897253870964,0.01438746228814125,0.0041176266968250275
1772536405977424400,2.11142431640625,-0.004674783907830715,0.006312709301710129,-0.00239652581512928
1772536405987472400,2.121472412109375,-0.005204220302402973,-0.0015718457289040089,-0.011307994835078716
1772536405997520400,2.131520263671875,-0.00629810243844986,-0.005877811927348375,-0.018178561702370644
1772536406007569400,2.1415693359375,-0.006414216011762619,-0.009646983817219734,-0.02556750364601612
1772536406017617200,2.1516171875,-0.007846513763070107,-0.00931207649409771,-0.025204863399267197
1772536406027665400,2.16166552734375,-0.006497889757156372,-0.002556968480348587,-0.02191852405667305
1772536406037713400,2.17171337890625,-0.0029974300414323807,0.010233341716229916,-0.020149804651737213
1772536406047761400,2.181761474609375,-0.003074660897254944,0.010782486759126186,-0.011781886219978333
1772536406057810400,2.191810546875,-0.008264021947979927,0.01823197305202484,-0.012125090695917606
1772536406067858200,2.201858154296875,-0.005357448011636734,0.004303906112909317,-0.010009475983679295
1772536406077906400,2.211906494140625,-0.004583438858389854,0.0011658756993710995,-0.007281964644789696
1772536406087954200,2.2219541015625,-0.00020839832723140717,0.004606414120644331,0.0011621201410889626
1772536406098002200,2.232002197265625,0.0004945974797010422,0.005726775154471397,0.008699876256287098
1772536406108051200,2.24205126953125,0.0020173927769064903,0.012996407225728035,0.01349782757461071
1772536406118099200,2.25209912109375,-0.0009134355932474136,0.012814581394195557,0.010250392369925976
1772536406128147200,2.262147216796875,-0.004867430776357651,0.004110837820917368,0.005717958323657513
1772536406138195200,2.2721953125,-0.0036655785515904427,-0.0012590796686708927,-0.003624783828854561
1772536406148243200,2.2822431640625,-0.0011899042874574661,-0.0047661964781582355,-0.00750234629958868
1772536406158292200,2.292292236328125,-0.00335795059800148,0.004868240561336279,-0.005828709341585636
1772536406168340200,2.30234033203125,-0.0025057392194867134,0.010514141991734505,-0.0030086881015449762
1772536406178388200,2.31238818359375,0.000030732713639736176,0.010736287571489811,-0.004994682967662811
1772536406188436200,2.322436279296875,-0.002097133547067642,0.00459637027233839,-0.009342293255031109
1772536406198485200,2.3324853515625,0.00136079965159297,-0.00262905890122056,-0.01529135461896658
1772536406208533200,2.342533203125,0.003475083503872156,0.00034436024725437164,-0.023418787866830826
1772536406218581200,2.352581298828125,-0.00025215279310941696,0.003154960460960865,-0.02591216191649437
1772536406228629000,2.36262890625,-0.0038191908970475197,0.004442066885530949,-0.026984617114067078
1772536406238677200,2.37267724609375,-0.004258265718817711,-0.0011819587089121342,-0.030285149812698364
1772536406248726000,2.38272607421875,-0.0002121245488524437,0.008485849015414715,-0.02935783751308918
1772536406258774300,2.392774169921875,0.0025418996810913086,0.01882302574813366,-0.01590452715754509
1772536406268822300,2.402822265625,0.0024721245281398296,0.021019868552684784,-0.008557132445275784
1772536406278870000,2.4128701171875,-0.00048411451280117035,0.012383347377181053,-0.0065861353650689125
1772536406288918300,2.422918212890625,0.001636827364563942,0.004430082626640797,-0.00783409271389246
1772536406298967000,2.432967041015625,-0.0012566782534122467,-0.0022318819537758827,-0.005089727696031332
1772536406309015300,2.443015380859375,-0.0007586674764752388,-0.003578109899535775,-0.004085449501872063
1772536406319063300,2.453063232421875,-0.0007338374853134155,-0.002063997555524111,0.0033260744530707598
1772536406329111000,2.463111083984375,-0.0018260003998875618,-0.000029076356440782547,0.008113639429211617
1772536406339159300,2.4731591796875,0.00002951826900243759,-0.0024887914769351482,0.008494775742292404
1772536406349208000,2.4832080078125,0.002292139921337366,-0.0027662930078804493,0.011517196893692017
1772536406359256300,2.49325634765625,0.003586364444345236,-0.003245977684855461,0.010273706167936325
1772536406369304000,2.503303955078125,0.006907326169312,-0.0076439217664301395,0.007108272984623909
1772536406379352000,2.51335205078125,0.007526340428739786,-0.004079317674040794,0.008026562631130219
1772536406389400300,2.523400390625,0.009391086176037788,0.0013095890171825886,0.0038280896842479706
1772536406399449000,2.533448974609375,0.0073647345416247845,0.0015046685002744198,0.003590092295780778
1772536406409497300,2.543497314453125,0.00213162275031209,-0.004111139103770256,-0.00240708002820611
1772536406419545000,2.553545166015625,-0.0027749082073569298,-0.005710062570869923,-0.013970601372420788
1772536406429593300,2.56359326171875,-0.0026103248819708824,-0.012097921222448349,-0.025291964411735535
1772536406439642000,2.57364208984375,-0.0021420232951641083,-0.0137688759714365,-0.02985234744846821
1772536406449690000,2.583690185546875,-0.0007127048447728157,-0.013765147887170315,-0.029475243762135506
1772536406459738400,2.59373828125,-0.002092150039970875,-0.0052433013916015625,-0.025531725957989693
1772536406469786000,2.6037861328125,0.001122817862778902,0.00936573464423418,-0.02076733112335205
1772536406479834400,2.61383447265625,-0.0028707152232527733,0.016345499083399773,-0.02062990330159664
1772536406489883100,2.623883056640625,-0.005445459857583046,0.008944308385252953,-0.02760845050215721
1772536406499931100,2.63393115234375,-0.0037180576473474503,-0.002839349675923586,-0.03181113302707672
1772536406509979100,2.643979248046875,-0.006767377257347107,-0.012631792575120926,-0.03878381848335266
1772536406520027100,2.654027099609375,-0.007239846512675285,-0.01642511412501335,-0.03575843945145607
1772536406530075400,2.664075439453125,-0.010045221075415611,-0.012400011532008648,-0.027354568243026733
1772536406540124200,2.674124267578125,-0.009270947426557541,-0.005246779881417751,-0.014198249205946922
1772536406550172400,2.68417236328125,-0.010221961885690689,-0.0008544279262423515,-0.0007514157332479954
1772536406560220200,2.69422021484375,-0.006953894160687923,0.010138004086911678,0.006897617131471634
1772536406570268200,2.70426806640625,-0.005896619521081448,0.009553973563015461,0.012897985056042671
1772536406580316400,2.71431640625,-0.0006308546289801598,0.008563308045268059,0.007082538679242134
1772536406590365200,2.724365234375,0.0046640420332551,0.0007927371188998222,-0.003889152081683278
1772536406600413400,2.734413330078125,0.004742162302136421,-0.006812735460698605,-0.01787763275206089
1772536406610461200,2.744461181640625,0.006064954213798046,-0.017480826005339622,-0.026401346549391747
1772536406620509200,2.75450927734375,0.007537214085459709,-0.025012940168380737,-0.035738974809646606
1772536406630557200,2.76455712890625,0.008288491517305374,-0.02713601104915142,-0.03523457422852516
1772536406640606200,2.774606201171875,0.0059761665761470795,-0.020605705678462982,-0.02559429407119751
1772536406650654200,2.784654296875,0.0023300331085920334,-0.010945353657007217,-0.01868259161710739
1772536406660702200,2.7947021484375,0.0034771952778100967,-0.005129433237016201,-0.010641451925039291
1772536406670750200,2.804750244140625,0.000433201901614666,0.0003673308528959751,-0.0063329897820949554
1772536406680798200,2.814798095703125,0.0008918284438550472,0.000755007378757,-0.0018494515679776669
1772536406690847200,2.82484716796875,0.0017248648218810558,-0.00459821242839098,-0.0011253381380811334
1772536406700895200,2.834895263671875,0.008788319304585457,-0.008055921643972397,0.0031959530897438526
1772536406710943200,2.844943115234375,0.004613015800714493,-0.003288863692432642,0.00754436245188117
1772536406720991200,2.8549912109375,0.0012090527452528477,0.011231745593249798,0.014119881205260754
1772536406731039200,2.865039306640625,-0.002131883054971695,0.010233593173325062,0.009873737581074238
1772536406741088300,2.875088134765625,-0.003304443322122097,-0.005537992808967829,0.004363231360912323
1772536406751136300,2.88513623046875,-0.004611256532371044,-0.01106911152601242,-0.00005868147127330303
1772536406761184300,2.895184326171875,-0.0006529400125145912,-0.00217089569196105,-0.0005248034140095115
1772536406771232300,2.905232177734375,-0.0005789045244455338,0.003724277950823307,0.0000014372635632753372
1772536406781280300,2.9152802734375,0.0014332192949950695,-0.006937719881534576,0.0012458337005227804
1772536406791329000,2.9253291015625,0.0017418796196579933,-0.008780893869698048,-0.0004034619778394699
1772536406801377300,2.935377197265625,0.0005714390426874161,-0.0004279562272131443,-0.0012184124207124114
1772536406811425300,2.94542529296875,0.0020460314117372036,0.001983802765607834,-0.006093062460422516
1772536406821473000,2.95547314453125,0.006302348338067532,-0.006966432090848684,-0.017500363290309906
1772536406831521300,2.965521240234375,0.010168725624680519,-0.01429491862654686,-0.016693957149982452
1772536406841570000,2.975570068359375,0.015192297287285328,0.0023409011773765087,-0.004422293975949287
1772536406851618300,2.985618408203125,0.014708401635289192,0.030556827783584595,0.011037356220185757
1772536406861666300,2.995666259765625,0.015767186880111694,0.03794359788298607,0.011694966815412045
1772536406871714000,3.005714111328125,0.017709963023662567,0.014629488810896873,0.009069089777767658
1772536406881763300,3.015763427734375,0.019054830074310303,-0.011493334546685219,-0.0011428920552134514
1772536406891811000,3.02581103515625,0.016014032065868378,-0.021881526336073875,-0.005047086160629988
1772536406901859300,3.035859375,0.018648475408554077,-0.015898607671260834,-0.0030854479409754276
1772536406911907000,3.045906982421875,0.021595530211925507,-0.0013952977024018764,0.009746460244059563
1772536406921955000,3.055955078125,0.019977832213044167,0.012748238630592823,0.015612301416695118
1772536406932004000,3.066004150390625,0.021192766726017,0.0071047330275177956,0.01715214177966118
1772536406942052000,3.076052001953125,0.018475297838449478,-0.0037005790509283543,0.01650923117995262
1772536406952100400,3.086100341796875,0.021470289677381516,-0.011502043344080448,0.013701993972063065
1772536406962148000,3.096148193359375,0.019354943186044693,-0.019287316128611565,0.011413919739425182
1772536406972196000,3.106196044921875,0.01567045971751213,-0.015755698084831238,0.016377251595258713
1772536406982245000,3.1162451171875,0.010104959830641747,0.0009099463932216167,0.03066674992442131
1772536406992293000,3.126293212890625,0.006603168789297342,0.01766389235854149,0.037911344319581985
1772536407002341400,3.13634130859375,0.0032617743127048016,0.015438870526850224,0.03407885134220123
1772536407012389000,3.14638916015625,0.009900501929223537,0.0032578380778431892,0.03163673356175423
1772536407022437000,3.15643701171875,0.004341443534940481,0.000002542976289987564,0.027432095259428024
1772536407032486100,3.166486083984375,0.0026404825039207935,-0.0007604528218507767,0.022108169272542
1772536407042534100,3.1765341796875,-0.00020161643624305725,-0.0022731549106538296,0.01728837378323078
1772536407052582100,3.18658203125,-0.008085904642939568,-0.00520849134773016,0.008512192405760288
1772536407062630100,3.196630126953125,-0.007911956869065762,-0.007902733981609344,0.0026692855171859264
1772536407072678400,3.206678466796875,-0.0032921703532338142,-0.004221979528665543,0.0035063172690570354
1772536407082727400,3.2167275390625,0.002170095220208168,0.005012485198676586,0.006710129790008068
1772536407092775400,3.226775390625,0.006634085904806852,0.01630348712205887,0.014432232826948166
1772536407102823400,3.236823486328125,0.005595236085355282,0.02147412672638893,0.014674527570605278
1772536407112871400,3.246871337890625,0.005232779774814844,0.020095139741897583,0.005893286783248186
1772536407122919700,3.256919677734375,0.002879704814404249,0.012254253029823303,-0.003998052328824997
1772536407132968400,3.266968505859375,0.0025148517452180386,-0.004182245582342148,-0.016905594617128372
1772536407143016700,3.2770166015625,0.0017998218536376953,-0.015004613436758518,-0.0248118806630373
1772536407153064400,3.287064453125,0.00014360155910253525,-0.018683770671486855,-0.028106210753321648
1772536407163112400,3.297112548828125,0.0009510722011327744,-0.010643953457474709,-0.020371058955788612
1772536407173161500,3.307161376953125,-0.002136596478521824,0.00048353197053074837,-0.0033366824500262737
1772536407183209500,3.31720947265625,-0.005820889957249165,0.0144866444170475,0.006854239851236343
1772536407193257500,3.327257568359375,-0.0066507309675216675,0.01894530840218067,0.010512890294194221
1772536407203305500,3.337305419921875,-0.009761538356542587,0.015444466844201088,0.012165874242782593
1772536407213353500,3.347353515625,-0.008236344903707504,0.013026315718889236,0.006024092435836792
1772536407223402500,3.357402587890625,-0.008212555199861526,0.0027153906412422657,-0.002588912844657898
1772536407233450500,3.367450439453125,-0.0035027554258704185,-0.0011794823221862316,-0.011609838344156742
1772536407243498500,3.37749853515625,-0.005988459102809429,-0.007564961910247803,-0.015243151225149632
1772536407253546500,3.38754638671875,-0.002798791043460369,-0.012340808287262917,-0.01150007825344801
1772536407263594500,3.397594482421875,-0.005181727930903435,-0.009534530341625214,-0.007203919813036919
1772536407273643500,3.4076435546875,-0.00906781293451786,0.00003926781937479973,0.004924914799630642
1772536407283691500,3.41769140625,-0.005579540506005287,0.008011234924197197,0.015337273478507996
1772536407293739500,3.427739501953125,-0.0052567655220627785,0.00790604017674923,0.015440337359905243
1772536407303787500,3.43778759765625,-0.00040978100150823593,0.0010211560875177383,0.009531422518193722
1772536407313835300,3.447835205078125,0.0016786702908575535,-0.003439372405409813,0.014603146351873875
1772536407323884500,3.457884521484375,0.002730763517320156,-0.0005332850851118565,0.016959747299551964
1772536407333932300,3.467932373046875,-0.0006189607083797455,0.007832769304513931,0.018652984872460365
1772536407343980500,3.47798046875,0.00003885943442583084,0.01741454005241394,0.024622322991490364
1772536407354028500,3.488028564453125,-0.0011707479134202003,0.020350411534309387,0.027031950652599335
1772536407364076300,3.498076171875,-0.004937032237648964,0.013411946594715118,0.01766645908355713
1772536407374125600,3.50812548828125,-0.002363353967666626,0.0031012529507279396,0.008593602105975151
1772536407384173300,3.51817333984375,-0.0002415413036942482,-0.006617113947868347,0.002626980422064662
1772536407394221600,3.5282216796875,-0.0007054638117551804,-0.007481575943529606,-0.008654436096549034
1772536407404269600,3.53826953125,0.0005357852205634117,-0.005852630361914635,-0.015211619436740875
1772536407414317300,3.5483173828125,0.00010169018059968948,-0.002476274501532316,-0.02053367905318737
1772536407424366600,3.55836669921875,-0.001962476409971714,-0.0011176862753927708,-0.01993532106280327
1772536407434414300,3.568414306640625,-0.003116956911981106,0.003455493599176407,-0.01771371066570282
1772536407444462600,3.578462646484375,-0.005437763407826424,0.012089287862181664,-0.012201781384646893
1772536407454510300,3.58851025390625,-0.0018749870359897614,0.017291773110628128,-0.00752420537173748
1772536407464559600,3.5985595703125,-0.006047599948942661,0.019561532884836197,-0.0025768678169697523
1772536407474607400,3.608607421875,-0.0018304847180843353,0.015953747555613518,-0.00384826073423028
1772536407484655400,3.6186552734375,-0.002366418018937111,0.006012732163071632,-0.005359506234526634
1772536407494703600,3.62870361328125,-0.002077731303870678,-0.005697719752788544,-0.0044881198555231094
1772536407504751400,3.63875146484375,0.00034149736166000366,-0.008588328026235104,-0.002615788020193577
1772536407514800600,3.648800537109375,-0.00021750014275312424,-0.007741975598037243,-0.004223272204399109
1772536407524848400,3.658848388671875,0.002121345605701208,-0.013383019715547562,0.0012718259822577238
1772536407534896400,3.668896484375,0.004097410943359137,-0.011320401914417744,0.0044276718981564045
1772536407544944600,3.678944580078125,0.006515135057270527,-0.0064204842783510685,0.013548367656767368
1772536407554992400,3.688992431640625,0.009109586477279663,0.004007656127214432,0.016807010397315025
1772536407565041700,3.699041748046875,0.007972446270287037,0.0031838510185480118,0.025144539773464203
1772536407575089400,3.70908935546875,0.008945032954216003,-0.0014335373416543007,0.024148249998688698
1772536407585137400,3.719137451171875,0.012010478414595127,-0.004579165019094944,0.02362186647951603
1772536407595185400,3.729185302734375,0.012029653415083885,0.0011937692761421204,0.024746518582105637
1772536407605233400,3.7392333984375,0.008998540230095387,0.0019607380963861942,0.02011585235595703
1772536407615282400,3.749282470703125,0.007715695071965456,-0.006213301792740822,0.015555454418063164
1772536407625330400,3.759330322265625,0.006616263184696436,-0.011648319661617279,0.01193203404545784
1772536407635378400,3.76937841796875,0.0010467944666743279,-0.004484415985643864,0.006307171657681465
1772536407645426400,3.779426513671875,0.0038432367146015167,-0.005197708960622549,0.005019943229854107
1772536407655474400,3.789474365234375,0.004514885600656271,-0.005934339482337236,0.004014866426587105
1772536407665523500,3.7995234375,0.0025737364776432514,0.006705209147185087,0.005796628538519144
1772536407675571500,3.809571533203125,-0.001819147728383541,0.012924224138259888,0.005602484103292227
1772536407685619500,3.819619384765625,-0.004497017711400986,0.0030280770733952522,-0.0014322033384814858
1772536407695667500,3.82966748046875,-0.0031409356743097305,-0.00010752864181995392,-0.003915867302566767
1772536407705715500,3.839715576171875,-0.005157130770385265,-0.0001964503899216652,-0.008094312623143196
1772536407715764500,3.849764404296875,-0.0001551816239953041,-0.005900142714381218,-0.01106400415301323
1772536407725812500,3.8598125,-0.0007456997409462929,-0.001392447855323553,-0.007581822108477354
1772536407735860200,3.869860107421875,-0.000260205939412117,0.0034614293836057186,-0.011981097981333733
1772536407745908500,3.879908447265625,-0.0027229273691773415,0.000861095730215311,-0.01685979589819908
1772536407755956500,3.88995654296875,-0.00990627147257328,-0.0055640460923314095,-0.021931253373622894
1772536407766005500,3.900005615234375,-0.007939551956951618,-0.01124870777130127,-0.02015767991542816
1772536407776053500,3.910053466796875,-0.0071544526144862175,-0.0017995457164943218,-0.012393233366310596
1772536407786101500,3.9201015625,-0.004304633475840092,0.006281096953898668,-0.0027343216352164745
1772536407796149500,3.9301494140625,-0.006749947555363178,0.0051023815758526325,0.005898580886423588
1772536407806197500,3.940197509765625,-0.0023566465824842453,-0.0020832717418670654,0.013200688175857067
1772536407816246500,3.95024658203125,0.00004818849265575409,-0.011290352791547775,0.0166124626994133
1772536407826294500,3.96029443359375,0.0033725155517458916,-0.016212962567806244,0.01799485832452774
1772536407836342500,3.970342529296875,0.003757075872272253,-0.0021123234182596207,0.026805393397808075
1772536407846390500,3.980390625,0.00477476604282856,0.018688052892684937,0.029946377500891685
1772536407856439300,3.990439208984375,0.01175730861723423,0.015540728345513344,0.02846459485590458
1772536407866487600,4.000487548828125,0.010751425288617611,0.005348024889826775,0.02116420678794384
1772536407876535300,4.010535400390625,0.004848795011639595,-0.004113920032978058,0.006829744204878807
1772536407886583600,4.02058349609375,0.0033026658929884434,-0.016681941226124763,-0.011881723999977112
1772536407896631600,4.030631591796875,0.0032525984570384026,-0.023594174534082413,-0.01511719822883606
1772536407906680300,4.040680419921875,-0.003430655226111412,-0.0118353720754385,-0.013656804338097572
1772536407916728600,4.050728515625,-0.006714066490530968,0.001992559526115656,-0.010719604790210724
1772536407926776300,4.0607763671875,-0.005693739280104637,0.00521421805024147,-0.008859598077833652
1772536407936824600,4.070824462890625,-0.007780059240758419,-0.0017848354764282703,-0.008557062596082687
1772536407946872600,4.08087255859375,-0.007658936083316803,0.0009080516174435616,-0.0017727379454299808
1772536407956921600,4.090921630859375,-0.0077516138553619385,0.010756155475974083,0.0036782200913876295
1772536407966969600,4.100969482421875,-0.004969937726855278,0.0100924763828516,0.007730213925242424
1772536407977017300,4.111017333984375,-0.0008721314370632172,0.010535627603530884,0.016463784500956535
1772536407987065600,4.121065673828125,0.0027910727076232433,0.016751648858189583,0.018717462196946144
1772536407997113300,4.13111328125,0.004319461062550545,0.019119732081890106,0.01682368852198124
1772536408007162600,4.14116259765625,0.0061884671449661255,0.0037128133699297905,0.002123040845617652
1772536408017210400,4.15121044921875,0.006747198291122913,-0.013449129648506641,-0.0028783755842596292
1772536408027258400,4.16125830078125,0.007601950317621231,-0.015226957388222218,-0.012070421129465103
1772536408037306600,4.171306640625,0.002754996996372938,-0.0029300772584974766,-0.012083204463124275
1772536408047354400,4.181354248046875,-0.006652713753283024,-0.0024024853482842445,-0.009713561274111271
1772536408057403600,4.191403564453125,-0.006621554493904114,0.004473529756069183,-0.005858901888132095
1772536408067451400,4.201451416015625,-0.004815470427274704,0.0074841841123998165,0.002279657870531082
1772536408077499400,4.21149951171875,-0.0016063610091805458,0.014355938881635666,0.0005725717637687922
1772536408087548000,4.2215478515625,-0.004843548871576786,0.012529052793979645,0.01076206099241972
1772536408097596000,4.231595947265625,-0.0038898708298802376,0.01358872465789318,0.007846965454518795
1772536408107645000,4.24164501953125,-0.004436212591826916,0.015035765245556831,0.0063141873106360435
1772536408117693000,4.25169287109375,-0.005819458514451981,0.010405061766505241,0.00506143644452095
1772536408127741000,4.261740966796875,-0.005998690612614155,0.008266817778348923,0.000921422615647316
1772536408137789000,4.271788818359375,-0.003485465422272682,0.0010712239891290665,-0.0047617629170417786
1772536408147838000,4.281837890625,-0.0026422161608934402,-0.0074708848260343075,-0.006981469690799713
1772536408157886000,4.291885986328125,0.004925688728690147,-0.004754194058477879,-0.006746046245098114
1772536408167934000,4.301933837890625,0.007074934896081686,-0.00038205087184906006,-0.000496883993037045
1772536408177982000,4.31198193359375,0.0055641233921051025,0.004814841318875551,0.003685344010591507
1772536408188030000,4.322030029296875,0.004024408757686615,0.004486115649342537,0.008619662374258041
1772536408198078000,4.332077880859375,0.0014944057911634445,0.0030983425676822662,0.008280642330646515
1772536408208127000,4.342126953125,-0.002264161594212055,0.001986886840313673,0.007153508719056845
1772536408218175000,4.352175048828125,-0.0029541868716478348,-0.0013143676333129406,0.007108235266059637
1772536408228222700,4.36222265625,-0.003150900825858116,-0.001918125431984663,0.005470694974064827
1772536408238271000,4.37227099609375,-0.0032435785979032516,-0.0016909576952457428,0.006934634409844875
1772536408248319700,4.38231982421875,-0.0033929822966456413,-0.0005737617611885071,0.009819370694458485
1772536408258368000,4.392367919921875,-0.0021120011806488037,0.001869688741862774,0.013007973320782185
1772536408268416000,4.402416015625,-0.004277202300727367,0.009388472884893417,0.016582384705543518
1772536408278464000,4.412464111328125,-0.003609015606343746,0.014905476942658424,0.014218563213944435
1772536408288512000,4.422511962890625,-0.00037027616053819656,0.009070755913853645,0.007858309894800186
1772536408298560800,4.432560791015625,0.00016448646783828735,0.003965210169553757,0.00017535663209855556
1772536408308609000,4.442609130859375,0.0004152348265051842,-0.002896273508667946,-0.009038107469677925
1772536408318657000,4.452656982421875,-0.0021451283246278763,-0.0009172786958515644,-0.011489015072584152
1772536408328705000,4.462705078125,-0.005496431142091751,0.0006123743951320648,-0.013230212032794952
1772536408338753000,4.4727529296875,-0.003945938311517239,0.001063513569533825,-0.01083603035658598
1772536408348801800,4.4828017578125,-0.0026939241215586662,0.0012969113886356354,-0.010238203220069408
1772536408358850000,4.49285009765625,0.003564770333468914,-0.00009725335985422134,-0.004073518328368664
1772536408368897800,4.502897705078125,0.006763588171452284,-0.0012723123654723167,0.003472700249403715
1772536408378946000,4.512946044921875,0.008718082681298256,0.0028806207701563835,0.00875454768538475
1772536408388994000,4.522994140625,0.00051164161413908,0.007743587717413902,0.007829288952052593
1772536408399042800,4.533042724609375,0.001606733538210392,0.014252619817852974,0.004397805780172348
1772536408409091000,4.543091064453125,-0.0008016545325517654,0.00874388962984085,-0.002716866321861744
1772536408419138800,4.553138916015625,-0.0035020997747778893,0.0014359094202518463,-0.011235786601901054
1772536408429187000,4.56318701171875,-0.0068693095818161964,-0.005817228928208351,-0.01384964119642973
1772536408439235000,4.573235107421875,-0.007958542555570602,-0.0067243012599647045,-0.015187346376478672
1772536408449284000,4.5832841796875,-0.014511458575725555,-0.0033571599051356316,-0.010285052470862865
1772536408459332000,4.59333203125,-0.018646283075213432,0.0021257558837532997,-0.006540381349623203
1772536408469379800,4.6033798828125,-0.011407521553337574,0.000886252149939537,-0.001218343386426568
1772536408479428000,4.613427978515625,-0.007524632848799229,0.006157979369163513,0.0021100754383951426
1772536408489476900,4.623476806640625,-0.005293179303407669,0.01556134782731533,0.005989372730255127
1772536408499525000,4.633525146484375,-0.0007413038983941078,0.020281799137592316,0.010980669409036636
1772536408509572900,4.64357275390625,0.0009482637979090214,0.014590730890631676,0.009228522889316082
1772536408519620900,4.653620849609375,0.0019898260943591595,0.004906412214040756,0.006219150498509407
1772536408529669000,4.663669189453125,0.0005036834627389908,-0.0018744990229606628,-0.0020733019337058067
1772536408539718000,4.6737177734375,0.001559627242386341,-0.009129215963184834,-0.0032565444707870483
1772536408549766100,4.68376611328125,-0.001195000484585762,-0.010895068757236004,-0.0025902362540364265
1772536408559814000,4.69381396484375,0.0031512780115008354,-0.007377831730991602,-0.000018421560525894165
1772536408569862000,4.70386181640625,0.004891067743301392,-0.003693456994369626,0.003914054483175278
1772536408579910100,4.71391015625,0.005865251645445824,0.0003172634169459343,0.007856864482164383
1772536408589959000,4.723958984375,0.006686802487820387,0.00005449168384075165,0.00937715731561184
1772536408600007200,4.734007080078125,0.005420736037194729,-0.00021342234686017036,0.01635437272489071
1772536408610055000,4.744054931640625,-0.0009184665977954865,-0.011634383350610733,0.014136584475636482
1772536408620103000,4.75410302734375,-0.005616016685962677,-0.03396019712090492,0.003890071529895067
1772536408630151000,4.76415087890625,0.0060750884003937244,-0.004013500642031431,0.007018524222075939
1772536408640200000,4.774199951171875,0.0034015411511063576,0.01896318793296814,0.007089097984135151
1772536408650248000,4.784248046875,-0.002415647730231285,0.008964753709733486,0.0012416413519531488
1772536408660296000,4.7942958984375,0.0017860219813883305,-0.006663740612566471,-0.005802685860544443
1772536408670344000,4.804343994140625,0.003319750539958477,-0.010992766357958317,-0.008269724436104298
1772536408680392000,4.814391845703125,0.0008249012753367424,-0.00857621431350708,-0.010289199650287628
1772536408690441000,4.82444091796875,0.00003557465970516205,-0.012910865247249603,-0.00495545007288456
1772536408700489000,4.834489013671875,-0.005095537751913071,-0.016541818156838417,-0.005396735854446888
1772536408710537000,4.844536865234375,-0.0036528492346405983,0.005189115647226572,0.007167326286435127
1772536408720585000,4.8545849609375,-0.0020200656726956367,0.010678688064217567,0.01058655884116888
1772536408730633000,4.864633056640625,-0.0038069598376750946,0.010585781186819077,0.019170915707945824
1772536408740682000,4.874681884765625,-0.0022197160869836807,0.0129578597843647,0.02234220691025257
1772536408750730000,4.88472998046875,-0.0013259807601571083,0.01718941517174244,0.023593513295054436
1772536408760778000,4.894778076171875,-0.001637304201722145,0.010531513020396233,0.022617198526859283
1772536408770826000,4.904825927734375,0.0035778176970779896,0.0020812046714127064,0.015642525628209114
1772536408780874000,4.9148740234375,0.005639104638248682,-0.0005683745257556438,0.010823269374668598
1772536408790923000,4.924923095703125,0.006660379469394684,-0.005150985904037952,0.007226190529763699
1772536408800971000,4.934970947265625,0.01033927034586668,-0.010854678228497505,0.0008476530201733112
1772536408811019000,4.94501904296875,0.008485269732773304,-0.00548283476382494,0.003540945937857032
1772536408821066800,4.955066650390625,0.00912069994956255,0.002858718391507864,0.005878935568034649
1772536408831116000,4.965115966796875,0.004429449327290058,-0.00031069060787558556,0.009601197205483913
1772536408841163800,4.975163818359375,0.0025165006518363953,0.003612412139773369,0.006142816506326199
1772536408851212000,4.9852119140625,0.002685516607016325,0.005486230831593275,0.010960969142615795
1772536408861260000,4.995260009765625,-0.0016413209959864616,0.005297412630170584,0.012646217830479145
1772536408871307800,5.005307861328125,-0.001319139264523983,0.0038139261305332184,0.008779892697930336
1772536408881357000,5.015357177734375,-0.005208952352404594,-0.0011073285713791847,0.007975618354976177
1772536408891404800,5.02540478515625,-0.007300904951989651,-0.0025636758655309677,0.007571396417915821
1772536408901453000,5.035453125,-0.006574660539627075,-0.0016392925754189491,0.003793969051912427
1772536408911501000,5.0455009765625,-0.005284404382109642,0.0032208478078246117,0.0037431486416608095
1772536408921548800,5.055548828125,-0.008058086037635803,0.005293852649629116,0.006149314343929291
1772536408931597800,5.065597900390625,-0.005732087418437004,0.001340400893241167,0.007696215063333511
1772536408941645800,5.075645751953125,-0.002290484495460987,0.000041044317185878754,0.004856220446527004
1772536408951694000,5.085694091796875,-0.00012077856808900833,-0.00043014856055378914,0.005602278746664524
1772536408961741800,5.095741943359375,0.001663273200392723,0.0044993627816438675,0.008011640049517155
1772536408971790000,5.1057900390625,0.0024082697927951813,0.0008144741877913475,0.007203766144812107
1772536408981838800,5.1158388671875,-0.0003052251413464546,-0.00017888471484184265,0.0091446777805686
1772536408991886800,5.125886962890625,-0.001615367829799652,-0.0006945314817130566,0.0034912137780338526
1772536409001935000,5.13593505859375,-0.0000036228448152542114,-0.0060738506726920605,0.0021644269581884146
1772536409011982800,5.14598291015625,0.001040278933942318,-0.008749635890126228,-0.0016760651487857103
1772536409022031000,5.156031005859375,0.007522945757955313,-0.0054068355821073055,0.007639405317604542
1772536409032080000,5.166079833984375,0.0037294263020157814,0.007227021269500256,0.009186687879264355
1772536409042128000,5.1761279296875,0.003794141113758087,0.011634020134806633,0.010252218693494797
1772536409052176000,5.18617578125,0.002441740594804287,0.009252185001969337,0.010748928412795067
1772536409062224000,5.196223876953125,-0.004923763684928417,0.01239604689180851,0.006721695885062218
1772536409072272100,5.206272216796875,-0.004088016226887703,-0.0013132034800946712,-0.005559767596423626
1772536409082320600,5.216320556640625,-0.006558897905051708,-0.015340871177613735,-0.01458282396197319
1772536409092368600,5.22636865234375,-0.0018986798822879791,-0.019070491194725037,-0.01993812806904316
1772536409102416600,5.236416748046875,-0.0033937785774469376,-0.018016410991549492,-0.01892532780766487
1772536409112464600,5.246464599609375,-0.0051353247836232185,-0.00969372596591711,-0.004656675271689892
1772536409122512600,5.2565126953125,-0.008013403043150902,0.011487193405628204,0.013657882809638977
1772536409132561700,5.266561767578125,-0.005257616750895977,0.02297195792198181,0.018805690109729767
1772536409142609700,5.276609619140625,-0.0037081893533468246,0.020535698160529137,0.016071954742074013
1772536409152657400,5.286657470703125,-0.0032359398901462555,0.009543284773826599,0.008247915655374527
1772536409162705700,5.29670556640625,0.002459762617945671,-0.0025341506116092205,-0.005784280132502317
1772536409172754400,5.30675439453125,0.0018680472858250141,-0.014296893030405045,-0.01317325048148632
1772536409182802700,5.316802734375,0.0018145176582038403,-0.01901920884847641,-0.015176214277744293
1772536409192850700,5.3268505859375,-0.0019779223948717117,-0.008120468817651272,-0.004728670697659254
1772536409202898400,5.3368984375,0.0011158715933561325,0.005698674358427525,0.005288809537887573
1772536409212946700,5.34694677734375,-0.001463400200009346,0.01707916148006916,0.007603096775710583
1772536409222995500,5.356995361328125,-0.002493510954082012,0.010294225066900253,0.009492076933383942
1772536409233043700,5.367043701171875,0.0017638783901929855,0.0016211792826652527,0.0021945503540337086
1772536409243091500,5.377091552734375,0.0005143238231539726,0.0006680339574813843,0.0013359473086893559
1772536409253139500,5.387139404296875,0.005758876912295818,0.002973055001348257,0.0038093775510787964
1772536409263187700,5.397187744140625,0.0057479580864310265,-0.0072044809348881245,0.008361784741282463
1772536409273236500,5.407236572265625,0.0047438666224479675,-0.006619155872613192,0.014028535224497318
1772536409283284700,5.41728466796875,0.008922366425395012,0.0058148764073848724,0.02429741621017456
1772536409293332500,5.42733251953125,0.009071871638298035,0.01878603920340538,0.028700854629278183
1772536409303380500,5.43738037109375,0.008338437415659428,0.016037655994296074,0.024181736633181572
1772536409313428700,5.4474287109375,0.01207792479544878,0.0041968077421188354,0.015432577580213547
1772536409323477500,5.4574775390625,0.010867252014577389,-0.007536546792834997,0.0031743124127388
1772536409333525800,5.46752587890625,0.007224364206194878,-0.011591365560889244,-0.011148752644658089
1772536409343573500,5.477573486328125,0.007209983188658953,-0.010980436578392982,-0.018414389342069626
1772536409353621500,5.48762158203125,0.005951059516519308,-0.010039927437901497,-0.019087720662355423
1772536409363669800,5.497669677734375,0.003011994995176792,-0.0016408502124249935,-0.018551893532276154
1772536409373718500,5.507718505859375,0.0013598771765828133,0.004791139625012875,-0.009247454814612865
1772536409383766500,5.5177666015625,-0.002265484072268009,0.016035005450248718,-0.0027493417728692293
1772536409393814500,5.527814453125,-0.0008311653509736061,0.016823504120111465,-0.0007963769603520632
1772536409403862500,5.537862548828125,-0.0013701887801289558,0.009167184121906757,-0.004831066355109215
1772536409413910500,5.54791064453125,-0.003208381123840809,0.0038337847217917442,-0.009722326882183552
1772536409423959600,5.55795947265625,-0.003117034211754799,0.0016651730984449387,-0.01326513011008501
1772536409434007600,5.568007568359375,-0.00484397541731596,-0.008225791156291962,-0.020344559103250504
1772536409444055600,5.5780556640625,-0.0004785219207406044,-0.01965421438217163,-0.021300632506608963
1772536409454103600,5.588103515625,0.00008420459926128387,-0.011334232985973358,-0.01111297681927681
1772536409464151600,5.598151611328125,0.00035185180604457855,0.004605318419635296,-0.0016864514909684658
1772536409474200600,5.60820068359375,0.0026800683699548244,0.008793178014457226,0.005850219167768955
1772536409484248600,5.61824853515625,0.0036521218717098236,0.0020820116624236107,0.015527348034083843
1772536409494296600,5.628296630859375,0.00448571378365159,-0.0019937590695917606,0.012296110391616821
1772536409504344600,5.638344482421875,0.0044630770571529865,-0.0033825975842773914,0.009964246302843094
1772536409514393600,5.6483935546875,0.0035125436261296272,-0.0034160050563514233,0.007371042855083942
1772536409524441600,5.658441650390625,0.0008587036281824112,-0.006127102766185999,0.012238768860697746
1772536409534489600,5.668489501953125,0.0011748210527002811,-0.0014897403307259083,0.01881384663283825
1772536409544537600,5.67853759765625,0.0006475150585174561,0.0027944869361817837,0.021664228290319443
1772536409554585600,5.688585693359375,0.0022774599492549896,0.007333559915423393,0.019986741244792938
1772536409564634600,5.698634521484375,0.004723573103547096,0.0054946476593613625,0.018386445939540863
1772536409574682400,5.708682373046875,-0.0023544207215309143,-0.0010736864060163498,0.014607141725718975
1772536409584730600,5.718730712890625,-0.004814649000763893,-0.003537110285833478,0.011555424891412258
1772536409594778600,5.728778564453125,-0.006483118981122971,0.00023685535416007042,0.007401692681014538
1772536409604826600,5.73882666015625,-0.008064504712820053,0.0017255619168281555,-0.000556898070499301
1772536409614875600,5.748875732421875,-0.007098290137946606,-0.004816080443561077,-0.005486851092427969
1772536409624923400,5.75892333984375,-0.0005106944590806961,-0.00789975468069315,-0.0021230122074484825
1772536409634971600,5.7689716796875,-0.004438295029103756,0.0016588354483246803,-0.0035310324747115374
1772536409645019600,5.77901953125,-0.004161592572927475,0.008765214122831821,-0.0014228741638362408
1772536409655067600,5.789067626953125,-0.00423958245664835,0.006127696484327316,-0.0021772796753793955
1772536409665116700,5.79911669921875,-0.006624976173043251,-0.005772105883806944,-0.005989594850689173
1772536409675164700,5.80916455078125,-0.0032347505912184715,-0.0033465144224464893,-0.004188369959592819
1772536409685212700,5.819212646484375,-0.0011729318648576736,0.0034051313996315002,0.0036402586847543716
1772536409695260400,5.829260498046875,0.0007341918535530567,0.012023518793284893,0.0038548638112843037
1772536409705308700,5.83930859375,-0.000453311949968338,0.013578805141150951,0.003030083142220974
1772536409715357400,5.849357421875,-0.0017650946974754333,0.010037900879979134,-0.003234813455492258
1772536409725405700,5.85940576171875,-0.002490806393325329,-0.0014184857718646526,-0.007304656319320202
1772536409735453700,5.86945361328125,-0.0025286637246608734,-0.014817245304584503,-0.01322774589061737
1772536409745501400,5.87950146484375,-0.0018570153042674065,-0.016929663717746735,-0.01640969142317772
1772536409755549700,5.8895498046875,-0.004029595293104649,-0.016759566962718964,-0.01341033261269331
1772536409765598500,5.899598388671875,-0.006546815857291222,-0.0064336927607655525,-0.002831191523000598
1772536409775646700,5.909646728515625,-0.005494300276041031,0.010892974212765694,0.012129472568631172
1772536409785694700,5.91969482421875,-0.005966745316982269,0.01604965329170227,0.019737858325242996
1772536409795742500,5.929742431640625,-0.0009945360943675041,0.009950508363544941,0.017990611493587494
1772536409805791700,5.939791748046875,0.0011181491427123547,0.005600768141448498,0.01676289550960064
1772536409815839500,5.949839599609375,0.003547482192516327,0.007724648341536522,0.009701658971607685
1772536409825887700,5.9598876953125,0.004497165326029062,0.0005879094824194908,0.002477302448824048
1772536409835935500,5.969935546875,0.0035426425747573376,-0.01261803600937128,-0.004602931905537844
1772536409845983500,5.9799833984375,-0.0015996545553207397,-0.015276136808097363,-0.007124412804841995
1772536409856032500,5.990032470703125,-0.002523748204112053,-0.0021851714700460434,-0.0037632600869983435
1772536409866080500,6.00008056640625,-0.006074541248381138,0.0004612114280462265,-0.005441317800432444
1772536409876128800,6.010128662109375,-0.002227666787803173,-0.008429856970906258,-0.0009074996924027801
1772536409886176500,6.020176513671875,0.0005036704242229462,-0.004357084631919861,0.005044665187597275
1772536409896224500,6.030224609375,0.002591355238109827,0.010770904831588268,0.014889939688146114
1772536409906273500,6.0402734375,0.0006384588778018951,0.015123042277991772,0.01586093008518219
1772536409916321500,6.050321533203125,-0.0025000376626849174,0.000444111879914999,0.016651581972837448
1772536409926369800,6.060369873046875,0.003748004324734211,-0.007983993738889694,0.012238457798957825
1772536409936417500,6.07041748046875,0.0018460280261933804,-0.004065035376697779,0.008884555660188198
1772536409946465500,6.080465576171875,0.0023304568603634834,0.00355320330709219,0.01250965055078268
1772536409956514600,6.0905146484375,0.007856001146137714,0.009299971163272858,0.016238318756222725
1772536409966562600,6.1005625,0.0070197684690356255,0.014156511053442955,0.01319805532693863
1772536409976610600,6.110610595703125,0.008484404534101486,0.006839817389845848,0.005344240926206112
1772536409986658600,6.120658447265625,0.005530159920454025,-0.011529335752129555,-0.005929718725383282
1772536409996707600,6.13070751953125,0.004781487863510847,-0.01741396263241768,-0.01563076302409172
1772536410006755600,6.140755615234375,0.003448575735092163,-0.014820843935012817,-0.01604541763663292
1772536410016803600,6.150803466796875,0.0004630358889698982,-0.004088681191205978,-0.01585179753601551
1772536410026851600,6.1608515625,0.001079025212675333,-0.003920368850231171,-0.010082591325044632
1772536410036899600,6.170899658203125,-0.0006005298346281052,0.002300434745848179,-0.0015541987959295511
1772536410046948600,6.180948486328125,-0.001196545548737049,0.013540305197238922,0.003751084441319108
1772536410056996600,6.19099658203125,-0.0033263759687542915,0.017998244613409042,0.00795686338096857
1772536410067044600,6.201044677734375,-0.0033873626962304115,0.011579761281609535,0.00419275090098381
1772536410077092600,6.211092529296875,-0.0016150781884789467,-0.0003513190895318985,-0.00017411797307431698
1772536410087140900,6.221140869140625,0.0007878923788666725,-0.0024448297917842865,-0.001209554960951209
1772536410097189600,6.231189697265625,-0.001132296398282051,-0.003567204112187028,-0.006691755726933479
1772536410107238000,6.24123779296875,-0.00010404922068119049,-0.004011419601738453,-0.005857653915882111
1772536410117285600,6.25128564453125,-0.0006768461316823959,-0.010933389887213707,-0.005861830897629261
1772536410127333600,6.261333740234375,-0.0018694093450903893,-0.0035154204815626144,0.0012820984702557325
1772536410137382000,6.2713818359375,-0.0024296166375279427,-0.003515786025673151,0.012729574926197529
1772536410147430700,6.2814306640625,-0.0001430269330739975,-0.0031264317221939564,0.014499245211482048
1772536410157479000,6.29147900390625,-0.0025642039254307747,-0.0019128085114061832,0.015835583209991455
1772536410167526700,6.301526611328125,0.002624433021992445,-0.0023144129663705826,0.01705797389149666
1772536410177574700,6.31157470703125,-0.000683637335896492,-0.0009062108583748341,0.021188152953982353
1772536410187623000,6.321622802734375,0.0001685740426182747,-0.006257033906877041,0.01635638065636158
1772536410197671700,6.331671630859375,-0.0031680678948760033,-0.007534951902925968,0.012249475345015526
1772536410207719700,6.3417197265625,-0.0012178346514701843,-0.008793561719357967,0.006771884858608246
1772536410217767700,6.351767578125,-0.004380964674055576,-0.005430716555565596,0.007464687339961529
1772536410227815700,6.361815673828125,-0.0059285275638103485,-0.000248737633228302,0.004440934397280216
1772536410237864700,6.37186474609375,-0.006733285263180733,-0.00016286643221974373,0.006843722425401211
1772536410247912700,6.38191259765625,-0.007547413930296898,0.001070444006472826,0.004029826261103153
1772536410257960700,6.391960693359375,-0.008339126594364643,0.0007219654507935047,-0.002272856654599309
1772536410268008700,6.4020087890625,-0.006956680677831173,-0.013917431235313416,-0.004442267585545778
1772536410278056700,6.412056640625,-0.005135838873684406,-0.013716232031583786,0.002366058062762022
1772536410288105700,6.422105712890625,-0.0037677735090255737,-0.00353922788053751,0.006868930533528328
1772536410298153700,6.43215380859375,-0.0017300322651863098,0.00512811541557312,0.00912967324256897
1772536410308201700,6.44220166015625,-0.002621925435960293,0.0013618730008602142,0.01026950590312481
1772536410318249700,6.452249755859375,-0.0033095329999923706,-0.0006094668060541153,0.007650264538824558
1772536410328297700,6.462297607421875,0.0010625789873301983,-0.0040289657190442085,0.0036549896467477083
1772536410338346800,6.4723466796875,0.0048865764401853085,-0.011606909334659576,-0.007054219953715801
1772536410348394800,6.482394775390625,0.007189145311713219,-0.0164480023086071,-0.0054384805262088776
1772536410358442800,6.49244287109375,0.008962170220911503,-0.00526317348703742,-0.00016224058344960213
1772536410368490800,6.50249072265625,0.003818540833890438,0.007906956598162651,0.0021097019780427217
1772536410378538500,6.51253857421875,0.0018224683590233326,0.009704671800136566,-0.001817501848563552
1772536410388587800,6.522587890625,-0.007619237527251244,0.005534428171813488,-0.0042063575237989426
1772536410398635500,6.532635498046875,-0.01279914565384388,-0.004148621577769518,-0.009637539274990559
1772536410408683800,6.542683837890625,-0.013958152383565903,-0.017492391169071198,-0.015482379123568535
1772536410418731800,6.552731689453125,-0.011256692931056023,-0.02489343285560608,-0.010073581710457802
1772536410428779500,6.562779541015625,-0.009340547025203705,-0.012280436232686043,-0.0024239185731858015
1772536410438828800,6.572828857421875,-0.01176274474710226,0.0016080974601209164,0.007587885484099388
1772536410448876500,6.58287646484375,-0.012316416017711163,0.007147739175707102,0.015429830178618431
1772536410458924800,6.5929248046875,-0.01016504131257534,0.006238585337996483,0.019705060869455338
1772536410468972800,6.602972900390625,-0.007957547903060913,0.001983919180929661,0.013061541132628918
1772536410479020500,6.6130205078125,-0.002410298213362694,-0.002309274859726429,0.005337560549378395
1772536410489069800,6.62306982421875,0.0022781970910727978,0.0002801166847348213,-0.002726491540670395
1772536410499117600,6.63311767578125,0.005123401992022991,-0.0011049495078623295,-0.009353266097605228
1772536410509165800,6.643165771484375,0.00795034784823656,-0.0026746168732643127,-0.006285304203629494
1772536410519213600,6.653213623046875,0.005968582350760698,-0.0031898533925414085,-0.006115942262113094
1772536410529262800,6.663262939453125,0.007079387083649635,-0.0035821369383484125,-0.009259005077183247
1772536410539310600,6.673310546875,0.0062564704567193985,0.001251234207302332,-0.00807096902281046
1772536410549358600,6.683358642578125,0.005662319250404835,-0.0052585965022444725,-0.008146869018673897
1772536410559406800,6.69340673828125,0.004726973827928305,-0.00862895604223013,-0.008940977975726128
1772536410569454600,6.70345458984375,0.005411406047642231,-0.0031977053731679916,-0.00151555216871202
1772536410579503900,6.71350390625,0.006280950736254454,0.008576859720051289,0.0015720939263701439
1772536410589551600,6.723551513671875,0.0047304583713412285,0.010284212417900562,0.01159703079611063
1772536410599599600,6.733599609375,0.005958830006420612,0.006668064743280411,0.019086645916104317
1772536410609647900,6.74364794921875,0.00606322567909956,0.008153576403856277,0.02409418858587742
1772536410619695600,6.753695556640625,0.004256804008036852,0.008922697976231575,0.025042006745934486
1772536410629745000,6.763744873046875,0.007084548473358154,0.011629801243543625,0.023415083065629005
1772536410639792600,6.773792724609375,0.009891792200505733,0.0018868455663323402,0.015111330896615982
1772536410649840600,6.783840576171875,0.008939445950090885,-0.004868795163929462,0.00490050483494997
1772536410659888600,6.793888671875,0.010820400901138783,-0.009347564540803432,-0.002016211859881878
1772536410669936600,6.8039365234375,0.009535426273941994,-0.00987487006932497,-0.004171774256974459
1772536410679985700,6.813985595703125,0.00820278748869896,-0.00565963052213192,-0.006363958586007357
1772536410690033700,6.82403369140625,0.007913834415376186,0.0014819023199379444,-0.005579657852649689
1772536410700082000,6.83408203125,0.011773581616580486,0.0017403718084096909,-0.01023024506866932
1772536410710129700,6.844129638671875,0.010121090337634087,-0.0005201194435358047,-0.00816389825195074
1772536410720177700,6.854177734375,0.008977256715297699,-0.00029609259217977524,-0.00418551592156291
1772536410730226700,6.864226806640625,0.011061180382966995,0.004118629731237888,-0.004477931186556816
1772536410740274700,6.874274658203125,0.006186590529978275,0.006708616390824318,-0.0016787510830909014
1772536410750323000,6.884322998046875,0.005252353381365538,0.006140297278761864,-0.00036075268872082233
1772536410760370700,6.89437060546875,0.0015277438797056675,0.0015793503262102604,-0.0002741620410233736
1772536410770418700,6.904418701171875,0.0007128166034817696,-0.006755811162292957,-0.00417356239631772
1772536410780467700,6.9144677734375,-0.0005177408456802368,-0.01254974864423275,0.002374275354668498
1772536410790515700,6.924515625,0.0018269061110913754,-0.009591510519385338,0.006763963960111141
1772536410800563700,6.934563720703125,-0.002741994336247444,-0.00452411500737071,0.015589389950037003
1772536410810611700,6.94461181640625,-0.004843228496611118,-0.0073952688835561275,0.017902346327900887
1772536410820660700,6.95466064453125,-0.0029108989983797073,-0.010032659396529198,0.02382075786590576
1772536410830708700,6.964708740234375,-0.004674711264669895,-0.005901829805225134,0.027102304622530937
1772536410840756700,6.9747568359375,-0.0006162980571389198,-0.0055948360823094845,0.02519306167960167
1772536410850804700,6.9848046875,0.0021834829822182655,-0.007580222561955452,0.023471329361200333
1772536410860852700,6.994852783203125,0.00004443153738975525,-0.011495335958898067,0.02441621758043766
1772536410870901800,7.00490185546875,-0.003849642351269722,-0.01141890324652195,0.025348857045173645
1772536410880949800,7.01494970703125,-0.006720012053847313,-0.012892416678369045,0.023229382932186127
1772536410890997800,7.024997802734375,-0.006815886124968529,-0.00419320072978735,0.02608508989214897
1772536410901045800,7.035045654296875,-0.006984890438616276,0.0007280223071575165,0.025437043979763985
1772536410911093800,7.04509375,-0.004682853817939758,0.007355032488703728,0.02282847836613655
1772536410921142800,7.055142822265625,0.0028002215549349785,0.0054494235664606094,0.015265772119164467
1772536410931190800,7.065190673828125,0.005525434389710426,-0.004013053607195616,0.005317534785717726
1772536410941238500,7.075238525390625,0.006227705627679825,-0.014770926907658577,0.000027018599212169647
1772536410951286800,7.085286865234375,0.004506504628807306,-0.01443190686404705,-0.003321640193462372
1772536410961334800,7.095334716796875,0.001634692307561636,-0.009115071967244148,-0.0030938179697841406
1772536410971383800,7.1053837890625,0.000338532030582428,-0.004618857055902481,-0.005364429205656052
1772536410981431800,7.115431884765625,-0.001507362350821495,-0.0039963251911103725,-0.0019335621036589146
1772536410991479600,7.1254794921875,-0.0015920503064990044,-0.0029646167531609535,-0.005987159442156553
1772536411001527800,7.13552783203125,-0.0011657802388072014,-0.005745354108512402,-0.0052514574490487576
1772536411011575800,7.145575927734375,-0.0019902950152754784,-0.007108626421540976,-0.00295021990314126
1772536411021624800,7.155624755859375,0.0035564335994422436,-0.0025125122629106045,-0.003333350410684943
1772536411031672800,7.1656728515625,-0.0010132845491170883,0.005531033501029015,-0.002030265750363469
1772536411041720600,7.175720458984375,0.00019332300871610641,0.009673531167209148,-0.004411458969116211
1772536411051768800,7.185768798828125,-0.0032195178791880608,0.002743186429142952,-0.007692739367485046
1772536411061816600,7.195816650390625,-0.006023918278515339,-0.005249473266303539,-0.010938904248178005
1772536411071865900,7.205865966796875,-0.012463442049920559,-0.01774449273943901,-0.019022930413484573
1772536411081913600,7.21591357421875,-0.012834613211452961,-0.015575308352708817,-0.017763329669833183
1772536411091961300,7.22596142578125,-0.019427798688411713,-0.008154942654073238,-0.014729723334312439
1772536411102009300,7.23600927734375,-0.015401851385831833,-0.005071939434856176,-0.008462285622954369
1772536411112058400,7.246058349609375,-0.015280146151781082,-0.0016678869724273682,-0.005679016467183828
1772536411122106400,7.2561064453125,-0.008008651435375214,0.004333280026912689,-0.0035610045306384563
1772536411132154000,7.266154052734375,-0.004330825060606003,0.007067547179758549,0.0009645051322877407
1772536411142202400,7.276202392578125,-0.0004511317238211632,0.008647068403661251,0.0009397377725690603
1772536411152250400,7.28625048828125,-0.0005446095019578934,0.0011199098080396652,-0.0017441960517317057
1772536411162299400,7.29629931640625,-0.0024952758103609085,-0.009895753115415573,-0.007731347344815731
1772536411172347400,7.306347412109375,-0.00016607530415058136,-0.01114344410598278,-0.006102291867136955
1772536411182395100,7.31639501953125,-0.0003245389088988304,-0.013161842711269855,-0.007666495628654957
1772536411192443400,7.326443359375,-0.0020409459248185158,-0.01719733141362667,-0.007618824951350689
1772536411202491400,7.336491455078125,-0.00328797847032547,-0.012676190584897995,-0.0004895346937701106
1772536411212540400,7.34654052734375,-0.0030506914481520653,-0.004023048095405102,0.0036964218597859144
1772536411222588400,7.35658837890625,-0.005636141635477543,0.006664908025413752,0.007978305220603943
1772536411232636400,7.366636474609375,-0.0055876728147268295,0.006325088907033205,0.010195652954280376
1772536411242684400,7.376684326171875,-0.0004944195970892906,0.004812018014490604,0.009773587808012962
1772536411252733200,7.386733154296875,0.0031818076968193054,0.004569670185446739,0.012515578418970108
1772536411262781400,7.396781494140625,0.0018359404057264328,0.006757969968020916,0.015191826969385147
1772536411272829200,7.4068291015625,0.0030266395770013332,0.010264554992318153,0.012514816597104073
1772536411282877400,7.41687744140625,0.008523637428879738,0.009451306425035,0.01106248889118433
1772536411292925400,7.426925537109375,0.009608343243598938,0.006226484663784504,0.004000850487500429
1772536411302973200,7.43697314453125,0.0068356553092598915,-0.002405669540166855,-0.006166626699268818
1772536411313022500,7.4470224609375,0.0037666289135813713,-0.008311228826642036,-0.01351641770452261
1772536411323070200,7.4570703125,0.004155819769948721,-0.007637480739504099,-0.018078777939081192
1772536411333118500,7.467118408203125,0.0009112907573580742,-0.004191083833575249,-0.020611444488167763
1772536411343166500,7.47716650390625,0.001740865409374237,-0.0018325885757803917,-0.014437438920140266
1772536411353215200,7.48721533203125,0.003076707012951374,-0.004199872724711895,-0.011501036584377289
1772536411363263500,7.497263427734375,0.00392836332321167,0.0036764871329069138,-0.0030376240611076355
1772536411373311200,7.507311279296875,0.004445016849786043,0.011112830601632595,0.0014716403093189
1772536411383359500,7.517359375,0.0033735958859324455,0.012511827051639557,0.006883060093969107
1772536411393407200,7.5274072265625,-0.0014919992536306381,0.012641256675124168,0.00788733921945095
1772536411403456500,7.53745654296875,0.00015145819634199142,0.014945940114557743,0.006503156386315823
1772536411413504300,7.547504150390625,-0.000734308734536171,0.007927178405225277,-0.0013696800451725721
1772536411423552300,7.55755224609375,0.0009168386459350586,-0.0021525626070797443,-0.0040164426900446415
1772536411433600500,7.5676005859375,0.005572310648858547,-0.0027248761616647243,-0.00215089856646955
1772536411443648300,7.577648193359375,0.003731727134436369,-0.0012766984291374683,-0.001961875008419156
1772536411453697500,7.587697509765625,0.004881680011749268,-0.0020615318790078163,-0.0014998165424913168
1772536411463745300,7.597745361328125,0.006553395185619593,-0.0017900806851685047,-0.0014659265289083123
1772536411473793300,7.607793212890625,0.0028670476749539375,-0.006134495604783297,-0.0016747183399274945
1772536411483841500,7.617841552734375,0.005570900626480579,-0.0036101494915783405,0.0024231562856584787
1772536411493889300,7.62788916015625,0.005142664536833763,0.001653588842600584,0.007780903019011021
1772536411503938600,7.6379384765625,-0.00027001556009054184,0.01429178286343813,0.011653459630906582
1772536411513986300,7.647986328125,-0.0003480464220046997,0.010221940465271473,0.01727512665092945
1772536411524034300,7.658034423828125,-0.003981412388384342,0.004898880608379841,0.021974828094244003
1772536411534082300,7.668082275390625,-0.004670105874538422,0.004120704717934132,0.021518629044294357
1772536411544130300,7.67813037109375,-0.007754667662084103,0.00550982728600502,0.019107632339000702
1772536411554179300,7.688179443359375,-0.005516281351447105,0.00394522026181221,0.01699494570493698
1772536411564227300,7.698227294921875,-0.010906270705163479,-0.0050452775321900845,0.006314096041023731
1772536411574275300,7.708275390625,-0.009434075094759464,-0.00494221318513155,0.0017254690174013376
1772536411584323300,7.7183232421875,-0.008270824328064919,0.0007942942902445793,0.0064516677521169186
1772536411594372400,7.728372314453125,-0.011909501627087593,0.012867734767496586,0.00833958201110363
1772536411604420400,7.73842041015625,-0.010611848905682564,0.01290772296488285,0.004808998666703701
1772536411614468400,7.74846826171875,-0.014125358313322067,0.005938496440649033,0.0015799154061824083
1772536411624516400,7.758516357421875,-0.010893702507019043,-0.0013702637515962124,0.0015559091698378325
1772536411634564400,7.768564453125,-0.010077178478240967,0.0010865023359656334,-0.004817567765712738
1772536411644613400,7.77861328125,-0.008092056028544903,0.0012409128248691559,-0.0010346997296437621
1772536411654661400,7.788661376953125,-0.0062155937775969505,0.005092908628284931,-0.00254577724263072
1772536411664709400,7.79870947265625,-0.005833330564200878,0.01028716191649437,0.0005081230774521828
1772536411674757000,7.808757080078125,-0.0014617517590522766,0.010841365903615952,0.00026231352239847183
1772536411684805400,7.818805419921875,-0.006090262904763222,0.008074667304754257,-0.0015327262226492167
1772536411694854100,7.828854248046875,-0.008419464342296124,0.001930223312228918,-0.0028379415161907673
1772536411704902400,7.83890234375,-0.009828152135014534,-0.007235411554574966,-0.009168663993477821
1772536411714950400,7.848950439453125,-0.01130780391395092,-0.012502345256507397,-0.004789628088474274
1772536411724998100,7.858998046875,-0.014400891028344631,-0.0008089188486337662,-0.00395556353032589
1772536411735046400,7.86904638671875,-0.016791876405477524,0.006490007042884827,0.005472026765346527
1772536411745095200,7.87909521484375,-0.015722915530204773,0.008163884282112122,0.008436284959316254
1772536411755143400,7.889143310546875,-0.010828292928636074,0.009142862632870674,0.010504761710762978
1772536411765191400,7.89919140625,-0.0048056067898869514,0.008973900228738785,0.010382705368101597
1772536411775239200,7.9092392578125,-0.0032119713723659515,0.01152787171304226,0.003718411084264517
1772536411785288400,7.919288330078125,0.0001258300617337227,0.010709854774177074,-0.0015025027096271515
1772536411795336200,7.929336181640625,0.000944219995290041,0.006646403111517429,-0.00783762987703085
1772536411805384400,7.939384521484375,0.002725883387029171,0.0035701305605471134,-0.008001035079360008
1772536411815432200,7.94943212890625,-0.0004864213988184929,0.0017085806466639042,-0.007905427366495132
1772536411825480200,7.959480224609375,-0.0032756393775343895,0.0018566697835922241,-0.0044377632439136505
1772536411835529200,7.969529296875,-0.0006297891959547997,0.0019544074311852455,-0.0024526428896933794
1772536411845577200,7.9795771484375,0.001137032639235258,0.004736650735139847,0.010664415545761585
1772536411855625500,7.98962548828125,0.002062481362372637,0.007192350924015045,0.01630978286266327
1772536411865673200,7.999673095703125,0.0027473503723740578,0.006736171431839466,0.017449578270316124
1772536411875721500,8.009721435546876,0.0038981023244559765,0.010012924671173096,0.017875418066978455
1772536411885770200,8.019770263671875,0.005873916670680046,0.012201186269521713,0.016243280842900276
1772536411895818200,8.029818359375,0.005566321313381195,0.00796542875468731,0.01717245765030384
1772536411905866500,8.039866455078124,0.0037810681387782097,0.009355222806334496,0.01285574771463871
1772536411915914200,8.049914306640625,0.0041565741412341595,0.016554545611143112,0.011665049009025097
1772536411925962500,8.05996240234375,0.00534423254430294,0.013984106481075287,0.009198930114507675
1772536411936011300,8.07001123046875,0.008039617910981178,0.005965860560536385,-0.0013168274890631437
1772536411946059300,8.080059326171876,0.009782643057405949,-0.003052620217204094,-0.008337169885635376
1772536411956107300,8.090107177734374,0.009570921771228313,-0.008830880746245384,-0.013105825521051884
1772536411966155300,8.1001552734375,0.00885085016489029,-0.008566558361053467,-0.013546489179134369
1772536411976203500,8.11020361328125,0.00533547718077898,-0.0024804365821182728,-0.005869660992175341
1772536411986252300,8.120252197265625,0.0037042913027107716,0.006085887085646391,-0.0003119101747870445
1772536411996300300,8.13030029296875,0.004949052818119526,0.014373376965522766,0.007485825568437576
1772536412006348300,8.140348388671875,0.0025689522735774517,0.011608032509684563,0.005874239839613438
1772536412016396300,8.150396240234375,0.008676113560795784,0.004392464645206928,0.00904819555580616
1772536412026445300,8.1604453125,0.014411630108952522,0.0005155811086297035,0.007446974981576204
1772536412036493300,8.170493408203125,0.01506277360022068,0.006734328344464302,0.009363118559122086
1772536412046541600,8.18054150390625,0.014788084663450718,0.008189532905817032,0.01182318665087223
1772536412056589300,8.19058935546875,0.012798703275620937,0.014507882297039032,0.014579026028513908
1772536412066637300,8.20063720703125,0.013458156026899815,0.014059523120522499,0.015797505155205727
1772536412076686300,8.210686279296874,0.01724463701248169,0.0072895013727247715,0.013014236465096474
1772536412086734300,8.220734375,0.01774863339960575,0.0027111610397696495,0.008823629468679428
1772536412096782000,8.230781982421876,0.021403823047876358,-0.004861803725361824,0.0068494281731545925
1772536412106830000,8.240830078125,0.020085517317056656,-0.0003398866392672062,0.007546423468738794
1772536412116878300,8.25087841796875,0.01758347824215889,0.005590174347162247,0.007429510820657015
1772536412126927000,8.260927001953124,0.017997505143284798,0.0035475492477416992,0.010076656006276608
1772536412136975400,8.270975341796875,0.017606552690267563,-0.0034807994961738586,0.008215638808906078
1772536412147023000,8.281023193359376,0.01766122132539749,-0.00214890344068408,0.005347740836441517
1772536412157071000,8.291071044921875,0.014754913747310638,0.0054762596264481544,0.005740290507674217
1772536412167119400,8.301119384765625,0.01565457507967949,0.005868920590728521,0.005062198266386986
1772536412177168100,8.311168212890625,0.00813966616988182,0.0028755278326570988,0.0004794308915734291
1772536412187216400,8.32121630859375,0.012028707191348076,-0.0017075682990252972,-0.0030456827953457832
1772536412197264100,8.33126416015625,0.008810277096927166,0.0015377597883343697,-0.0019969299901276827
1772536412207312100,8.34131201171875,0.00634310208261013,0.004982893820852041,-0.006428407039493322
1772536412217360400,8.3513603515625,0.001612262800335884,0.0069387187249958515,-0.0074638440273702145
1772536412227409200,8.3614091796875,0.0022511775605380535,0.0031819958239793777,-0.012339582666754723
1772536412237457200,8.37145703125,-0.001070050522685051,0.004254982806742191,-0.012638654559850693
1772536412247505200,8.381505126953124,-0.002058371901512146,0.009874321520328522,-0.021666482090950012
1772536412257553200,8.39155322265625,-0.007515721023082733,0.004471566993743181,-0.023725904524326324
1772536412267601200,8.40160107421875,-0.002707340754568577,-0.0048214043490588665,-0.02303965389728546
1772536412277650200,8.411650146484375,0.00235879048705101,0.00457316217944026,-0.016219565644860268
1772536412287698200,8.4216982421875,0.005705338437110186,0.017018578946590424,-0.009059413336217403
1772536412297746200,8.43174609375,0.006794305052608252,0.024828031659126282,0.002497907029464841
1772536412307794200,8.441794189453125,0.00387911731377244,0.021759822964668274,0.005525883287191391
1772536412317842200,8.45184228515625,0.002054851967841387,0.00897638313472271,0.002162311226129532
1772536412327891200,8.46189111328125,-0.0032940153032541275,-0.005475811660289764,0.0009426211472600698
1772536412337939200,8.471939208984375,-0.004201354458928108,-0.007971726357936859,-0.00038549734745174646
1772536412347987200,8.4819873046875,-0.0008575804531574249,-0.008264122530817986,0.00115004344843328
1772536412358035200,8.49203515625,-0.0012661097571253777,-0.012181365862488747,0.0035072071477770805
1772536412368084200,8.502084228515624,-0.0023513268679380417,-0.008573915809392929,0.004735434427857399
1772536412378132200,8.51213232421875,-0.0040115416049957275,-0.0024081654846668243,0.011325959116220474
1772536412388180200,8.52218017578125,-0.004693097434937954,0.005774545483291149,0.018522534519433975
1772536412398228200,8.532228271484374,-0.003183618187904358,0.020894374698400497,0.024075493216514587
1772536412408276200,8.542276123046875,0.0028560026548802853,0.027260899543762207,0.021409302949905396
1772536412418325200,8.5523251953125,0.011284108273684978,0.030785325914621353,0.01656527817249298
1772536412428373000,8.562373046875,0.011225253343582153,0.02913038432598114,0.0021656816825270653
1772536412438421200,8.572421142578126,0.01397470012307167,0.022378738969564438,-0.022488798946142197
1772536412448469200,8.58246923828125,0.01854657754302025,-0.000925546046346426,-0.0420696996152401
1772536412458517200,8.592517333984375,0.019793469458818436,-0.012288987636566162,-0.061250850558280945
1772536412468566300,8.602566162109374,0.022054431959986687,-0.018518760800361633,-0.06874839216470718
1772536412478614300,8.6126142578125,0.021506354212760925,-0.008049074560403824,-0.06253683567047119
1772536412488662300,8.622662353515626,0.015800070017576218,0.014189168810844421,-0.049523238092660904
1772536412498710300,8.632710205078125,0.0176115520298481,0.06666995584964752,-0.023712946102023125
1772536412508758300,8.64275830078125,0.01133723184466362,0.09381181001663208,-0.01537481788545847
1772536412518807300,8.652807373046874,0.022424504160881042,0.03628033772110939,-0.0398990698158741
1772536412528855300,8.662855224609375,0.020528316497802734,-0.03004002757370472,-0.06307520717382431
1772536412538903300,8.6729033203125,0.01312765758484602,-0.03316125273704529,-0.05315199866890907
1772536412548951000,8.682950927734375,0.002320369239896536,0.0031515173614025116,-0.030204417183995247
1772536412559000300,8.693000244140626,-0.00834878720343113,0.019137674942612648,-0.014917606487870216
1772536412569048000,8.703048095703124,-0.010827884078025818,0.0021447064355015755,-0.00331878662109375
1772536412579096300,8.713096435546875,-0.009669940918684006,-0.02312922477722168,0.009084885939955711
1772536412589144300,8.723144287109376,-0.006934680975973606,-0.026292841881513596,0.02174336090683937
1772536412599192000,8.733192138671875,-0.007528298534452915,-0.0157304797321558,0.043240129947662354
1772536412609241300,8.743241455078126,-0.004811015911400318,0.013264792039990425,0.061110690236091614
