time,seconds_elapsed,z,y,x
1772536763573758000,0.068758056640625,-0.894775390625,-0.3264007568359375,0.015899658203125
1772536763583807000,0.078806884765625,-0.9227447509765625,-0.3319244384765625,0.02142333984375
1772536763593855700,0.088855712890625,-0.9312744140625,-0.3289337158203125,0.0121917724609375
1772536763603904000,0.098904052734375,-0.9144744873046875,-0.3280181884765625,0.0056915283203125
1772536763613952800,0.108952880859375,-0.89385986328125,-0.327789306640625,0.00714111328125
1772536763624002000,0.119001953125,-0.89642333984375,-0.3304290771484375,0.0193939208984375
1772536763634049800,0.1290498046875,-0.9062347412109375,-0.3414459228515625,0.0304412841796875
1772536763644099000,0.13909912109375,-0.912384033203125,-0.34619140625,0.0372772216796875
1772536763654147800,0.14914794921875,-0.9220428466796875,-0.346099853515625,0.0427398681640625
1772536763664196000,0.159196044921875,-0.93658447265625,-0.355804443359375,0.0300750732421875
1772536763674244900,0.169244873046875,-0.95233154296875,-0.3617095947265625,0.0125885009765625
1772536763684294000,0.1792939453125,-0.95166015625,-0.3457183837890625,0.0078887939453125
1772536763694342000,0.189341796875,-0.939544677734375,-0.3372955322265625,0.0072021484375
1772536763704391000,0.199390869140625,-0.932769775390625,-0.34130859375,-0.0045318603515625
1772536763714440000,0.20943994140625,-0.931243896484375,-0.33453369140625,0.005401611328125
1772536763724488000,0.219488037109375,-0.9357452392578125,-0.3373870849609375,0.012359619140625
1772536763734537000,0.229536865234375,-0.9492950439453125,-0.35369873046875,0.010772705078125
1772536763744586000,0.2395859375,-0.950775146484375,-0.3660125732421875,0.0119781494140625
1772536763754634000,0.249634033203125,-0.9593048095703125,-0.370880126953125,0.01263427734375
1772536763764683000,0.25968310546875,-0.9707183837890625,-0.3782196044921875,0.006988525390625
1772536763774731800,0.269731689453125,-0.9631805419921875,-0.3797454833984375,0.0068511962890625
1772536763784780000,0.279780029296875,-0.967926025390625,-0.38262939453125,0.0089263916015625
1772536763794828800,0.289828857421875,-0.9721527099609375,-0.377288818359375,0.0157928466796875
1772536763804878000,0.299878173828125,-0.974761962890625,-0.367584228515625,0.0138092041015625
1772536763814925800,0.30992578125,-0.96990966796875,-0.361907958984375,0.00836181640625
1772536763824975000,0.31997509765625,-0.96978759765625,-0.358612060546875,0.0082855224609375
1772536763835022800,0.33002294921875,-0.9746856689453125,-0.3587188720703125,0.011474609375
1772536763845072100,0.340072021484375,-0.9752960205078125,-0.3651885986328125,0.020538330078125
1772536763855121000,0.350120849609375,-0.9750518798828125,-0.3790283203125,0.034454345703125
1772536763865169200,0.360169189453125,-0.9902191162109375,-0.3850860595703125,0.0431060791015625
1772536763875218000,0.370218017578125,-1.011138916015625,-0.37957763671875,0.053619384765625
1772536763885267000,0.380266845703125,-1.02020263671875,-0.369110107421875,0.062774658203125
1772536763895315000,0.39031494140625,-1.0258026123046875,-0.3648834228515625,0.0573272705078125
1772536763905364000,0.400364013671875,-1.033935546875,-0.3475341796875,0.0542449951171875
1772536763915413000,0.4104130859375,-1.0484771728515625,-0.319915771484375,0.04327392578125
1772536763925461000,0.4204609375,-1.058837890625,-0.2866363525390625,0.0330963134765625
1772536763935510000,0.430510009765625,-1.0560760498046875,-0.259765625,0.0229644775390625
1772536763945559000,0.44055908203125,-1.0510406494140625,-0.2335662841796875,0.028289794921875
1772536763955607000,0.45060693359375,-1.033233642578125,-0.2230682373046875,0.0189208984375
1772536763965656000,0.460656005859375,-1.0044708251953125,-0.2060089111328125,0.0144195556640625
1772536763975704800,0.470704833984375,-0.9891204833984375,-0.17974853515625,0.02142333984375
1772536763985752800,0.4807529296875,-0.99700927734375,-0.170623779296875,0.0257720947265625
1772536763995801900,0.4908017578125,-0.993011474609375,-0.1726226806640625,0.02923583984375
1772536764005851100,0.50085107421875,-0.9741668701171875,-0.17431640625,0.037872314453125
1772536764015899000,0.51089892578125,-0.9553680419921875,-0.1798095703125,0.0483245849609375
1772536764025948200,0.5209482421875,-0.9390716552734375,-0.196624755859375,0.05792236328125
1772536764035997000,0.530996826171875,-0.9292755126953125,-0.210113525390625,0.0613555908203125
1772536764046045000,0.541044921875,-0.9181976318359375,-0.2188568115234375,0.0686187744140625
1772536764056094000,0.551093994140625,-0.908477783203125,-0.2305145263671875,0.078765869140625
1772536764066143000,0.56114306640625,-0.9163970947265625,-0.243804931640625,0.08685302734375
1772536764076191000,0.57119091796875,-0.931854248046875,-0.26080322265625,0.0892181396484375
1772536764086240000,0.581239990234375,-0.931182861328125,-0.2719268798828125,0.0802001953125
1772536764096289000,0.5912890625,-0.918212890625,-0.264923095703125,0.0688018798828125
1772536764106336800,0.601336669921875,-0.9085235595703125,-0.26177978515625,0.0622711181640625
1772536764116386000,0.611385986328125,-0.9136962890625,-0.2660675048828125,0.0637969970703125
1772536764126435000,0.62143505859375,-0.926361083984375,-0.27276611328125,0.067657470703125
1772536764136483000,0.631483154296875,-0.93353271484375,-0.2766265869140625,0.0689697265625
1772536764146532000,0.641531982421875,-0.9267730712890625,-0.2772216796875,0.0699615478515625
1772536764156580900,0.651580810546875,-0.9282379150390625,-0.2758636474609375,0.0745849609375
1772536764166628900,0.66162890625,-0.94708251953125,-0.2769927978515625,0.0815277099609375
1772536764176678000,0.671677978515625,-0.963409423828125,-0.2812042236328125,0.07818603515625
1772536764186727200,0.68172705078125,-0.9713592529296875,-0.2767486572265625,0.0689239501953125
1772536764196775000,0.69177490234375,-0.970428466796875,-0.267852783203125,0.059478759765625
1772536764206824000,0.701823974609375,-0.962982177734375,-0.2632598876953125,0.053558349609375
1772536764216872000,0.711871826171875,-0.9586944580078125,-0.2591705322265625,0.050201416015625
1772536764226921000,0.7219208984375,-0.9557647705078125,-0.2551422119140625,0.0482025146484375
1772536764236970000,0.731969970703125,-0.9544677734375,-0.2556610107421875,0.0456390380859375
1772536764247018000,0.74201806640625,-0.937774658203125,-0.2539520263671875,0.0484466552734375
1772536764257067000,0.75206689453125,-0.9257354736328125,-0.2552947998046875,0.05426025390625
1772536764267115800,0.76211572265625,-0.9183197021484375,-0.262451171875,0.058868408203125
1772536764277164000,0.7721640625,-0.9042510986328125,-0.267608642578125,0.0644683837890625
1772536764287212800,0.782212890625,-0.9009552001953125,-0.2745513916015625,0.072418212890625
1772536764297262000,0.792261962890625,-0.9023284912109375,-0.28411865234375,0.0789947509765625
1772536764307309800,0.802309814453125,-0.9017791748046875,-0.294677734375,0.0843353271484375
1772536764317358800,0.81235888671875,-0.9008636474609375,-0.3012847900390625,0.0865325927734375
1772536764327407900,0.822407958984375,-0.9004058837890625,-0.3056640625,0.0850982666015625
1772536764337455900,0.832455810546875,-0.90460205078125,-0.304107666015625,0.083740234375
1772536764347505000,0.8425048828125,-0.91082763671875,-0.303009033203125,0.078765869140625
1772536764357554000,0.852553955078125,-0.9073333740234375,-0.304351806640625,0.07208251953125
1772536764367602000,0.862601806640625,-0.9021148681640625,-0.30755615234375,0.0724334716796875
1772536764377651000,0.87265087890625,-0.9098358154296875,-0.3199310302734375,0.07904052734375
1772536764387700000,0.882699951171875,-0.926300048828125,-0.3358154296875,0.0822296142578125
1772536764397748000,0.892748046875,-0.942901611328125,-0.344085693359375,0.07977294921875
1772536764407796700,0.902796630859375,-0.95587158203125,-0.3468017578125,0.076263427734375
1772536764417846000,0.912845947265625,-0.9700927734375,-0.3542022705078125,0.0718536376953125
1772536764427893800,0.922893798828125,-0.9827117919921875,-0.3582763671875,0.0611572265625
1772536764437943000,0.932943115234375,-0.9853057861328125,-0.35418701171875,0.0533294677734375
1772536764447991800,0.94299169921875,-0.981719970703125,-0.351806640625,0.0462493896484375
1772536764458037000,0.953037109375,-0.9846343994140625,-0.348846435546875,0.040435791015625
1772536764468086000,0.9630859375,-0.9912567138671875,-0.34783935546875,0.0380706787109375
1772536764478134800,0.973134765625,-0.998687744140625,-0.34814453125,0.0287322998046875
1772536764488182800,0.983182861328125,-1.0022430419921875,-0.35601806640625,0.0259246826171875
1772536764498231800,0.993231689453125,-1.0091400146484375,-0.3649749755859375,0.02252197265625
1772536764508279800,1.00327978515625,-1.0106353759765625,-0.3668975830078125,0.0158538818359375
1772536764518328800,1.013328857421875,-1.0061187744140625,-0.363983154296875,0.0123138427734375
1772536764528378000,1.023378173828125,-1.0041351318359375,-0.359710693359375,0.0126190185546875
1772536764538425900,1.03342578125,-1.0041046142578125,-0.3529510498046875,0.0130462646484375
1772536764548475000,1.043474853515625,-0.9898834228515625,-0.3402252197265625,0.008148193359375
1772536764558524000,1.05352392578125,-0.9678497314453125,-0.3228302001953125,0.0091400146484375
1772536764568572000,1.063572021484375,-0.9539642333984375,-0.3027801513671875,0.0060272216796875
1772536764578621000,1.073620849609375,-0.9500885009765625,-0.2885894775390625,0.014312744140625
1772536764588670000,1.083669921875,-0.956512451171875,-0.298004150390625,0.0301513671875
1772536764598718000,1.093718017578125,-0.945648193359375,-0.317596435546875,0.05108642578125
1772536764608766700,1.1037666015625,-0.9427337646484375,-0.3258056640625,0.063720703125
1772536764618816000,1.11381591796875,-0.9620361328125,-0.33831787109375,0.076751708984375
1772536764628863700,1.12386376953125,-0.992401123046875,-0.344390869140625,0.085357666015625
1772536764638913000,1.1339130859375,-1.0131378173828125,-0.3457183837890625,0.0807342529296875
1772536764648961800,1.1439619140625,-1.0043487548828125,-0.3548431396484375,0.0712432861328125
1772536764659010000,1.154010009765625,-1.0058441162109375,-0.347442626953125,0.06524658203125
1772536764669058800,1.164058837890625,-1.010772705078125,-0.3313446044921875,0.053741455078125
1772536764679107800,1.17410791015625,-0.9962310791015625,-0.3204803466796875,0.0430755615234375
1772536764689155800,1.18415576171875,-0.9951629638671875,-0.3061370849609375,0.025726318359375
1772536764699204900,1.194204833984375,-1.0052337646484375,-0.2924041748046875,0.0086517333984375
1772536764709254000,1.20425390625,-1.0034637451171875,-0.285003662109375,-0.000732421875
1772536764719302000,1.214302001953125,-1.0045928955078125,-0.270416259765625,-0.00152587890625
1772536764729351000,1.224350830078125,-0.9915924072265625,-0.250152587890625,0.000946044921875
1772536764739400000,1.23439990234375,-0.9779052734375,-0.2469329833984375,-0.006927490234375
1772536764749448000,1.244447998046875,-0.9650115966796875,-0.2398529052734375,-0.0045013427734375
1772536764759497000,1.2544970703125,-0.963623046875,-0.236480712890625,0.0064239501953125
1772536764769545700,1.264545654296875,-0.966827392578125,-0.2405242919921875,0.0101776123046875
1772536764779594000,1.274593994140625,-0.952239990234375,-0.23992919921875,0.0071563720703125
1772536764789642800,1.284642822265625,-0.9395599365234375,-0.240386962890625,0.009674072265625
1772536764799692000,1.294692138671875,-0.9568939208984375,-0.2538299560546875,0.0190582275390625
1772536764809739800,1.30473974609375,-0.981658935546875,-0.269927978515625,0.015472412109375
1772536764819789000,1.3147890625,-0.9770355224609375,-0.2742462158203125,0.0014190673828125
1772536764829836800,1.3248369140625,-0.95953369140625,-0.2736358642578125,-0.0068511962890625
1772536764839885800,1.3348857421875,-0.9670867919921875,-0.2774200439453125,-0.0075225830078125
1772536764849934800,1.344934814453125,-0.986358642578125,-0.2854156494140625,-0.008636474609375
1772536764859982800,1.35498291015625,-0.9883270263671875,-0.29071044921875,-0.0108184814453125
1772536764870032000,1.365031982421875,-0.9673919677734375,-0.289276123046875,-0.0085906982421875
1772536764880081000,1.375080810546875,-0.9440765380859375,-0.2845458984375,-0.0054779052734375
1772536764890129000,1.38512890625,-0.9299163818359375,-0.2820587158203125,-0.0010223388671875
1772536764900178000,1.395177978515625,-0.93048095703125,-0.281707763671875,0.0099334716796875
1772536764910227000,1.40522705078125,-0.9467315673828125,-0.2872467041015625,0.0229339599609375
1772536764920275000,1.41527490234375,-0.93017578125,-0.2885284423828125,0.0129241943359375
1772536764930323700,1.42532373046875,-0.8905029296875,-0.2856903076171875,0.01251220703125
1772536764940373000,1.435373046875,-0.8764801025390625,-0.2941436767578125,0.023406982421875
1772536764950420700,1.445420654296875,-0.8982391357421875,-0.3108367919921875,0.033447265625
1772536764960470000,1.455469970703125,-0.9129791259765625,-0.3275146484375,0.0428466796875
1772536764970518800,1.465518798828125,-0.9156646728515625,-0.3425445556640625,0.0542755126953125
1772536764980567000,1.475567138671875,-0.920928955078125,-0.353790283203125,0.05474853515625
1772536764990615800,1.48561572265625,-0.9091949462890625,-0.35626220703125,0.045806884765625
1772536765000664800,1.495664794921875,-0.89581298828125,-0.3542327880859375,0.04302978515625
1772536765010712800,1.505712890625,-0.9001617431640625,-0.3544158935546875,0.041473388671875
1772536765020761900,1.515761962890625,-0.9063568115234375,-0.3579559326171875,0.0422210693359375
1772536765030811000,1.525810791015625,-0.908355712890625,-0.358062744140625,0.04132080078125
1772536765040859000,1.53585888671875,-0.911529541015625,-0.3545989990234375,0.0338897705078125
1772536765050908000,1.545907958984375,-0.91314697265625,-0.3508758544921875,0.0272979736328125
1772536765060957000,1.55595703125,-0.9077606201171875,-0.3448944091796875,0.02362060546875
1772536765071005000,1.5660048828125,-0.9027252197265625,-0.33868408203125,0.02447509765625
1772536765081054000,1.576053955078125,-0.9024810791015625,-0.3369140625,0.02764892578125
1772536765091102000,1.58610205078125,-0.9064483642578125,-0.3384552001953125,0.0305328369140625
1772536765101151000,1.59615087890625,-0.9067840576171875,-0.33544921875,0.03533935546875
1772536765111199700,1.60619970703125,-0.910888671875,-0.3344268798828125,0.0453338623046875
1772536765121248000,1.616248046875,-0.9148406982421875,-0.33624267578125,0.0534515380859375
1772536765131296800,1.626296875,-0.916168212890625,-0.3421783447265625,0.05865478515625
1772536765141346000,1.636345947265625,-0.9057159423828125,-0.341705322265625,0.068084716796875
1772536765151393800,1.646393798828125,-0.9151153564453125,-0.34075927734375,0.070770263671875
1772536765161443000,1.656443115234375,-0.924652099609375,-0.3442230224609375,0.0780029296875
1772536765171491800,1.666491943359375,-0.946563720703125,-0.3460845947265625,0.0775146484375
1772536765181540000,1.6765400390625,-0.947418212890625,-0.3533935546875,0.0756072998046875
1772536765191588900,1.6865888671875,-0.9627838134765625,-0.347320556640625,0.0703125
1772536765201638000,1.696637939453125,-0.980865478515625,-0.34552001953125,0.05963134765625
1772536765211686000,1.706685791015625,-0.9915771484375,-0.3451385498046875,0.050048828125
1772536765221735000,1.71673486328125,-1.0137786865234375,-0.342742919921875,0.035888671875
1772536765231784000,1.726783935546875,-1.0237884521484375,-0.3360595703125,0.019927978515625
1772536765241831700,1.736831787109375,-1.016510009765625,-0.3314666748046875,0.0098114013671875
1772536765251881000,1.746880859375,-1.01300048828125,-0.331024169921875,0.0072479248046875
1772536765261930000,1.756929931640625,-1.013702392578125,-0.3401336669921875,0.013702392578125
1772536765271978000,1.76697802734375,-1.01416015625,-0.3563995361328125,0.0260009765625
1772536765282027000,1.777027099609375,-1.0242767333984375,-0.36383056640625,0.037750244140625
1772536765292075800,1.78707568359375,-1.0405426025390625,-0.36480712890625,0.04638671875
1772536765302123800,1.797123779296875,-1.04437255859375,-0.366607666015625,0.056854248046875
1772536765312172800,1.8071728515625,-1.038177490234375,-0.3661956787109375,0.060302734375
1772536765322220800,1.817220703125,-1.0339508056640625,-0.35638427734375,0.0578765869140625
1772536765332269800,1.827269775390625,-1.036163330078125,-0.3381500244140625,0.0539398193359375
1772536765342319000,1.837319091796875,-1.0435028076171875,-0.3184814453125,0.0475616455078125
1772536765352366800,1.847366943359375,-1.044281005859375,-0.305755615234375,0.0428924560546875
1772536765362415900,1.857415771484375,-1.0321197509765625,-0.2949066162109375,0.039093017578125
1772536765372465000,1.86746484375,-1.012603759765625,-0.285400390625,0.035400390625
1772536765382513000,1.877512939453125,-0.9967803955078125,-0.2790069580078125,0.0319976806640625
1772536765392562000,1.88756201171875,-0.991912841796875,-0.2749786376953125,0.0363616943359375
1772536765402610700,1.897610595703125,-0.990631103515625,-0.273101806640625,0.0357208251953125
1772536765412659000,1.907658935546875,-0.97943115234375,-0.2710723876953125,0.042449951171875
1772536765422707700,1.917707763671875,-0.9683074951171875,-0.271575927734375,0.048126220703125
1772536765432757000,1.927757080078125,-0.94818115234375,-0.271820068359375,0.0615081787109375
1772536765442804700,1.9378046875,-0.9290618896484375,-0.2702484130859375,0.0650787353515625
1772536765452854000,1.94785400390625,-0.911895751953125,-0.2766265869140625,0.0759124755859375
1772536765462903000,1.957903076171875,-0.9061279296875,-0.286468505859375,0.076568603515625
1772536765472951000,1.967950927734375,-0.9002685546875,-0.2895355224609375,0.0821533203125
1772536765483000000,1.978,-0.8861083984375,-0.2969818115234375,0.090789794921875
1772536765493048800,1.988048828125,-0.8719024658203125,-0.31134033203125,0.09344482421875
1772536765503097000,1.99809716796875,-0.8691253662109375,-0.3208770751953125,0.1011810302734375
1772536765513145900,2.008145751953125,-0.880340576171875,-0.321533203125,0.1123199462890625
1772536765523195100,2.018195068359375,-0.8888397216796875,-0.335693359375,0.1142578125
1772536765533243000,2.028242919921875,-0.8543853759765625,-0.32342529296875,0.114654541015625
1772536765543292200,2.038292236328125,-0.855224609375,-0.3163909912109375,0.1225128173828125
1772536765553340000,2.04833984375,-0.86651611328125,-0.3414306640625,0.1253814697265625
1772536765563389200,2.05838916015625,-0.8735198974609375,-0.35186767578125,0.1340179443359375
1772536765573438000,2.06843798828125,-0.893524169921875,-0.345977783203125,0.1423797607421875
1772536765583486200,2.078486328125,-0.9060211181640625,-0.348480224609375,0.1319122314453125
1772536765593535000,2.088534912109375,-0.8939971923828125,-0.34210205078125,0.1225128173828125
1772536765603584000,2.098583984375,-0.9044189453125,-0.3264617919921875,0.1111602783203125
1772536765613632000,2.108632080078125,-0.9270172119140625,-0.3230133056640625,0.102813720703125
1772536765623681000,2.118680908203125,-0.940521240234375,-0.3211517333984375,0.09161376953125
1772536765633730000,2.12872998046875,-0.941497802734375,-0.312408447265625,0.085784912109375
1772536765643778000,2.138778076171875,-0.9346771240234375,-0.3063201904296875,0.0861663818359375
1772536765653827000,2.1488271484375,-0.929229736328125,-0.303253173828125,0.084320068359375
1772536765663876000,2.1588759765625,-0.9258270263671875,-0.2983551025390625,0.080230712890625
1772536765673924000,2.168924072265625,-0.9193572998046875,-0.297515869140625,0.0787811279296875
1772536765683973000,2.17897314453125,-0.9108734130859375,-0.30364990234375,0.0769195556640625
1772536765694022000,2.18902197265625,-0.8956451416015625,-0.3062286376953125,0.083526611328125
1772536765704070100,2.199070068359375,-0.897186279296875,-0.30987548828125,0.0912017822265625
1772536765714119000,2.209118896484375,-0.90093994140625,-0.3248291015625,0.0994720458984375
1772536765724168000,2.21916796875,-0.901519775390625,-0.3290557861328125,0.110015869140625
1772536765734216000,2.2292158203125,-0.900848388671875,-0.3387451171875,0.106231689453125
1772536765744265000,2.239264892578125,-0.904541015625,-0.336212158203125,0.1089324951171875
1772536765754313000,2.24931298828125,-0.9171295166015625,-0.3279876708984375,0.1030731201171875
1772536765764362000,2.259362060546875,-0.92041015625,-0.3246917724609375,0.106109619140625
1772536765774411000,2.269410888671875,-0.9189605712890625,-0.326812744140625,0.09893798828125
1772536765784459000,2.279458984375,-0.9157562255859375,-0.3296661376953125,0.095550537109375
1772536765794508000,2.289508056640625,-0.9223480224609375,-0.3367919921875,0.0937042236328125
1772536765804557000,2.29955712890625,-0.92974853515625,-0.3463897705078125,0.093048095703125
1772536765814605000,2.30960498046875,-0.938262939453125,-0.353240966796875,0.0948028564453125
1772536765824654000,2.319654052734375,-0.9449005126953125,-0.3632965087890625,0.100128173828125
1772536765834702800,2.329702880859375,-0.9534454345703125,-0.3644256591796875,0.1012420654296875
1772536765844751000,2.339751220703125,-0.9558563232421875,-0.365386962890625,0.0944671630859375
1772536765854800000,2.3497998046875,-0.940521240234375,-0.365325927734375,0.0932159423828125
1772536765864849200,2.35984912109375,-0.9404449462890625,-0.365570068359375,0.0937347412109375
1772536765874897000,2.36989697265625,-0.9468841552734375,-0.374114990234375,0.09906005859375
1772536765884946200,2.3799462890625,-0.94818115234375,-0.3809661865234375,0.10003662109375
1772536765894995000,2.389994873046875,-0.93817138671875,-0.379547119140625,0.1007537841796875
1772536765905043200,2.400043212890625,-0.9412994384765625,-0.3784942626953125,0.1029052734375
1772536765915092000,2.410092041015625,-0.9646453857421875,-0.3804931640625,0.1024322509765625
1772536765925140000,2.420139892578125,-0.966583251953125,-0.3770751953125,0.0944061279296875
1772536765935189000,2.43018896484375,-0.9486846923828125,-0.367095947265625,0.08685302734375
1772536765945238000,2.440238037109375,-0.9429473876953125,-0.3604888916015625,0.0843658447265625
1772536765955286000,2.4502861328125,-0.9550323486328125,-0.356475830078125,0.083038330078125
1772536765965335000,2.4603349609375,-0.959930419921875,-0.351531982421875,0.0806884765625
1772536765975384000,2.470384033203125,-0.9514617919921875,-0.34271240234375,0.0790863037109375
1772536765985431800,2.480431884765625,-0.949432373046875,-0.3341064453125,0.0770721435546875
1772536765995481000,2.490481201171875,-0.953521728515625,-0.332275390625,0.0726165771484375
1772536766005530000,2.500530029296875,-0.9513397216796875,-0.33544921875,0.072235107421875
1772536766015578000,2.510578125,-0.9474639892578125,-0.3483428955078125,0.083770751953125
1772536766025627100,2.520627197265625,-0.9603271484375,-0.3614654541015625,0.086700439453125
1772536766035676000,2.530676025390625,-0.989105224609375,-0.3672637939453125,0.087677001953125
1772536766045724000,2.540723876953125,-1.01904296875,-0.3728485107421875,0.08453369140625
1772536766055773000,2.55077294921875,-1.0341033935546875,-0.3718109130859375,0.0728759765625
1772536766065822200,2.560822265625,-1.0425567626953125,-0.367584228515625,0.0642242431640625
1772536766075870000,2.570869873046875,-1.0458984375,-0.3618316650390625,0.050933837890625
1772536766085919200,2.580919189453125,-1.04180908203125,-0.34930419921875,0.035614013671875
1772536766095968000,2.590968017578125,-1.032958984375,-0.332611083984375,0.0243988037109375
1772536766106016000,2.60101611328125,-1.0275421142578125,-0.3141632080078125,0.015533447265625
1772536766116065000,2.61106494140625,-1.018463134765625,-0.3001251220703125,0.008575439453125
1772536766126113000,2.621113037109375,-1.0016326904296875,-0.287567138671875,0.006317138671875
1772536766136162000,2.631162109375,-0.98529052734375,-0.2762451171875,0.0051116943359375
1772536766146210800,2.6412109375,-0.965728759765625,-0.2669525146484375,-0.001678466796875
1772536766156259000,2.651259033203125,-0.9495697021484375,-0.2569732666015625,-0.0034332275390625
1772536766166307800,2.661307861328125,-0.9434051513671875,-0.251068115234375,-0.000579833984375
1772536766176357000,2.671357177734375,-0.93499755859375,-0.25189208984375,0.001983642578125
1772536766186404900,2.68140478515625,-0.9314422607421875,-0.253326416015625,-0.0010223388671875
1772536766196454100,2.6914541015625,-0.921173095703125,-0.251708984375,-0.0029754638671875
1772536766206503000,2.7015029296875,-0.9344635009765625,-0.2632293701171875,-0.008697509765625
1772536766216551200,2.71155126953125,-0.950592041015625,-0.2788238525390625,-0.0073394775390625
1772536766226600000,2.721599853515625,-0.954132080078125,-0.2993011474609375,-0.0008392333984375
1772536766236649000,2.73164892578125,-0.9577178955078125,-0.3098907470703125,0.0013580322265625
1772536766246697000,2.741697021484375,-0.9647064208984375,-0.31787109375,0.0028228759765625
1772536766256746000,2.75174609375,-0.97021484375,-0.3345947265625,0.00299072265625
1772536766266795000,2.761794921875,-0.9720611572265625,-0.329620361328125,0.0059814453125
1772536766276843000,2.771843017578125,-0.9759368896484375,-0.324310302734375,0.0028228759765625
1772536766286892000,2.78189208984375,-0.97235107421875,-0.3388519287109375,-0.00537109375
1772536766296940000,2.79193994140625,-0.9687347412109375,-0.3316497802734375,-0.007843017578125
1772536766306989000,2.801989013671875,-0.9593505859375,-0.317626953125,-0.010711669921875
1772536766317038000,2.8120380859375,-0.9445648193359375,-0.3114776611328125,-0.01239013671875
1772536766327086000,2.822086181640625,-0.931121826171875,-0.3129425048828125,-0.011993408203125
1772536766337135000,2.832135009765625,-0.9216766357421875,-0.307830810546875,-0.0057220458984375
1772536766347183900,2.842183837890625,-0.9092254638671875,-0.3092193603515625,-0.0036773681640625
1772536766357232000,2.852232177734375,-0.8989105224609375,-0.319671630859375,0.00091552734375
1772536766367281000,2.862281005859375,-0.9015045166015625,-0.3363037109375,0.004669189453125
1772536766377330200,2.872330078125,-0.90533447265625,-0.342376708984375,0.0047454833984375
1772536766387378000,2.8823779296875,-0.8975982666015625,-0.3536376953125,0.006591796875
1772536766397427200,2.89242724609375,-0.8917694091796875,-0.365966796875,0.005584716796875
1772536766407476000,2.90247607421875,-0.8995361328125,-0.3653564453125,0.0005035400390625
1772536766417524200,2.912524169921875,-0.9015960693359375,-0.3610992431640625,-0.0070343017578125
1772536766427573000,2.922572998046875,-0.901519775390625,-0.3582611083984375,-0.0116424560546875
1772536766437622000,2.9326220703125,-0.905548095703125,-0.360504150390625,-0.0161285400390625
1772536766447670000,2.942669921875,-0.9059600830078125,-0.35894775390625,-0.0206146240234375
1772536766457719000,2.952718994140625,-0.9034271240234375,-0.360260009765625,-0.0222930908203125
1772536766467766800,2.962766845703125,-0.9036865234375,-0.3612823486328125,-0.023345947265625
1772536766477815600,2.972815673828125,-0.9064483642578125,-0.35992431640625,-0.0196685791015625
1772536766487864800,2.98286474609375,-0.902679443359375,-0.3640899658203125,-0.01483154296875
1772536766497912600,2.99291259765625,-0.895111083984375,-0.37164306640625,-0.0160675048828125
1772536766507961900,3.0029619140625,-0.8888702392578125,-0.3662567138671875,-0.0051116943359375
1772536766518010600,3.0130107421875,-0.885467529296875,-0.3735504150390625,0.004119873046875
1772536766528058600,3.02305859375,-0.8826751708984375,-0.380035400390625,0.0086669921875
1772536766538107600,3.033107666015625,-0.8821258544921875,-0.37982177734375,0.0151824951171875
1772536766548156700,3.04315673828125,-0.885711669921875,-0.3820648193359375,0.02130126953125
1772536766558204700,3.05320458984375,-0.8936614990234375,-0.39044189453125,0.0269775390625
1772536766568253700,3.063253662109375,-0.8961639404296875,-0.3950042724609375,0.03045654296875
1772536766578302700,3.073302734375,-0.89971923828125,-0.39776611328125,0.0354766845703125
1772536766588350500,3.0833505859375,-0.9120635986328125,-0.405975341796875,0.041961669921875
1772536766598399700,3.093399658203125,-0.9224700927734375,-0.4155120849609375,0.04083251953125
1772536766608448800,3.10344873046875,-0.9276123046875,-0.4168701171875,0.041778564453125
1772536766618496800,3.113496826171875,-0.939849853515625,-0.415802001953125,0.04217529296875
1772536766628545800,3.1235458984375,-0.952911376953125,-0.4232025146484375,0.034088134765625
1772536766638593800,3.13359375,-0.9607391357421875,-0.417816162109375,0.0323944091796875
1772536766648642600,3.143642578125,-0.958953857421875,-0.4195556640625,0.0299835205078125
1772536766658691600,3.153691650390625,-0.9710540771484375,-0.4209442138671875,0.027801513671875
1772536766668739600,3.163739501953125,-0.978424072265625,-0.42047119140625,0.0233306884765625
1772536766678788600,3.17378857421875,-0.9765625,-0.4187774658203125,0.0319366455078125
1772536766688838000,3.183837890625,-0.98089599609375,-0.4310760498046875,0.0425262451171875
1772536766698885600,3.1938857421875,-0.9920501708984375,-0.4362030029296875,0.0511322021484375
1772536766708934700,3.2039345703125,-1.0035247802734375,-0.426116943359375,0.0577392578125
1772536766718983700,3.213983642578125,-1.011566162109375,-0.419830322265625,0.0648345947265625
1772536766729031700,3.22403173828125,-1.0204010009765625,-0.4163360595703125,0.0689849853515625
1772536766739080700,3.234080810546875,-1.0280914306640625,-0.403289794921875,0.0670013427734375
1772536766749129500,3.24412939453125,-1.0348358154296875,-0.3836822509765625,0.060394287109375
1772536766759177700,3.254177734375,-1.0399322509765625,-0.3583984375,0.049774169921875
1772536766769226500,3.2642265625,-1.0362091064453125,-0.3326873779296875,0.0425262451171875
1772536766779274800,3.274274658203125,-1.0293121337890625,-0.312255859375,0.04278564453125
1772536766789323500,3.284323486328125,-1.0043182373046875,-0.29864501953125,0.0361175537109375
1772536766799372800,3.294372802734375,-0.9835968017578125,-0.279205322265625,0.05267333984375
1772536766809420500,3.304420654296875,-0.9794921875,-0.27349853515625,0.0610504150390625
1772536766819469600,3.314469482421875,-0.9803924560546875,-0.269561767578125,0.0749359130859375
1772536766829518600,3.3245185546875,-0.979034423828125,-0.2649078369140625,0.084320068359375
1772536766839566600,3.334566650390625,-0.9751129150390625,-0.2637939453125,0.0862884521484375
1772536766849615600,3.34461572265625,-0.9632720947265625,-0.2656097412109375,0.08831787109375
1772536766859664600,3.35466455078125,-0.944610595703125,-0.2676239013671875,0.084930419921875
1772536766869712600,3.364712646484375,-0.922760009765625,-0.2730560302734375,0.080535888671875
1772536766879761700,3.37476171875,-0.9072418212890625,-0.2781829833984375,0.0835723876953125
1772536766889810700,3.384810791015625,-0.89764404296875,-0.2848358154296875,0.0899810791015625
1772536766899858700,3.394858642578125,-0.8926239013671875,-0.288543701171875,0.09619140625
1772536766909907500,3.404907470703125,-0.8927764892578125,-0.2911529541015625,0.104461669921875
1772536766919956700,3.414956787109375,-0.8950347900390625,-0.2990875244140625,0.1104888916015625
1772536766930004500,3.42500439453125,-0.8889312744140625,-0.301971435546875,0.11346435546875
1772536766940053800,3.4350537109375,-0.8844757080078125,-0.2957305908203125,0.1183929443359375
1772536766950101500,3.4451015625,-0.8911590576171875,-0.290863037109375,0.1260986328125
1772536766960150800,3.45515087890625,-0.90557861328125,-0.29315185546875,0.132171630859375
1772536766970199600,3.465199462890625,-0.91552734375,-0.2922210693359375,0.13275146484375
1772536766980247800,3.475247802734375,-0.9239044189453125,-0.2853851318359375,0.1278839111328125
1772536766990296600,3.485296630859375,-0.931060791015625,-0.2793121337890625,0.120452880859375
1772536767000345600,3.495345703125,-0.94122314453125,-0.273468017578125,0.1095428466796875
1772536767010393600,3.5053935546875,-0.95208740234375,-0.2695770263671875,0.0952911376953125
1772536767020442600,3.515442626953125,-0.955841064453125,-0.266845703125,0.084075927734375
1772536767030491600,3.52549169921875,-0.95556640625,-0.2637786865234375,0.0759735107421875
1772536767040539600,3.53553955078125,-0.9556121826171875,-0.2615966796875,0.07147216796875
1772536767050588700,3.545588623046875,-0.954437255859375,-0.260223388671875,0.06866455078125
1772536767060636700,3.55563671875,-0.9423065185546875,-0.258575439453125,0.0709228515625
1772536767070685700,3.565685791015625,-0.930206298828125,-0.2574310302734375,0.077301025390625
1772536767080734700,3.575734619140625,-0.9216156005859375,-0.2574462890625,0.0810089111328125
1772536767090782700,3.58578271484375,-0.9057159423828125,-0.2581634521484375,0.084930419921875
1772536767100831700,3.595831787109375,-0.8902130126953125,-0.2592620849609375,0.0894622802734375
1772536767110880500,3.605880615234375,-0.884796142578125,-0.2640228271484375,0.093780517578125
1772536767120928800,3.6159287109375,-0.8843841552734375,-0.2730865478515625,0.0930023193359375
1772536767130977500,3.6259775390625,-0.8788604736328125,-0.28167724609375,0.0940093994140625
1772536767141026800,3.63602685546875,-0.877288818359375,-0.2911529541015625,0.092071533203125
1772536767151074600,3.646074462890625,-0.8773651123046875,-0.3011474609375,0.0894012451171875
1772536767161123800,3.656123779296875,-0.886260986328125,-0.3048248291015625,0.086334228515625
1772536767171172600,3.666172607421875,-0.8919525146484375,-0.3067169189453125,0.0836029052734375
1772536767181220600,3.676220703125,-0.8957366943359375,-0.31304931640625,0.082427978515625
1772536767191269600,3.68626953125,-0.9013214111328125,-0.318206787109375,0.0779571533203125
1772536767201317600,3.696317626953125,-0.9058990478515625,-0.318267822265625,0.0766448974609375
1772536767211366700,3.70636669921875,-0.906890869140625,-0.3187255859375,0.0789947509765625
1772536767221415700,3.716415771484375,-0.91162109375,-0.322784423828125,0.0858612060546875
1772536767231463700,3.726463623046875,-0.9253082275390625,-0.3289794921875,0.092803955078125
1772536767241512400,3.736512451171875,-0.9309844970703125,-0.3314971923828125,0.0968017578125
1772536767251561700,3.746561767578125,-0.9362335205078125,-0.3322906494140625,0.1000518798828125
1772536767261609500,3.756609375,-0.945281982421875,-0.3372955322265625,0.0995330810546875
1772536767271658800,3.76665869140625,-0.9498291015625,-0.3419952392578125,0.100921630859375
1772536767281707800,3.776707763671875,-0.9573516845703125,-0.3408966064453125,0.0986328125
1772536767291755800,3.786755859375,-0.9691009521484375,-0.339935302734375,0.0934295654296875
1772536767301804500,3.796804443359375,-0.978179931640625,-0.3424072265625,0.09100341796875
1772536767311853600,3.806853515625,-0.9899444580078125,-0.3415374755859375,0.09063720703125
1772536767321901600,3.816901611328125,-1.002044677734375,-0.336517333984375,0.0882720947265625
1772536767331950600,3.82695068359375,-1.0182647705078125,-0.3316802978515625,0.08624267578125
1772536767341999600,3.83699951171875,-1.02813720703125,-0.32647705078125,0.0766143798828125
1772536767352047600,3.847047607421875,-1.0241851806640625,-0.308990478515625,0.0696258544921875
1772536767362096600,3.8570966796875,-1.0344085693359375,-0.297882080078125,0.0672760009765625
1772536767372144600,3.86714453125,-1.0318145751953125,-0.2978668212890625,0.065460205078125
1772536767382193700,3.877193603515625,-1.0140533447265625,-0.290069580078125,0.0628662109375
1772536767392242700,3.88724267578125,-1.00811767578125,-0.28216552734375,0.0615386962890625
1772536767402290700,3.897290771484375,-1.00390625,-0.285308837890625,0.066558837890625
1772536767412339700,3.907339599609375,-0.9897308349609375,-0.310211181640625,0.08050537109375
1772536767422388500,3.917388427734375,-0.97509765625,-0.3380279541015625,0.0946502685546875
1772536767432436700,3.927436767578125,-1.01007080078125,-0.3466033935546875,0.101806640625
1772536767442485500,3.937485595703125,-1.043548583984375,-0.35711669921875,0.1161041259765625
1772536767452534800,3.94753466796875,-1.06610107421875,-0.371246337890625,0.123291015625
1772536767462582500,3.95758251953125,-1.0659637451171875,-0.369964599609375,0.1028594970703125
1772536767472631800,3.9676318359375,-1.0651397705078125,-0.3315887451171875,0.09112548828125
1772536767482679600,3.977679443359375,-1.081146240234375,-0.304962158203125,0.060546875
1772536767492728800,3.987728759765625,-1.0706634521484375,-0.2852630615234375,0.0369110107421875
1772536767502777600,3.997777587890625,-1.051116943359375,-0.2658233642578125,0.0134429931640625
1772536767512825600,4.00782568359375,-1.0218658447265625,-0.249847412109375,-0.0090179443359375
1772536767522874600,4.01787451171875,-0.9988861083984375,-0.237213134765625,-0.0217437744140625
1772536767532923600,4.027923583984375,-0.99713134765625,-0.2286834716796875,-0.0253753662109375
1772536767542971600,4.0379716796875,-0.993072509765625,-0.2236785888671875,-0.025665283203125
1772536767553020700,4.048020751953125,-0.98016357421875,-0.21783447265625,-0.0213623046875
1772536767563069700,4.058069580078125,-0.974884033203125,-0.2194061279296875,-0.018218994140625
1772536767573117700,4.06811767578125,-0.965362548828125,-0.21929931640625,-0.0170440673828125
1772536767583166700,4.078166748046875,-0.9413299560546875,-0.215057373046875,-0.02581787109375
1772536767593215700,4.0882158203125,-0.923583984375,-0.216064453125,-0.0325775146484375
1772536767603263700,4.098263671875,-0.91998291015625,-0.22991943359375,-0.031982421875
1772536767613312800,4.108312744140625,-0.9267578125,-0.2533721923828125,-0.0314178466796875
1772536767623360500,4.118360595703125,-0.932525634765625,-0.27569580078125,-0.0299835205078125
1772536767633409800,4.128409912109375,-0.938018798828125,-0.2938385009765625,-0.0230865478515625
1772536767643458600,4.13845849609375,-0.941864013671875,-0.309967041015625,-0.020263671875
1772536767653506800,4.1485068359375,-0.947845458984375,-0.323272705078125,-0.01788330078125
1772536767663555600,4.1585556640625,-0.9437408447265625,-0.31866455078125,-0.0085296630859375
1772536767673604600,4.1686044921875,-0.95233154296875,-0.3172454833984375,-0.0113067626953125
1772536767683652600,4.178652587890625,-0.9520263671875,-0.3118743896484375,-0.011444091796875
1772536767693701600,4.18870166015625,-0.948974609375,-0.29638671875,-0.0068511962890625
1772536767703750700,4.198750732421875,-0.948974609375,-0.28387451171875,-0.0110015869140625
1772536767713798700,4.208798583984375,-0.94183349609375,-0.27532958984375,-0.0151824951171875
1772536767723847700,4.21884765625,-0.931793212890625,-0.268035888671875,-0.0167999267578125
1772536767733895700,4.228895751953125,-0.9265899658203125,-0.2690887451171875,-0.0173492431640625
1772536767743944700,4.23894482421875,-0.9286651611328125,-0.277862548828125,-0.0179901123046875
1772536767753993700,4.24899365234375,-0.9349212646484375,-0.289703369140625,-0.017669677734375
1772536767764041700,4.259041748046875,-0.9363250732421875,-0.3044891357421875,-0.0197296142578125
1772536767774090800,4.2690908203125,-0.927520751953125,-0.317535400390625,-0.0180816650390625
1772536767784139500,4.279139404296875,-0.9222564697265625,-0.329498291015625,-0.0155181884765625
1772536767794187800,4.289187744140625,-0.9261474609375,-0.3403472900390625,-0.011199951171875
1772536767804236500,4.299236572265625,-0.921539306640625,-0.3468017578125,-0.0102691650390625
1772536767814285800,4.309285888671875,-0.9152374267578125,-0.35040283203125,-0.0031280517578125
1772536767824333600,4.31933349609375,-0.918365478515625,-0.3556671142578125,0.004180908203125
1772536767834382800,4.3293828125,-0.9152069091796875,-0.3629608154296875,0.00616455078125
1772536767844430600,4.3394306640625,-0.9070587158203125,-0.3664093017578125,0.0091400146484375
1772536767854480000,4.34947998046875,-0.9037017822265625,-0.367950439453125,0.0136260986328125
1772536767864528600,4.359528564453125,-0.908477783203125,-0.3729705810546875,0.01708984375
1772536767874577000,4.369576904296875,-0.9080352783203125,-0.3741912841796875,0.018829345703125
1772536767884625700,4.379625732421875,-0.908203125,-0.3741912841796875,0.023712158203125
1772536767894674700,4.3896748046875,-0.9132843017578125,-0.37457275390625,0.0265655517578125
1772536767904722700,4.39972265625,-0.9099273681640625,-0.377166748046875,0.0275421142578125
1772536767914771700,4.409771728515625,-0.8989715576171875,-0.3761138916015625,0.0328826904296875
1772536767924820700,4.41982080078125,-0.898193359375,-0.37615966796875,0.0390167236328125
1772536767934868500,4.429868408203125,-0.9037628173828125,-0.3809967041015625,0.046600341796875
1772536767944917800,4.439917724609375,-0.9098968505859375,-0.38519287109375,0.0525360107421875
1772536767954966800,4.449966796875,-0.9173736572265625,-0.387786865234375,0.062896728515625
1772536767965014800,4.460014892578125,-0.93316650390625,-0.3919830322265625,0.0655975341796875
1772536767975063800,4.470063720703125,-0.9352569580078125,-0.38580322265625,0.06097412109375
1772536767985111800,4.48011181640625,-0.93414306640625,-0.3831024169921875,0.06292724609375
1772536767995160600,4.49016064453125,-0.9494171142578125,-0.387298583984375,0.0652313232421875
1772536768005209600,4.500209716796875,-0.9673614501953125,-0.390655517578125,0.063140869140625
1772536768015257600,4.510257568359375,-0.963775634765625,-0.386444091796875,0.054351806640625
1772536768025306600,4.520306640625,-0.95733642578125,-0.3815765380859375,0.05267333984375
1772536768035356000,4.53035595703125,-0.972412109375,-0.3798980712890625,0.0496063232421875
1772536768045403600,4.540403564453125,-0.9815216064453125,-0.3755340576171875,0.04388427734375
1772536768055452700,4.55045263671875,-0.98095703125,-0.367401123046875,0.039337158203125
1772536768065501700,4.560501708984375,-0.9849853515625,-0.358795166015625,0.0373992919921875
1772536768075549700,4.5705498046875,-0.990264892578125,-0.35845947265625,0.032135009765625
1772536768085598700,4.5805986328125,-0.9793243408203125,-0.35760498046875,0.0234375
1772536768095646700,4.590646728515625,-0.9734954833984375,-0.3510894775390625,0.0266265869140625
1772536768105695700,4.60069580078125,-0.9738006591796875,-0.35675048828125,0.02618408203125
1772536768115744500,4.61074462890625,-0.9609222412109375,-0.36163330078125,0.0272674560546875
1772536768125792800,4.620792724609375,-0.951019287109375,-0.365478515625,0.0384521484375
1772536768135841500,4.630841552734375,-0.95184326171875,-0.381988525390625,0.0512542724609375
1772536768145890800,4.640890869140625,-0.96221923828125,-0.389373779296875,0.0599212646484375
1772536768155938600,4.6509384765625,-0.976318359375,-0.3802642822265625,0.0665283203125
1772536768165987800,4.66098779296875,-0.9903106689453125,-0.3787689208984375,0.0812835693359375
1772536768176036600,4.67103662109375,-0.98748779296875,-0.3917083740234375,0.095703125
1772536768186084900,4.6810849609375,-0.980987548828125,-0.3856353759765625,0.098907470703125
1772536768196133600,4.691133544921875,-0.9963226318359375,-0.366668701171875,0.0935821533203125
1772536768206182000,4.701181884765625,-1.0132904052734375,-0.3447723388671875,0.08538818359375
1772536768216230700,4.711230712890625,-1.032806396484375,-0.3277435302734375,0.06890869140625
1772536768226279700,4.72127978515625,-1.0311737060546875,-0.305511474609375,0.053314208984375
1772536768236327700,4.73132763671875,-1.027252197265625,-0.27825927734375,0.0355377197265625
1772536768246376700,4.741376708984375,-1.01824951171875,-0.2501068115234375,0.01568603515625
1772536768256425700,4.75142578125,-1.013885498046875,-0.228515625,0.0037689208984375
1772536768266473700,4.7614736328125,-1.0109405517578125,-0.2112579345703125,-0.0032806396484375
1772536768276522800,4.771522705078125,-0.9945526123046875,-0.1983489990234375,-0.004119873046875
1772536768286571800,4.78157177734375,-0.9590301513671875,-0.2020721435546875,-0.023529052734375
1772536768296619800,4.791619873046875,-0.9290771484375,-0.2019195556640625,-0.0139617919921875
1772536768306668800,4.801668701171875,-0.9313507080078125,-0.2181854248046875,0.00146484375
1772536768316716500,4.811716552734375,-0.9323883056640625,-0.24517822265625,0.0222320556640625
1772536768326765800,4.821765869140625,-0.9266204833984375,-0.267974853515625,0.0467987060546875
1772536768336814600,4.831814697265625,-0.928619384765625,-0.287872314453125,0.0659942626953125
1772536768346862800,4.84186279296875,-0.93505859375,-0.3012542724609375,0.080841064453125
1772536768356911600,4.85191162109375,-0.9384002685546875,-0.3056640625,0.083587646484375
1772536768366960600,4.861960693359375,-0.9379119873046875,-0.3065032958984375,0.07928466796875
1772536768377008600,4.872008544921875,-0.93902587890625,-0.3061981201171875,0.07183837890625
1772536768387057700,4.8820576171875,-0.9492645263671875,-0.3001251220703125,0.0636444091796875
1772536768397106700,4.892106689453125,-0.961090087890625,-0.289703369140625,0.0506439208984375
1772536768407154700,4.90215478515625,-0.96832275390625,-0.2783050537109375,0.037322998046875
1772536768417203700,4.91220361328125,-0.9709320068359375,-0.2694244384765625,0.0311737060546875
1772536768427251500,4.92225146484375,-0.9744415283203125,-0.2660980224609375,0.0328826904296875
1772536768437300700,4.93230078125,-0.96942138671875,-0.2691192626953125,0.03472900390625
1772536768447349800,4.942349853515625,-0.951995849609375,-0.2696685791015625,0.035308837890625
1772536768457397800,4.952397705078125,-0.94720458984375,-0.2719268798828125,0.0382843017578125
1772536768467447000,4.962447021484375,-0.9470672607421875,-0.279541015625,0.04083251953125
1772536768477496000,4.97249609375,-0.934844970703125,-0.2847442626953125,0.0426177978515625
1772536768487544000,4.9825439453125,-0.9141693115234375,-0.2838592529296875,0.0447540283203125
1772536768497593000,4.992593017578125,-0.90093994140625,-0.2858428955078125,0.0473785400390625
1772536768507642000,5.00264208984375,-0.90362548828125,-0.2920074462890625,0.047515869140625
1772536768517690000,5.012690185546875,-0.900482177734375,-0.2987060546875,0.048492431640625
1772536768527739100,5.0227392578125,-0.8839569091796875,-0.2982940673828125,0.0507659912109375
1772536768537787000,5.032786865234375,-0.8845977783203125,-0.3008880615234375,0.0547027587890625
1772536768547836200,5.042836181640625,-0.8884429931640625,-0.3049163818359375,0.0573577880859375
1772536768557885200,5.05288525390625,-0.8869781494140625,-0.308837890625,0.0601043701171875
1772536768567933200,5.06293310546875,-0.886505126953125,-0.3128204345703125,0.061767578125
1772536768577982000,5.07298193359375,-0.8943023681640625,-0.3173980712890625,0.0634002685546875
1772536768588031000,5.083031005859375,-0.9113311767578125,-0.3262786865234375,0.0685577392578125
1772536768598079000,5.093078857421875,-0.92333984375,-0.33367919921875,0.068634033203125
1772536768608128000,5.1031279296875,-0.926177978515625,-0.3291168212890625,0.063201904296875
1772536768618177300,5.11317724609375,-0.926971435546875,-0.3228607177734375,0.05718994140625
1772536768628225000,5.12322509765625,-0.9333038330078125,-0.3177490234375,0.052978515625
1772536768638274000,5.133274169921875,-0.92987060546875,-0.320159912109375,0.0461883544921875
1772536768648322000,5.143322021484375,-0.935791015625,-0.3177032470703125,0.0532684326171875
1772536768658371000,5.15337109375,-0.937347412109375,-0.317596435546875,0.0561676025390625
1772536768668420000,5.163420166015625,-0.931121826171875,-0.32421875,0.048614501953125
1772536768678468000,5.173468017578125,-0.909820556640625,-0.3237762451171875,0.0522613525390625
1772536768688517000,5.18351708984375,-0.8975677490234375,-0.3267364501953125,0.058441162109375
1772536768698566000,5.19356591796875,-0.89093017578125,-0.3363800048828125,0.071136474609375
1772536768708614100,5.2036142578125,-0.8838348388671875,-0.3470001220703125,0.0826416015625
1772536768718663000,5.213662841796875,-0.87542724609375,-0.352996826171875,0.0925140380859375
1772536768728712200,5.223712158203125,-0.8704833984375,-0.358642578125,0.0998077392578125
1772536768738760000,5.233760009765625,-0.8741912841796875,-0.364105224609375,0.1003265380859375
1772536768748809200,5.243809326171875,-0.8831787109375,-0.37078857421875,0.101226806640625
1772536768758857000,5.25385693359375,-0.889495849609375,-0.378936767578125,0.0996551513671875
1772536768768906200,5.26390625,-0.8944091796875,-0.375701904296875,0.088409423828125
1772536768778955000,5.273955078125,-0.9026031494140625,-0.3734130859375,0.087005615234375
1772536768789003000,5.2840029296875,-0.913604736328125,-0.373870849609375,0.0857086181640625
1772536768799052000,5.294052001953125,-0.927886962890625,-0.3725738525390625,0.08343505859375
1772536768809101000,5.30410107421875,-0.9349822998046875,-0.3755340576171875,0.074676513671875
1772536768819149000,5.314149169921875,-0.9384307861328125,-0.3831329345703125,0.07220458984375
1772536768829198000,5.324197998046875,-0.9584197998046875,-0.3907012939453125,0.0736541748046875
1772536768839246000,5.33424609375,-0.9856414794921875,-0.391998291015625,0.0704345703125
1772536768849295000,5.344295166015625,-0.9927978515625,-0.3994293212890625,0.057098388671875
1772536768859344100,5.35434423828125,-0.98272705078125,-0.392486572265625,0.055755615234375
1772536768869392100,5.36439208984375,-0.988037109375,-0.38458251953125,0.0583343505859375
1772536768879441000,5.37444091796875,-0.9962921142578125,-0.3809967041015625,0.0564117431640625
1772536768889489200,5.3844892578125,-0.9853363037109375,-0.371246337890625,0.05194091796875
1772536768899538000,5.394537841796875,-0.96478271484375,-0.3550567626953125,0.0516204833984375
1772536768909587200,5.404587158203125,-0.9599761962890625,-0.349609375,0.0496978759765625
1772536768919635000,5.414635009765625,-0.9709625244140625,-0.361419677734375,0.0435791015625
1772536768929684200,5.424684326171875,-0.9508514404296875,-0.3514556884765625,0.056976318359375
1772536768939733000,5.43473291015625,-0.936065673828125,-0.356231689453125,0.063720703125
1772536768949781200,5.44478125,-0.933990478515625,-0.382843017578125,0.086212158203125
1772536768959830000,5.454830078125,-0.95648193359375,-0.400909423828125,0.1131591796875
1772536768969878000,5.4648779296875,-1.0041656494140625,-0.4072723388671875,0.1268463134765625
1772536768979927000,5.474927001953125,-1.05682373046875,-0.4115447998046875,0.1241912841796875
1772536768989976000,5.48497607421875,-1.092803955078125,-0.417236328125,0.10626220703125
1772536769000024000,5.495024169921875,-1.11090087890625,-0.39752197265625,0.079132080078125
1772536769010072800,5.50507275390625,-1.10736083984375,-0.3615264892578125,0.053314208984375
1772536769020122000,5.5151220703125,-1.0947265625,-0.3228759765625,0.023681640625
1772536769030169900,5.525169921875,-1.07196044921875,-0.288604736328125,0.000640869140625
1772536769040219100,5.53521923828125,-1.02691650390625,-0.264373779296875,-0.0254974365234375
1772536769050268200,5.54526806640625,-0.99169921875,-0.24029541015625,-0.0326995849609375
1772536769060316200,5.555316162109375,-0.9713134765625,-0.2314453125,-0.0277862548828125
1772536769070365000,5.565364990234375,-0.9532470703125,-0.23651123046875,-0.015594482421875
1772536769080413200,5.5754130859375,-0.9466094970703125,-0.2479705810546875,0.0006103515625
1772536769090462000,5.5854619140625,-0.9386138916015625,-0.258941650390625,0.01251220703125
1772536769100511000,5.595510986328125,-0.9271240234375,-0.2720794677734375,0.025421142578125
1772536769110559000,5.60555908203125,-0.9263916015625,-0.2787017822265625,0.0229644775390625
1772536769120608000,5.61560791015625,-0.918609619140625,-0.276123046875,0.0175323486328125
1772536769130657000,5.625656982421875,-0.90948486328125,-0.27337646484375,0.0106201171875
1772536769140705000,5.635705078125,-0.9061431884765625,-0.2759552001953125,0.0030059814453125
1772536769150754000,5.645754150390625,-0.9107818603515625,-0.2836761474609375,-0.007415771484375
1772536769160803000,5.655802978515625,-0.911224365234375,-0.295013427734375,-0.0168914794921875
1772536769170851000,5.66585107421875,-0.91888427734375,-0.3005828857421875,-0.022552490234375
1772536769180900000,5.675900146484375,-0.9311981201171875,-0.306549072265625,-0.0294952392578125
1772536769190948000,5.685947998046875,-0.933746337890625,-0.312103271484375,-0.0302581787109375
1772536769200997000,5.6959970703125,-0.937835693359375,-0.3185882568359375,-0.0338592529296875
1772536769211046000,5.7060458984375,-0.9366607666015625,-0.328704833984375,-0.030181884765625
1772536769221094100,5.71609423828125,-0.935821533203125,-0.33770751953125,-0.0251922607421875
1772536769231143000,5.726142822265625,-0.9333343505859375,-0.3419189453125,-0.0167694091796875
1772536769241192200,5.736192138671875,-0.9390716552734375,-0.344970703125,-0.014892578125
1772536769251240000,5.746239990234375,-0.9447479248046875,-0.341033935546875,-0.0149993896484375
1772536769261289200,5.756289306640625,-0.9444580078125,-0.3274383544921875,-0.017791748046875
1772536769271337000,5.7663369140625,-0.9449310302734375,-0.3110198974609375,-0.0249481201171875
1772536769281386200,5.77638623046875,-0.942108154296875,-0.2980194091796875,-0.0326995849609375
1772536769291435000,5.78643505859375,-0.935699462890625,-0.2955780029296875,-0.0420379638671875
1772536769301483300,5.796483154296875,-0.9337158203125,-0.3075103759765625,-0.046539306640625
1772536769311532000,5.806531982421875,-0.9205169677734375,-0.3040924072265625,-0.0355072021484375
1772536769321581000,5.8165810546875,-0.9119415283203125,-0.313812255859375,-0.03143310546875
1772536769331629000,5.826629150390625,-0.9124603271484375,-0.328460693359375,-0.0220794677734375
1772536769341678000,5.836677978515625,-0.9241943359375,-0.3391876220703125,-0.0075225830078125
1772536769351727000,5.84672705078125,-0.9254913330078125,-0.355133056640625,0.00384521484375
1772536769361775000,5.856775146484375,-0.9210205078125,-0.3664703369140625,0.0077972412109375
1772536769371824000,5.86682421875,-0.9202423095703125,-0.37030029296875,0.0079345703125
1772536769381872000,5.8768720703125,-0.92364501953125,-0.374267578125,0.004608154296875
1772536769391921200,5.886921142578125,-0.93157958984375,-0.37762451171875,0.0015106201171875
1772536769401970200,5.89697021484375,-0.940673828125,-0.37591552734375,-0.0030364990234375
1772536769412018200,5.90701806640625,-0.9511566162109375,-0.373321533203125,-0.00714111328125
1772536769422067200,5.917067138671875,-0.951416015625,-0.3730621337890625,-0.012054443359375
1772536769432116000,5.927115966796875,-0.95281982421875,-0.3646392822265625,-0.0135345458984375
1772536769442164200,5.937164306640625,-0.9423065185546875,-0.362030029296875,-0.0091094970703125
1772536769452213000,5.947212890625,-0.93603515625,-0.369232177734375,-0.008331298828125
1772536769462261500,5.957261474609375,-0.93438720703125,-0.37152099609375,0.005584716796875
1772536769472309200,5.967309326171875,-0.9280242919921875,-0.3832550048828125,0.0153961181640625
1772536769482358500,5.977358642578125,-0.9168701171875,-0.3864288330078125,0.0281219482421875
1772536769492407300,5.9874072265625,-0.91693115234375,-0.387481689453125,0.040557861328125
1772536769502455600,5.99745556640625,-0.916107177734375,-0.38885498046875,0.0478363037109375
1772536769512504300,6.00750439453125,-0.914398193359375,-0.385223388671875,0.05487060546875
1772536769522552600,6.017552490234375,-0.9195404052734375,-0.3806304931640625,0.05712890625
1772536769532601300,6.027601318359375,-0.91558837890625,-0.374908447265625,0.05133056640625
1772536769542650400,6.037650390625,-0.914398193359375,-0.367431640625,0.046142578125
1772536769552698400,6.047698486328125,-0.9364776611328125,-0.388153076171875,0.04180908203125
1772536769562747400,6.057747314453125,-0.9423675537109375,-0.3829803466796875,0.048492431640625
1772536769572796400,6.06779638671875,-0.9441986083984375,-0.3811492919921875,0.0470428466796875
1772536769582844400,6.077844482421875,-0.95166015625,-0.393829345703125,0.03936767578125
1772536769592893400,6.0878935546875,-0.9623870849609375,-0.3900299072265625,0.0385589599609375
1772536769602942500,6.0979423828125,-0.9752197265625,-0.38983154296875,0.0356903076171875
1772536769612990500,6.107990478515625,-0.98223876953125,-0.3928375244140625,0.028900146484375
1772536769623039500,6.11803955078125,-0.9815673828125,-0.3919219970703125,0.0281524658203125
1772536769633087500,6.12808740234375,-0.9823455810546875,-0.3981170654296875,0.03778076171875
1772536769643136500,6.138136474609375,-0.991912841796875,-0.411865234375,0.052520751953125
1772536769653185300,6.148185302734375,-1.000885009765625,-0.4126129150390625,0.064727783203125
1772536769663233300,6.1582333984375,-1.00640869140625,-0.4079437255859375,0.0744781494140625
1772536769673282300,6.1682822265625,-1.0135040283203125,-0.4103546142578125,0.083282470703125
1772536769683331600,6.17833154296875,-1.0183563232421875,-0.4105224609375,0.0891876220703125
1772536769693379300,6.18837939453125,-1.02655029296875,-0.393890380859375,0.0845794677734375
1772536769703428600,6.1984287109375,-1.033294677734375,-0.3658447265625,0.071441650390625
1772536769713476400,6.208476318359375,-1.0388031005859375,-0.3415985107421875,0.0589447021484375
1772536769723525400,6.218525390625,-1.03790283203125,-0.321502685546875,0.04425048828125
1772536769733574400,6.228574462890625,-1.0247039794921875,-0.3013458251953125,0.0313262939453125
1772536769743622400,6.238622314453125,-1.0082550048828125,-0.281402587890625,0.027923583984375
1772536769753671400,6.24867138671875,-0.9978485107421875,-0.2690582275390625,0.02447509765625
1772536769763720400,6.258720458984375,-0.9839324951171875,-0.263214111328125,0.030029296875
1772536769773768400,6.2687685546875,-0.96636962890625,-0.265380859375,0.0454559326171875
1772536769783817200,6.278817138671875,-0.9572601318359375,-0.2693328857421875,0.0625
1772536769793865500,6.288865478515625,-0.95904541015625,-0.2711639404296875,0.07568359375
1772536769803914200,6.298914306640625,-0.95452880859375,-0.2711334228515625,0.082916259765625
1772536769813963500,6.308963623046875,-0.9403228759765625,-0.2729034423828125,0.0841827392578125
1772536769824011300,6.31901123046875,-0.92767333984375,-0.28021240234375,0.0792999267578125
1772536769834060500,6.329060546875,-0.91473388671875,-0.2874298095703125,0.070068359375
1772536769844109300,6.339109375,-0.8956146240234375,-0.28973388671875,0.066650390625
1772536769854157600,6.349157470703125,-0.889190673828125,-0.2974853515625,0.0736236572265625
1772536769864206300,6.359206298828125,-0.89312744140625,-0.3113250732421875,0.0753936767578125
1772536769874255400,6.36925537109375,-0.8919219970703125,-0.3222503662109375,0.075927734375
1772536769884303400,6.379303466796875,-0.873199462890625,-0.331268310546875,0.08343505859375
1772536769894352400,6.389352294921875,-0.8588104248046875,-0.34112548828125,0.0969696044921875
1772536769904400400,6.399400390625,-0.8715972900390625,-0.350830078125,0.1082611083984375
1772536769914449400,6.409449462890625,-0.8978424072265625,-0.3513031005859375,0.1142578125
1772536769924498400,6.41949853515625,-0.90435791015625,-0.34405517578125,0.112579345703125
1772536769934546400,6.42954638671875,-0.904754638671875,-0.3315277099609375,0.1084442138671875
1772536769944595500,6.439595458984375,-0.90667724609375,-0.3188934326171875,0.09686279296875
1772536769954644500,6.44964453125,-0.9136505126953125,-0.3086090087890625,0.08563232421875
1772536769964692500,6.4596923828125,-0.9227447509765625,-0.296173095703125,0.073272705078125
1772536769974741500,6.469741455078125,-0.9188995361328125,-0.2857208251953125,0.0700225830078125
1772536769984789200,6.479789306640625,-0.921966552734375,-0.282745361328125,0.06817626953125
1772536769994838500,6.489838623046875,-0.9159698486328125,-0.283355712890625,0.069122314453125
1772536770004887300,6.49988720703125,-0.9194183349609375,-0.28533935546875,0.080596923828125
1772536770014935600,6.509935546875,-0.9217987060546875,-0.29437255859375,0.0820770263671875
1772536770024984300,6.519984375,-0.897308349609375,-0.29779052734375,0.08343505859375
1772536770035033300,6.530033447265625,-0.87451171875,-0.299346923828125,0.095733642578125
1772536770045081300,6.540081298828125,-0.87628173828125,-0.3089599609375,0.1055450439453125
1772536770055130400,6.55013037109375,-0.8819427490234375,-0.3214263916015625,0.1157379150390625
1772536770065178400,6.560178466796875,-0.8861541748046875,-0.3292694091796875,0.1243743896484375
1772536770075227400,6.570227294921875,-0.88519287109375,-0.3342437744140625,0.1251068115234375
1772536770085276400,6.5802763671875,-0.8807525634765625,-0.3366546630859375,0.1283111572265625
1772536770095324400,6.590324462890625,-0.8830413818359375,-0.3411712646484375,0.12811279296875
1772536770105373400,6.60037353515625,-0.88818359375,-0.342010498046875,0.125701904296875
1772536770115422500,6.61042236328125,-0.8914031982421875,-0.3406829833984375,0.1213226318359375
1772536770125470500,6.620470458984375,-0.8945159912109375,-0.341796875,0.1166839599609375
1772536770135519500,6.63051953125,-0.899169921875,-0.3491668701171875,0.1159210205078125
1772536770145567500,6.6405673828125,-0.8993072509765625,-0.3606109619140625,0.1173553466796875
1772536770155616300,6.6506162109375,-0.906951904296875,-0.369964599609375,0.1202239990234375
1772536770165665300,6.660665283203125,-0.9211578369140625,-0.3780517578125,0.1202850341796875
1772536770175713300,6.67071337890625,-0.9332733154296875,-0.38427734375,0.1169586181640625
1772536770185762300,6.68076220703125,-0.939056396484375,-0.3860626220703125,0.1087799072265625
1772536770195811600,6.6908115234375,-0.9449005126953125,-0.386566162109375,0.103057861328125
1772536770205859300,6.700859375,-0.9517059326171875,-0.3890228271484375,0.0920562744140625
1772536770215908400,6.710908447265625,-0.9600677490234375,-0.3955078125,0.081390380859375
1772536770225956400,6.720956298828125,-0.9725799560546875,-0.4044189453125,0.0807037353515625
1772536770236005400,6.73100537109375,-0.985870361328125,-0.41595458984375,0.0812530517578125
1772536770246054400,6.741054443359375,-0.9919586181640625,-0.4178009033203125,0.0773773193359375
1772536770256102400,6.751102294921875,-1.00250244140625,-0.418701171875,0.076202392578125
1772536770266151400,6.7611513671875,-1.0029449462890625,-0.415679931640625,0.069732666015625
1772536770276200200,6.7712001953125,-1.0064849853515625,-0.4001007080078125,0.07098388671875
1772536770286248400,6.78124853515625,-1.012176513671875,-0.3885498046875,0.0626068115234375
1772536770296297200,6.791297119140625,-1.0160675048828125,-0.3766632080078125,0.05828857421875
1772536770306345500,6.801345458984375,-1.0031280517578125,-0.36651611328125,0.047027587890625
1772536770316394200,6.811394287109375,-0.988494873046875,-0.3450164794921875,0.05047607421875
1772536770326443500,6.821443603515625,-0.982177734375,-0.3453216552734375,0.053131103515625
1772536770336491300,6.8314912109375,-0.9871826171875,-0.350494384765625,0.0601043701171875
1772536770346540500,6.84154052734375,-0.9949493408203125,-0.3582763671875,0.0706634521484375
1772536770356589300,6.85158935546875,-0.9987335205078125,-0.37225341796875,0.08367919921875
1772536770366637600,6.861637451171875,-1.0111541748046875,-0.3802337646484375,0.0840911865234375
1772536770376686300,6.871686279296875,-1.0207977294921875,-0.3782958984375,0.079620361328125
1772536770386734600,6.881734619140625,-1.0253143310546875,-0.3738555908203125,0.07330322265625
1772536770396783400,6.891783447265625,-1.0233306884765625,-0.3656768798828125,0.060302734375
1772536770406832400,6.901832275390625,-1.0172882080078125,-0.35028076171875,0.0457763671875
1772536770416880400,6.91188037109375,-1.0163726806640625,-0.3285980224609375,0.02972412109375
1772536770426929400,6.921929443359375,-1.011932373046875,-0.305999755859375,0.0152587890625
1772536770436978400,6.931978515625,-0.99652099609375,-0.2887420654296875,0.00482177734375
1772536770447026400,6.9420263671875,-0.981109619140625,-0.2773590087890625,-0.0006103515625
1772536770457075500,6.952075439453125,-0.9730224609375,-0.2693023681640625,0.0006256103515625
1772536770467123000,6.962123046875,-0.9586029052734375,-0.2662811279296875,0.0042724609375
1772536770477172200,6.972172119140625,-0.9438629150390625,-0.2607421875,0.00885009765625
1772536770487221200,6.98222119140625,-0.9379425048828125,-0.2532958984375,0.011810302734375
1772536770497269200,6.992269287109375,-0.93902587890625,-0.249786376953125,0.0083160400390625
1772536770507318300,7.002318359375,-0.933868408203125,-0.248077392578125,0.0019073486328125
1772536770517367000,7.012366943359375,-0.93096923828125,-0.25048828125,-0.00372314453125
1772536770527415000,7.0224150390625,-0.930877685546875,-0.25830078125,-0.0066070556640625
1772536770537464000,7.032464111328125,-0.93206787109375,-0.2724151611328125,-0.01373291015625
1772536770547512000,7.042511962890625,-0.939208984375,-0.2830657958984375,-0.0188140869140625
1772536770557561000,7.05256103515625,-0.942840576171875,-0.29638671875,-0.01947021484375
1772536770567610400,7.0626103515625,-0.9411468505859375,-0.310577392578125,-0.0152435302734375
1772536770577658000,7.072658203125,-0.947235107421875,-0.3191986083984375,-0.0113983154296875
1772536770587707100,7.08270703125,-0.9535675048828125,-0.3277435302734375,-0.01129150390625
1772536770597756200,7.092756103515625,-0.9490966796875,-0.3343963623046875,-0.002593994140625
1772536770607804200,7.10280419921875,-0.9483489990234375,-0.3358154296875,-0.001373291015625
1772536770617853200,7.112853271484375,-0.9480743408203125,-0.335296630859375,0.0018463134765625
1772536770627901200,7.122901123046875,-0.9442901611328125,-0.3321380615234375,0.002349853515625
1772536770637950200,7.1329501953125,-0.9345245361328125,-0.3285675048828125,0.001800537109375
1772536770647999000,7.1429990234375,-0.9284820556640625,-0.3230743408203125,0.0046844482421875
1772536770658047200,7.153047119140625,-0.9232635498046875,-0.3140716552734375,0.0035247802734375
1772536770668096000,7.163095947265625,-0.9084320068359375,-0.3068389892578125,0.0059967041015625
1772536770678145300,7.173145263671875,-0.897125244140625,-0.30523681640625,0.015533447265625
1772536770688193000,7.183193115234375,-0.8966217041015625,-0.3095550537109375,0.0272369384765625
1772536770698242300,7.1932421875,-0.8944854736328125,-0.3178863525390625,0.039337158203125
1772536770708290000,7.2032900390625,-0.8874969482421875,-0.3274078369140625,0.0461578369140625
1772536770718339300,7.21333935546875,-0.8834228515625,-0.3368072509765625,0.051300048828125
1772536770728388000,7.22338818359375,-0.8859100341796875,-0.3488616943359375,0.05596923828125
1772536770738436000,7.23343603515625,-0.88916015625,-0.359222412109375,0.0551605224609375
1772536770748485000,7.243485107421875,-0.8864288330078125,-0.3661346435546875,0.0513916015625
1772536770758534100,7.2535341796875,-0.8865966796875,-0.3719329833984375,0.047882080078125
1772536770768582100,7.26358203125,-0.8913726806640625,-0.3776702880859375,0.0479736328125
1772536770778631200,7.273631103515625,-0.8997344970703125,-0.381988525390625,0.0473480224609375
1772536770788679200,7.28367919921875,-0.904388427734375,-0.38055419921875,0.0420684814453125
1772536770798728200,7.293728271484375,-0.897430419921875,-0.3784942626953125,0.0380401611328125
1772536770808777200,7.303777099609375,-0.89434814453125,-0.376312255859375,0.0384521484375
1772536770818825200,7.3138251953125,-0.899566650390625,-0.3746490478515625,0.040802001953125
1772536770828874000,7.3238740234375,-0.9036865234375,-0.3741455078125,0.04150390625
1772536770838923300,7.33392333984375,-0.9013214111328125,-0.3729248046875,0.0447998046875
1772536770848971000,7.343970947265625,-0.8984527587890625,-0.3722991943359375,0.043731689453125
1772536770859020300,7.354020263671875,-0.895843505859375,-0.374969482421875,0.0436859130859375
1772536770869068000,7.364068115234375,-0.891998291015625,-0.3812713623046875,0.0488128662109375
1772536770879117300,7.374117431640625,-0.8865509033203125,-0.384368896484375,0.0501251220703125
1772536770889166000,7.384166015625,-0.879852294921875,-0.3881683349609375,0.054779052734375
1772536770899214000,7.394214111328125,-0.887451171875,-0.392181396484375,0.0627899169921875
1772536770909263000,7.40426318359375,-0.902862548828125,-0.4031219482421875,0.0697174072265625
1772536770919312100,7.41431201171875,-0.9018402099609375,-0.4099578857421875,0.0717620849609375
1772536770929360100,7.424360107421875,-0.89691162109375,-0.4127960205078125,0.0735626220703125
1772536770939409200,7.4344091796875,-0.906036376953125,-0.4170379638671875,0.0745849609375
1772536770949457200,7.44445703125,-0.92437744140625,-0.42303466796875,0.07122802734375
1772536770959506000,7.454505859375,-0.929718017578125,-0.4268035888671875,0.0687103271484375
1772536770969555200,7.46455517578125,-0.9338836669921875,-0.427886962890625,0.0621185302734375
1772536770979603000,7.47460302734375,-0.9466094970703125,-0.4292755126953125,0.0582122802734375
1772536770989652200,7.48465234375,-0.9706268310546875,-0.437347412109375,0.058349609375
1772536770999700000,7.494699951171875,-0.965606689453125,-0.44049072265625,0.04010009765625
1772536771009749200,7.504749267578125,-0.9576263427734375,-0.4265594482421875,0.03887939453125
1772536771019798000,7.514798095703125,-0.9826812744140625,-0.42108154296875,0.0566864013671875
1772536771029846300,7.52484619140625,-0.981689453125,-0.4337005615234375,0.031402587890625
1772536771039895000,7.53489501953125,-0.9473114013671875,-0.42108154296875,0.0279693603515625
1772536771049944000,7.544944091796875,-0.9447784423828125,-0.4078369140625,0.026031494140625
1772536771059992000,7.554991943359375,-0.9386138916015625,-0.411285400390625,0.0220184326171875
1772536771070041000,7.565041015625,-0.9433135986328125,-0.390350341796875,0.02581787109375
1772536771080089000,7.575089111328125,-0.9517822265625,-0.387786865234375,0.0281219482421875
1772536771090138000,7.58513818359375,-0.9486236572265625,-0.38836669921875,0.0321502685546875
1772536771100187100,7.595187255859375,-0.9382476806640625,-0.3858184814453125,0.04608154296875
1772536771110235100,7.605235107421875,-0.929779052734375,-0.397613525390625,0.067413330078125
1772536771120284200,7.6152841796875,-0.9376068115234375,-0.4119415283203125,0.0862274169921875
1772536771130333200,7.625333251953125,-0.955322265625,-0.408233642578125,0.0998077392578125
1772536771140381200,7.635381103515625,-0.967132568359375,-0.3964385986328125,0.1083221435546875
1772536771150430200,7.64543017578125,-0.967010498046875,-0.401092529296875,0.111419677734375
1772536771160478200,7.655478271484375,-0.96575927734375,-0.415771484375,0.1090087890625
1772536771170527200,7.66552734375,-0.97821044921875,-0.4160614013671875,0.1004180908203125
1772536771180576000,7.675575927734375,-0.9973602294921875,-0.400360107421875,0.0839385986328125
1772536771190624300,7.685624267578125,-1.0030517578125,-0.3836669921875,0.063507080078125
1772536771200673000,7.695673095703125,-0.9968414306640625,-0.3684844970703125,0.049591064453125
1772536771210722300,7.705722412109375,-0.9850311279296875,-0.35284423828125,0.04150390625
1772536771220770000,7.71577001953125,-0.9767913818359375,-0.3353424072265625,0.041168212890625
1772536771230819300,7.7258193359375,-0.973968505859375,-0.3175811767578125,0.04425048828125
1772536771240867000,7.7358671875,-0.9652862548828125,-0.3044281005859375,0.055084228515625
1772536771250916400,7.745916259765625,-0.95660400390625,-0.2937774658203125,0.0651397705078125
1772536771260965000,7.755965087890625,-0.9582672119140625,-0.2822265625,0.0792388916015625
1772536771271013400,7.766013427734375,-0.9571075439453125,-0.27435302734375,0.0894012451171875
1772536771281062100,7.776062255859375,-0.9470977783203125,-0.2713470458984375,0.099945068359375
1772536771291110100,7.786110107421875,-0.939849853515625,-0.2671661376953125,0.106231689453125
1772536771301159200,7.7961591796875,-0.9383697509765625,-0.2660064697265625,0.105560302734375
1772536771311208200,7.806208251953125,-0.9376220703125,-0.264984130859375,0.1034698486328125
1772536771321256200,7.816256103515625,-0.9394378662109375,-0.259979248046875,0.0991973876953125
1772536771331305200,7.82630517578125,-0.936767578125,-0.25823974609375,0.0992889404296875
1772536771341354200,7.836354248046875,-0.93829345703125,-0.259429931640625,0.1053314208984375
1772536771351402000,7.846402099609375,-0.9398193359375,-0.2615509033203125,0.109893798828125
1772536771361451300,7.856451171875,-0.932464599609375,-0.2641448974609375,0.112884521484375
1772536771371499000,7.8664990234375,-0.9295806884765625,-0.2631988525390625,0.1172332763671875
1772536771381548300,7.87654833984375,-0.9351348876953125,-0.26580810546875,0.124298095703125
1772536771391597000,7.88659716796875,-0.9445648193359375,-0.2713775634765625,0.1279296875
1772536771401645000,7.89664501953125,-0.9527740478515625,-0.2730865478515625,0.128387451171875
1772536771411694000,7.906694091796875,-0.9534759521484375,-0.2708892822265625,0.117919921875
1772536771421743000,7.9167431640625,-0.9561309814453125,-0.265594482421875,0.108154296875
1772536771431791000,7.926791015625,-0.9696502685546875,-0.265716552734375,0.0985565185546875
1772536771441840000,7.936840087890625,-0.979949951171875,-0.2707672119140625,0.0858612060546875
1772536771451888000,7.94688818359375,-0.97698974609375,-0.272735595703125,0.0792999267578125
1772536771461937200,7.956937255859375,-0.968170166015625,-0.2781982421875,0.0695953369140625
1772536771471987200,7.9669873046875,-0.95245361328125,-0.279052734375,0.0623626708984375
1772536771482035200,7.97703515625,-0.9370269775390625,-0.2761077880859375,0.05963134765625
1772536771492084200,7.987084228515625,-0.9268341064453125,-0.272918701171875,0.0592041015625
1772536771502133200,7.99713330078125,-0.9224090576171875,-0.2723846435546875,0.064849853515625
1772536771512181000,8.007180908203125,-0.9139556884765625,-0.2771453857421875,0.0697021484375
1772536771522230300,8.017230224609374,-0.899261474609375,-0.2793426513671875,0.0699310302734375
1772536771532278000,8.027278076171875,-0.8904266357421875,-0.2820892333984375,0.072967529296875
1772536771542327000,8.0373271484375,-0.890838623046875,-0.2886810302734375,0.0733489990234375
1772536771552376000,8.0473759765625,-0.8912353515625,-0.29510498046875,0.0721435546875
1772536771562424000,8.057424072265626,-0.8932952880859375,-0.3033905029296875,0.0709991455078125
1772536771572473000,8.06747314453125,-0.8944854736328125,-0.3121795654296875,0.0666046142578125
1772536771582521000,8.07752099609375,-0.8886871337890625,-0.3175506591796875,0.0640411376953125
1772536771592570000,8.087570068359375,-0.8877105712890625,-0.3231048583984375,0.063995361328125
1772536771602619100,8.097619140625,-0.899322509765625,-0.3308258056640625,0.0640411376953125
1772536771612667100,8.107667236328124,-0.9050750732421875,-0.337646484375,0.066558837890625
1772536771622716200,8.117716064453125,-0.900634765625,-0.3415985107421875,0.0704803466796875
1772536771632765000,8.127764892578124,-0.8911285400390625,-0.341339111328125,0.072723388671875
1772536771642813200,8.137813232421875,-0.879852294921875,-0.3433837890625,0.074798583984375
1772536771652862000,8.147862060546874,-0.868988037109375,-0.344635009765625,0.0789947509765625
1772536771662910200,8.15791015625,-0.870819091796875,-0.3491668701171875,0.08447265625
1772536771672959000,8.167958984375,-0.8795318603515625,-0.3546905517578125,0.0858612060546875
1772536771683008300,8.17800830078125,-0.8876800537109375,-0.3694000244140625,0.0927886962890625
1772536771693056000,8.188055908203125,-0.892578125,-0.3826446533203125,0.0948333740234375
1772536771703105300,8.198105224609375,-0.8961639404296875,-0.38812255859375,0.090301513671875
1772536771713154000,8.208154052734375,-0.904022216796875,-0.3903045654296875,0.0916900634765625
1772536771723202300,8.218202392578124,-0.920379638671875,-0.392822265625,0.0954437255859375
1772536771733251000,8.2282509765625,-0.929931640625,-0.395050048828125,0.0955963134765625
1772536771743299300,8.23829931640625,-0.9406585693359375,-0.391754150390625,0.0906524658203125
1772536771753348000,8.24834814453125,-0.9618682861328125,-0.38543701171875,0.080841064453125
1772536771763397000,8.258397216796874,-0.9816436767578125,-0.3812408447265625,0.073822021484375
1772536771773445000,8.268445068359375,-0.9959564208984375,-0.37481689453125,0.0618743896484375
1772536771783494100,8.278494140625,-1.00054931640625,-0.3657684326171875,0.048309326171875
1772536771793542100,8.288542236328125,-1.0178375244140625,-0.352752685546875,0.03662109375
1772536771803591200,8.298591064453126,-1.0392913818359375,-0.3435821533203125,0.026123046875
1772536771813640200,8.30864013671875,-1.049346923828125,-0.3459320068359375,0.0265045166015625
1772536771823688000,8.31868798828125,-1.0524444580078125,-0.370086669921875,0.0448455810546875
1772536771833737200,8.3287373046875,-1.0751190185546875,-0.39459228515625,0.0635528564453125
1772536771843786200,8.3387861328125,-1.11541748046875,-0.392730712890625,0.061981201171875
1772536771853834200,8.348834228515624,-1.1432342529296875,-0.3892822265625,0.0586395263671875
1772536771863883300,8.35888330078125,-1.147857666015625,-0.390838623046875,0.0499267578125
1772536771873931300,8.36893115234375,-1.1392669677734375,-0.380523681640625,0.034332275390625
1772536771883980000,8.37897998046875,-1.1403656005859375,-0.34918212890625,0.015228271484375
1772536771894029000,8.389029052734376,-1.1227264404296875,-0.3225860595703125,-0.0161285400390625
1772536771904077000,8.3990771484375,-1.0899200439453125,-0.285888671875,-0.03564453125
1772536771914126000,8.4091259765625,-1.062744140625,-0.26519775390625,-0.0455169677734375
1772536771924174000,8.419174072265625,-1.0352783203125,-0.25018310546875,-0.043426513671875
1772536771934223000,8.42922314453125,-1.0058746337890625,-0.2371978759765625,-0.0348663330078125
1772536771944272100,8.439272216796875,-0.9627838134765625,-0.2329254150390625,-0.023773193359375
1772536771954320100,8.449320068359375,-0.943634033203125,-0.22747802734375,-0.0058441162109375
1772536771964369200,8.459369140625,-0.93499755859375,-0.2413177490234375,0.0149993896484375
1772536771974418200,8.469418212890625,-0.9288177490234375,-0.259033203125,0.0338897705078125
1772536771984466200,8.479466064453124,-0.9232940673828125,-0.264678955078125,0.0426788330078125
1772536771994515200,8.48951513671875,-0.9202423095703125,-0.26983642578125,0.038116455078125
1772536772004563200,8.499563232421876,-0.924713134765625,-0.2752838134765625,0.027557373046875
1772536772014612200,8.5096123046875,-0.92364501953125,-0.279266357421875,0.0153656005859375
1772536772024661000,8.519660888671876,-0.9222564697265625,-0.28662109375,0.0025177001953125
1772536772034709200,8.529709228515625,-0.9224853515625,-0.2964019775390625,-0.0076751708984375
1772536772044758000,8.539758056640625,-0.9242095947265625,-0.3084259033203125,-0.0074920654296875
1772536772054807300,8.549807373046875,-0.9271392822265625,-0.3202972412109375,-0.00347900390625
1772536772064855000,8.55985498046875,-0.933319091796875,-0.326416015625,0.0001068115234375
1772536772074904300,8.569904296875,-0.9387054443359375,-0.327423095703125,0.0022430419921875
1772536772084952000,8.5799521484375,-0.9398193359375,-0.3251190185546875,0.0053863525390625
1772536772095001300,8.59000146484375,-0.94256591796875,-0.3211212158203125,0.0032196044921875
1772536772105050000,8.600050048828125,-0.935546875,-0.3170623779296875,0.0005645751953125
1772536772115098000,8.61009814453125,-0.9198150634765625,-0.313568115234375,0.000030517578125
1772536772125147100,8.620147216796875,-0.901885986328125,-0.3076019287109375,-0.0042724609375
1772536772135195100,8.630195068359376,-0.8865203857421875,-0.308502197265625,-0.0041656494140625
1772536772145244200,8.640244140625,-0.8849029541015625,-0.3122711181640625,0.001556396484375
1772536772155293200,8.650293212890626,-0.887054443359375,-0.318878173828125,0.0096282958984375
1772536772165341200,8.660341064453124,-0.8833770751953125,-0.3298187255859375,0.017425537109375
1772536772175390200,8.67039013671875,-0.8775787353515625,-0.3385467529296875,0.01483154296875
1772536772185439200,8.680439208984374,-0.8720703125,-0.345001220703125,0.010650634765625
1772536772195487200,8.6904873046875,-0.8713836669921875,-0.357147216796875,0.00738525390625
1772536772205536000,8.700535888671874,-0.8749542236328125,-0.37005615234375,0.0066070556640625
1772536772215584000,8.710583984375,-0.8768463134765625,-0.3800201416015625,0.005218505859375
1772536772225633000,8.720633056640626,-0.87811279296875,-0.3878021240234375,0.0050201416015625
1772536772235682300,8.730682373046875,-0.8797607421875,-0.392913818359375,0.0066986083984375
1772536772245730000,8.74072998046875,-0.881317138671875,-0.3961944580078125,0.0121307373046875
1772536772255779300,8.750779296875,-0.8872222900390625,-0.3957977294921875,0.0168914794921875
1772536772265828000,8.760828125,-0.8880462646484375,-0.3925323486328125,0.022216796875
1772536772275876000,8.7708759765625,-0.8828887939453125,-0.3934326171875,0.0262908935546875
1772536772285925000,8.780925048828125,-0.880126953125,-0.3916473388671875,0.0272674560546875
1772536772295973000,8.79097314453125,-0.8792724609375,-0.3880615234375,0.0298309326171875
1772536772306022100,8.801022216796875,-0.875030517578125,-0.3916778564453125,0.0337371826171875
1772536772316071000,8.81107080078125,-0.8780517578125,-0.3958587646484375,0.037261962890625
1772536772326119200,8.821119140625,-0.8803558349609375,-0.399749755859375,0.0434417724609375
1772536772336168000,8.83116796875,-0.886810302734375,-0.40447998046875,0.04888916015625
1772536772346216200,8.84121630859375,-0.8928070068359375,-0.4064483642578125,0.05029296875
1772536772356265000,8.851264892578126,-0.8920135498046875,-0.4083709716796875,0.05419921875
1772536772366314200,8.861314208984375,-0.890045166015625,-0.4128265380859375,0.059906005859375
1772536772376362000,8.871362060546875,-0.896087646484375,-0.4173583984375,0.0670013427734375
1772536772386411300,8.881411376953125,-0.9063262939453125,-0.4176483154296875,0.07232666015625
1772536772396460000,8.8914599609375,-0.9111785888671875,-0.41748046875,0.07574462890625
1772536772406508300,8.90150830078125,-0.91217041015625,-0.4155426025390625,0.0743255615234375
1772536772416557000,8.91155712890625,-0.9114990234375,-0.412841796875,0.0717010498046875
1772536772426605300,8.921605224609374,-0.9185028076171875,-0.409454345703125,0.0655364990234375
1772536772436654000,8.931654052734375,-0.9223480224609375,-0.406005859375,0.0608673095703125
1772536772446703000,8.941703125,-0.9316253662109375,-0.406524658203125,0.051605224609375
1772536772456751000,8.951751220703125,-0.9331207275390625,-0.405731201171875,0.0453338623046875
1772536772466799600,8.961799560546876,-0.9323272705078125,-0.4083099365234375,0.03887939453125
1772536772476847400,8.971847412109375,-0.943756103515625,-0.4107818603515625,0.03240966796875
1772536772486896600,8.981896728515625,-0.954620361328125,-0.41595458984375,0.034088134765625
1772536772496945700,8.991945556640625,-0.9622650146484375,-0.4162750244140625,0.03668212890625
1772536772506993400,9.001993408203125,-0.9580841064453125,-0.4150390625,0.037933349609375
1772536772517042700,9.012042724609374,-0.9492645263671875,-0.4176025390625,0.0390777587890625
1772536772527091500,9.022091552734375,-0.9547271728515625,-0.4156036376953125,0.0624237060546875
1772536772537139500,9.032139404296874,-0.959808349609375,-0.4294891357421875,0.0754852294921875
1772536772547188500,9.0421884765625,-0.95806884765625,-0.435394287109375,0.071533203125
1772536772557236500,9.052236572265626,-0.976226806640625,-0.4221038818359375,0.079345703125
1772536772567285500,9.062285400390625,-1.0111846923828125,-0.435699462890625,0.0829925537109375
1772536772577334500,9.07233447265625,-1.0091094970703125,-0.4474945068359375,0.07733154296875
1772536772587382500,9.082382568359375,-1.013824462890625,-0.4329376220703125,0.0687255859375
1772536772597431300,9.092431396484375,-1.0366668701171875,-0.41485595703125,0.05523681640625
1772536772607480600,9.10248046875,-1.0501861572265625,-0.39935302734375,0.04833984375
1772536772617528300,9.1125283203125,-1.043609619140625,-0.38214111328125,0.0369415283203125
1772536772627577600,9.12257763671875,-1.0181121826171875,-0.3655853271484375,0.02691650390625
1772536772637625300,9.132625244140625,-0.99591064453125,-0.3538818359375,0.0384063720703125
1772536772647674600,9.142674560546874,-0.967010498046875,-0.33807373046875,0.037841796875
