time,seconds_elapsed,z,y,x
1772536763578783000,0.073782958984375,-0.2831643223762512,-0.12942004203796387,0.015588014386594296
1772536763588831000,0.0838310546875,-0.26651424169540405,-0.13718555867671967,-0.012927782721817493
1772536763598880000,0.0938798828125,-0.22700731456279755,-0.08666272461414337,-0.03027161955833435
1772536763608929000,0.103928955078125,-0.18894115090370178,0.006590791046619415,-0.018019214272499084
1772536763618976800,0.113976806640625,-0.17293502390384674,0.05011563003063202,-0.007802529260516167
1772536763629026000,0.124026123046875,-0.15897633135318756,0.018799254670739174,-0.0075718993321061134
1772536763639075000,0.134074951171875,-0.16386696696281433,-0.06165963411331177,-0.029738720506429672
1772536763649123000,0.144123046875,-0.1849227100610733,-0.1589968353509903,-0.061773885041475296
1772536763659172000,0.154172119140625,-0.1877206265926361,-0.2553585171699524,-0.08154359459877014
1772536763669220900,0.164220947265625,-0.16197319328784943,-0.3389042913913727,-0.08449224382638931
1772536763679268900,0.174268798828125,-0.13853204250335693,-0.3639417290687561,-0.05421077460050583
1772536763689318000,0.18431787109375,-0.1108681932091713,-0.3276764154434204,0.0030458574183285236
1772536763699367200,0.1943671875,-0.05318013206124306,-0.2454499751329422,0.07857390493154526
1772536763709415000,0.204414794921875,-0.006419549696147442,-0.16694878041744232,0.15686285495758057
1772536763719464000,0.2144638671875,0.036864008754491806,-0.10576983541250229,0.21043074131011963
1772536763729513000,0.224512939453125,0.09763254970312119,-0.07142331451177597,0.22250311076641083
1772536763739561000,0.23456103515625,0.1557922661304474,-0.02629978023469448,0.21024911105632782
1772536763749610000,0.24460986328125,0.2042255699634552,0.008804677054286003,0.1657162606716156
1772536763759659000,0.254658935546875,0.24092791974544525,0.04899497330188751,0.1235099509358406
1772536763769707000,0.26470703125,0.2697044610977173,0.10983195900917053,0.11026392132043839
1772536763779755800,0.274755859375,0.2900291681289673,0.14265595376491547,0.1380859613418579
1772536763789805000,0.28480517578125,0.30960872769355774,0.12928208708763123,0.20409826934337616
1772536763799852800,0.294852783203125,0.34098076820373535,0.09662800282239914,0.2826135754585266
1772536763809902000,0.304902099609375,0.3857724666595459,0.0722329169511795,0.35811924934387207
1772536763819951000,0.314951171875,0.42615291476249695,0.05747847259044647,0.4040367007255554
1772536763829998800,0.324998779296875,0.45722320675849915,0.05748086795210838,0.4109180271625519
1772536763840047900,0.3350478515625,0.4875220060348511,0.07993318140506744,0.38454633951187134
1772536763850095900,0.345095947265625,0.5255783200263977,0.1119433119893074,0.3292929530143738
1772536763860145000,0.355144775390625,0.5644322037696838,0.09225456416606903,0.2489355206489563
1772536763870194000,0.36519384765625,0.5716275572776794,0.009180715307593346,0.15883758664131165
1772536763880242000,0.375241943359375,0.5595746040344238,-0.08934852480888367,0.07623697817325592
1772536763890291000,0.385291015625,0.5507611632347107,-0.1746293306350708,0.007505586836487055
1772536763900340000,0.395340087890625,0.5185629725456238,-0.24773842096328735,-0.04580583795905113
1772536763910388000,0.405387939453125,0.46541428565979004,-0.3188653290271759,-0.08656179159879684
1772536763920436700,0.415436767578125,0.4038199186325073,-0.3820435106754303,-0.12300874292850494
1772536763930486000,0.425486083984375,0.346425861120224,-0.40138471126556396,-0.13701963424682617
1772536763940533800,0.43553369140625,0.29429954290390015,-0.39202049374580383,-0.13098251819610596
1772536763950583000,0.4455830078125,0.2866509258747101,-0.3237287998199463,-0.11280457675457001
1772536763960631800,0.4556318359375,0.300808846950531,-0.19122055172920227,-0.06125909462571144
1772536763970680000,0.46568017578125,0.31315046548843384,-0.06369215995073318,-0.004274906124919653
1772536763980728800,0.475728759765625,0.33287569880485535,-0.0015185344964265823,0.04736511781811714
1772536763990777900,0.48577783203125,0.35545769333839417,0.02642281912267208,0.09834414720535278
1772536764000825900,0.495825927734375,0.363910049200058,0.05494314432144165,0.14882010221481323
1772536764010875000,0.505875,0.3641798198223114,0.09720617532730103,0.20775799453258514
1772536764020924000,0.515923828125,0.3654373586177826,0.1442330777645111,0.26897287368774414
1772536764030972000,0.525971923828125,0.3752567172050476,0.1887773722410202,0.3114319145679474
1772536764041021000,0.53602099609375,0.3697548806667328,0.2236538678407669,0.33274519443511963
1772536764051070000,0.546070068359375,0.3473379909992218,0.227554589509964,0.32454532384872437
1772536764061118000,0.556117919921875,0.3113003671169281,0.18289685249328613,0.2916145324707031
1772536764071167000,0.5661669921875,0.2805466949939728,0.1018800288438797,0.23431237041950226
1772536764081215700,0.5762158203125,0.2643355131149292,0.029923010617494583,0.1840028613805771
1772536764091264000,0.586263916015625,0.2422690987586975,0.011847072280943394,0.1418609917163849
1772536764101312800,0.596312744140625,0.21597756445407867,0.033663686364889145,0.10951344668865204
1772536764111362000,0.606362060546875,0.18640689551830292,0.04688628390431404,0.07124701887369156
1772536764121409800,0.616409912109375,0.15935450792312622,0.034576352685689926,0.024595890194177628
1772536764131459000,0.626458984375,0.1513034999370575,0.02177826687693596,-0.015299860388040543
1772536764141507800,0.6365078125,0.15952734649181366,0.03784378618001938,-0.05438600853085518
1772536764151556000,0.64655615234375,0.16030365228652954,0.0409916415810585,-0.07969775795936584
1772536764161604900,0.65660498046875,0.15225984156131744,-0.0005912217311561108,-0.1158650815486908
1772536764171654000,0.66665380859375,0.14332866668701172,-0.06535264104604721,-0.15476533770561218
1772536764181702000,0.676701904296875,0.1296575963497162,-0.11004900932312012,-0.19719348847866058
1772536764191751000,0.6867509765625,0.11206848174333572,-0.10846735537052155,-0.22788776457309723
1772536764201799000,0.696798828125,0.09734226763248444,-0.057497382164001465,-0.25359925627708435
1772536764211848000,0.706847900390625,0.09412650018930435,0.019944146275520325,-0.27370452880859375
1772536764221897000,0.71689697265625,0.10274448990821838,0.10261159390211105,-0.30886223912239075
1772536764231945000,0.726945068359375,0.12580400705337524,0.1740516871213913,-0.3331236243247986
1772536764241994000,0.736993896484375,0.15395574271678925,0.24399907886981964,-0.3384590148925781
1772536764252043000,0.74704296875,0.18265210092067719,0.28484079241752625,-0.32978057861328125
1772536764262091000,0.757091064453125,0.2129543423652649,0.30148714780807495,-0.3012261390686035
1772536764272140000,0.76714013671875,0.2309218943119049,0.3146556615829468,-0.26106780767440796
1772536764282188800,0.777188720703125,0.23841150104999542,0.29834994673728943,-0.228188157081604
1772536764292237000,0.787237060546875,0.22492019832134247,0.26192909479141235,-0.20892764627933502
1772536764302285800,0.797285888671875,0.21012075245380402,0.21643216907978058,-0.20299997925758362
1772536764312335000,0.807335205078125,0.18873050808906555,0.16763480007648468,-0.20526553690433502
1772536764322382800,0.8173828125,0.1715232878923416,0.13546355068683624,-0.21038386225700378
1772536764332432100,0.82743212890625,0.14941158890724182,0.0936007872223854,-0.2077566534280777
1772536764342481000,0.83748095703125,0.1428881734609604,0.05475592240691185,-0.20007556676864624
1772536764352529200,0.847529052734375,0.1496637910604477,0.038292527198791504,-0.17793405055999756
1772536764362578000,0.857577880859375,0.16640175879001617,0.04019562155008316,-0.13740579783916473
1772536764372627000,0.867626953125,0.17895883321762085,0.046549659222364426,-0.10135059058666229
1772536764382675000,0.877675048828125,0.18248538672924042,0.03689729794859886,-0.07499940693378448
1772536764392724000,0.887723876953125,0.16924868524074554,0.017039703205227852,-0.06494943797588348
1772536764402773000,0.89777294921875,0.12704449892044067,-0.012556537985801697,-0.06320267170667648
1772536764412821000,0.907821044921875,0.07466651499271393,-0.05288851633667946,-0.0635419562458992
1772536764422870000,0.9178701171875,0.02389547973871231,-0.08834637701511383,-0.04769641533493996
1772536764432919000,0.9279189453125,-0.030340062454342842,-0.10986178368330002,-0.0026612968649715185
1772536764442967000,0.937967041015625,-0.07061877846717834,-0.10739436745643616,0.07266328483819962
1772536764453016000,0.94801611328125,-0.10080783814191818,-0.10963621735572815,0.17172595858573914
1772536764463061800,0.958061767578125,-0.11686589568853378,-0.11104316264390945,0.26787805557250977
1772536764473110000,0.968110107421875,-0.13294686377048492,-0.11145595461130142,0.3369537889957428
1772536764483158800,0.97815869140625,-0.1437087059020996,-0.0904710441827774,0.36941638588905334
1772536764493207800,0.988207763671875,-0.16540732979774475,-0.050459180027246475,0.36497291922569275
1772536764503255800,0.998255859375,-0.18892650306224823,-0.0012037487467750907,0.33301737904548645
1772536764513304800,1.008304931640625,-0.22957833111286163,0.04391073063015938,0.2898176908493042
1772536764523352800,1.018352783203125,-0.2823214530944824,0.06940624117851257,0.23949435353279114
1772536764533401900,1.02840185546875,-0.33398836851119995,0.08378490805625916,0.1995125710964203
1772536764543451000,1.038450927734375,-0.36338886618614197,0.11700757592916489,0.17248602211475372
1772536764553499000,1.048498779296875,-0.37881147861480713,0.18701356649398804,0.17391081154346466
1772536764563548000,1.0585478515625,-0.3739413619041443,0.24322250485420227,0.2042045295238495
1772536764573597000,1.068596923828125,-0.36729517579078674,0.2759961783885956,0.24120596051216125
1772536764583645000,1.07864501953125,-0.3551647663116455,0.28758305311203003,0.2846572995185852
1772536764593694000,1.08869384765625,-0.32518821954727173,0.34718751907348633,0.32321402430534363
1772536764603742700,1.09874267578125,-0.28653961420059204,0.4016076326370239,0.33440008759498596
1772536764613791000,1.108791015625,-0.2638673186302185,0.39492201805114746,0.30335214734077454
1772536764623839700,1.11883984375,-0.26963838934898376,0.29005712270736694,0.22322961688041687
1772536764633889000,1.128888916015625,-0.2960444390773773,0.13248534500598907,0.11614471673965454
1772536764643936800,1.138936767578125,-0.32732459902763367,-0.014707040973007679,0.035893287509679794
1772536764653986000,1.148986083984375,-0.3601640462875366,-0.18061797320842743,-0.008132761344313622
1772536764664034800,1.159034912109375,-0.4073469936847687,-0.3346389830112457,-0.009638778865337372
1772536764674083000,1.1690830078125,-0.45362740755081177,-0.3950410485267639,0.009921606630086899
1772536764684131800,1.1791318359375,-0.4943349063396454,-0.37340420484542847,0.0024972460232675076
1772536764694180900,1.189180908203125,-0.5204544067382812,-0.29980960488319397,-0.03730795532464981
1772536764704228900,1.199228759765625,-0.5370810031890869,-0.18655575811862946,-0.10294289141893387
1772536764714278000,1.20927783203125,-0.5431346297264099,-0.08671358972787857,-0.16677753627300262
1772536764724327000,1.219326904296875,-0.5537063479423523,0.014247379265725613,-0.20549936592578888
1772536764734375000,1.229375,-0.5289629101753235,0.1092228963971138,-0.21651339530944824
1772536764744424000,1.239423828125,-0.49646782875061035,0.17545704543590546,-0.18640902638435364
1772536764754473000,1.249472900390625,-0.4627913534641266,0.18735285103321075,-0.13161687552928925
1772536764764521000,1.25952099609375,-0.41701561212539673,0.15638375282287598,-0.05380810424685478
1772536764774570000,1.269570068359375,-0.3643271028995514,0.11412657052278519,0.04163213074207306
1772536764784618800,1.27961865234375,-0.30911096930503845,0.06483279168605804,0.1389477699995041
1772536764794667000,1.2896669921875,-0.2753641903400421,-0.017899371683597565,0.20609484612941742
1772536764804715800,1.2997158203125,-0.24724121391773224,-0.11100960522890091,0.22965875267982483
1772536764814765000,1.30976513671875,-0.23371368646621704,-0.1323188841342926,0.22362510859966278
1772536764824812800,1.319812744140625,-0.2401159256696701,-0.0762801244854927,0.19305413961410522
1772536764834862000,1.329862060546875,-0.2598411738872528,-0.025484055280685425,0.13003230094909668
1772536764844909800,1.339909912109375,-0.28071555495262146,-0.013860155828297138,0.02773602306842804
1772536764854959000,1.349958984375,-0.3021739721298218,0.0016029566759243608,-0.08745341747999191
1772536764865007900,1.3600078125,-0.3218110501766205,0.061778146773576736,-0.18526466190814972
1772536764875055900,1.370055908203125,-0.33614498376846313,0.14277872443199158,-0.25188469886779785
1772536764885105000,1.38010498046875,-0.3385261297225952,0.20082791149616241,-0.29188138246536255
1772536764895154000,1.39015380859375,-0.3427203297615051,0.18788015842437744,-0.31250783801078796
1772536764905202000,1.400201904296875,-0.33308422565460205,0.10903727263212204,-0.30358439683914185
1772536764915251000,1.4102509765625,-0.2803666889667511,0.07031916826963425,-0.2429327517747879
1772536764925300000,1.420300048828125,-0.23370836675167084,0.11387037485837936,-0.1323026418685913
1772536764935347700,1.43034765625,-0.2030300796031952,0.16626673936843872,-0.025742381811141968
1772536764945397000,1.44039697265625,-0.1753944605588913,0.12889832258224487,0.050754524767398834
1772536764955446000,1.450446044921875,-0.1643146425485611,0.026031067594885826,0.09330891072750092
1772536764965494000,1.460493896484375,-0.1687815636396408,-0.07359538972377777,0.1000850573182106
1772536764975542800,1.470542724609375,-0.17451028525829315,-0.1386425644159317,0.08713144063949585
1772536764985591800,1.480591796875,-0.18230056762695312,-0.13656583428382874,0.0785486027598381
1772536764995639800,1.490639892578125,-0.1926615983247757,-0.09753427654504776,0.07582125812768936
1772536765005688800,1.500688720703125,-0.2083369642496109,-0.07657840102910995,0.07426677644252777
1772536765015738000,1.510738037109375,-0.22134357690811157,-0.08537481725215912,0.0634428858757019
1772536765025785900,1.520785888671875,-0.23631133139133453,-0.1038781926035881,0.041547976434230804
1772536765035835000,1.5308349609375,-0.24371571838855743,-0.11823742836713791,0.015241803601384163
1772536765045884000,1.5408837890625,-0.2471405416727066,-0.11863770335912704,-0.007465106900781393
1772536765055932000,1.550931884765625,-0.2376333326101303,-0.09431984275579453,-0.01181990746408701
1772536765065981000,1.56098095703125,-0.223683163523674,-0.0533260703086853,-0.0022509037517011166
1772536765076029000,1.57102880859375,-0.20312462747097015,-0.007817177101969719,0.002825347473844886
1772536765086078000,1.581077880859375,-0.17817266285419464,0.029379993677139282,-0.0013025520602241158
1772536765096126700,1.591126708984375,-0.15223588049411774,0.05901378393173218,-0.017855163663625717
1772536765106175000,1.601175048828125,-0.12975214421749115,0.07641008496284485,-0.0414036326110363
1772536765116223700,1.6112236328125,-0.09351317584514618,0.09182047098875046,-0.05451517179608345
1772536765126273000,1.62127294921875,-0.05897676572203636,0.1097928062081337,-0.04097459837794304
1772536765136320800,1.63132080078125,-0.010551976971328259,0.14364078640937805,-0.005379851907491684
1772536765146370000,1.6413701171875,0.05229596048593521,0.14346182346343994,0.03943449258804321
1772536765156418800,1.651418701171875,0.12836143374443054,0.10807054489850998,0.09457071125507355
1772536765166467000,1.661467041015625,0.1969980150461197,0.04175170883536339,0.13319560885429382
1772536765176515800,1.671515869140625,0.27267199754714966,-0.018989935517311096,0.1819106787443161
1772536765186564900,1.68156494140625,0.3365545868873596,-0.09814121574163437,0.2223297357559204
1772536765196612900,1.69161279296875,0.38706302642822266,-0.17418670654296875,0.25390204787254333
1772536765206662000,1.701661865234375,0.4124610722064972,-0.22207380831241608,0.27670562267303467
1772536765216711000,1.7117109375,0.41358572244644165,-0.24758689105510712,0.28323090076446533
1772536765226759000,1.721759033203125,0.41064372658729553,-0.2231936752796173,0.27806705236434937
1772536765236808000,1.731807861328125,0.4082775115966797,-0.1197863221168518,0.2756430208683014
1772536765246857000,1.74185693359375,0.4108828902244568,0.015519305132329464,0.2619863450527191
1772536765256905000,1.751905029296875,0.4332457184791565,0.1489199697971344,0.2381555736064911
1772536765266954000,1.7619541015625,0.46996164321899414,0.24011778831481934,0.19956184923648834
1772536765277002800,1.772002685546875,0.5026775002479553,0.24194978177547455,0.1530342847108841
1772536765287051000,1.782051025390625,0.5049867630004883,0.15431393682956696,0.10247550904750824
1772536765297099800,1.792099853515625,0.477409690618515,0.0407884418964386,0.06929118931293488
1772536765307148000,1.80214794921875,0.43538156151771545,-0.028381573036313057,0.06336139887571335
1772536765317196800,1.81219677734375,0.39903926849365234,-0.056656621396541595,0.07118043303489685
1772536765327245800,1.822245849609375,0.3576146066188812,-0.0786314308643341,0.0726984366774559
1772536765337293800,1.8322939453125,0.31560322642326355,-0.120808444917202,0.06631111353635788
1772536765347342800,1.8423427734375,0.28684747219085693,-0.1595667600631714,0.07003873586654663
1772536765357392000,1.852391845703125,0.2722451090812683,-0.1529059261083603,0.07616454362869263
1772536765367440000,1.86243994140625,0.2744978666305542,-0.07724152505397797,0.09425805509090424
1772536765377489000,1.872489013671875,0.2898795008659363,0.04536348581314087,0.10658875852823257
1772536765387538000,1.882537841796875,0.3073628842830658,0.1601843386888504,0.10111276805400848
1772536765397586000,1.8925859375,0.3289776146411896,0.24081793427467346,0.07828015834093094
1772536765407635000,1.902635009765625,0.3404710292816162,0.28207162022590637,0.05988650396466255
1772536765417683700,1.91268359375,0.33538997173309326,0.2801496386528015,0.06332197785377502
1772536765427732000,1.92273193359375,0.3284684419631958,0.2423900067806244,0.10474638640880585
1772536765437780700,1.93278076171875,0.3188738524913788,0.19852028787136078,0.17185458540916443
1772536765447830000,1.942830078125,0.30553436279296875,0.15669773519039154,0.24006026983261108
1772536765457878000,1.9528779296875,0.29233863949775696,0.12217144668102264,0.284149169921875
1772536765467927000,1.962927001953125,0.2641717195510864,0.08386959880590439,0.2999323904514313
1772536765477976000,1.97297607421875,0.2223297357559204,0.08175558596849442,0.29678186774253845
1772536765488024000,1.983024169921875,0.19214759767055511,0.11768642067909241,0.2820359468460083
1772536765498073000,1.993072998046875,0.16736049950122833,0.1649673879146576,0.2464691698551178
1772536765508121000,2.00312109375,0.13941487669944763,0.17273235321044922,0.18160468339920044
1772536765518170000,2.013170166015625,0.14286154508590698,0.13309893012046814,0.11770159751176834
1772536765528219000,2.023218994140625,0.13567394018173218,0.17651671171188354,0.07268165796995163
1772536765538267100,2.03326708984375,0.11854981631040573,0.19667817652225494,0.014055631123483181
1772536765548316000,2.04331591796875,0.13097213208675385,0.16492024064064026,-0.04260125756263733
1772536765558365200,2.053365234375,0.13534210622310638,0.09381677210330963,-0.0770505741238594
1772536765568413000,2.063412841796875,0.10812859982252121,-0.03145406395196915,-0.10909798741340637
1772536765578462200,2.073462158203125,0.09283220022916794,-0.16165946424007416,-0.12553422152996063
1772536765588511000,2.083510986328125,0.0665140450000763,-0.2311868816614151,-0.12666180729866028
1772536765598559200,2.093559326171875,0.02466539852321148,-0.2830333113670349,-0.12637311220169067
1772536765608608000,2.10360791015625,-0.017370468005537987,-0.32134607434272766,-0.15546974539756775
1772536765618657000,2.113656982421875,-0.05109354481101036,-0.3328154981136322,-0.2003655880689621
1772536765628705000,2.123705078125,-0.07527850568294525,-0.3207239508628845,-0.24204298853874207
1772536765638754000,2.133754150390625,-0.09271715581417084,-0.2681688666343689,-0.2693268060684204
1772536765648803000,2.143802978515625,-0.09332595020532608,-0.1942634880542755,-0.28548741340637207
1772536765658850800,2.153850830078125,-0.07611234486103058,-0.09820353239774704,-0.29929056763648987
1772536765668900000,2.163900146484375,-0.0466814860701561,0.01500851009041071,-0.309700071811676
1772536765678949000,2.17394921875,-0.012167716398835182,0.13532213866710663,-0.3098907470703125
1772536765688997000,2.1839970703125,0.02232101745903492,0.23822908103466034,-0.3062523305416107
1772536765699046100,2.194046142578125,0.04772944003343582,0.28460004925727844,-0.31944403052330017
1772536765709095000,2.204094970703125,0.06155603751540184,0.2756797671318054,-0.33363789319992065
1772536765719143000,2.214142822265625,0.041968487203121185,0.2415367215871811,-0.34810978174209595
1772536765729192000,2.22419189453125,0.0030000510159879923,0.2197379469871521,-0.34909141063690186
1772536765739240000,2.234239990234375,-0.037648044526576996,0.17131023108959198,-0.33681824803352356
1772536765749289000,2.2442890625,-0.06258508563041687,0.08552742004394531,-0.2939935326576233
1772536765759338200,2.254338134765625,-0.07367661595344543,-0.0027478495612740517,-0.23025797307491302
1772536765769386000,2.264385986328125,-0.0721234604716301,-0.059237755835056305,-0.14938975870609283
1772536765779435000,2.27443505859375,-0.07750917226076126,-0.07157991081476212,-0.06132940202951431
1772536765789484000,2.284484130859375,-0.08284828066825867,-0.06100449711084366,0.01859765313565731
1772536765799532000,2.294531982421875,-0.08447600156068802,-0.044927261769771576,0.06691990792751312
1772536765809581000,2.3045810546875,-0.08728856593370438,-0.03002634271979332,0.09363967180252075
1772536765819629800,2.3146298828125,-0.09922698140144348,-0.041724544018507004,0.1080380529165268
1772536765829678000,2.324677978515625,-0.10816242545843124,-0.07648065686225891,0.11470288038253784
1772536765839726800,2.334726806640625,-0.10724922269582748,-0.09178823977708817,0.12437760829925537
1772536765849776000,2.344776123046875,-0.12041376531124115,-0.07230429351329803,0.15169818699359894
1772536765859823900,2.354823974609375,-0.13463744521141052,-0.051601141691207886,0.1807122528553009
1772536765869873200,2.364873046875,-0.15698668360710144,-0.03531964123249054,0.20421119034290314
1772536765879922000,2.374921875,-0.1759318858385086,-0.008831041865050793,0.20056292414665222
1772536765889970200,2.38497021484375,-0.19901935756206512,0.02576022408902645,0.19545738399028778
1772536765900019000,2.39501904296875,-0.21816961467266083,0.026162628084421158,0.17477047443389893
1772536765910068000,2.40506787109375,-0.24369893968105316,-0.028807945549488068,0.13183818757534027
1772536765920116000,2.415115966796875,-0.25529995560646057,-0.07060785591602325,0.10415197163820267
1772536765930165000,2.4251650390625,-0.27089300751686096,-0.047935035079717636,0.09767515957355499
1772536765940213000,2.435212890625,-0.29295650124549866,-0.005812881514430046,0.10784151405096054
1772536765950262000,2.445261962890625,-0.3111405670642853,0.012427108362317085,0.10600738972425461
1772536765960311000,2.45531103515625,-0.3158458471298218,0.012408466078341007,0.11025673151016235
1772536765970359000,2.465359130859375,-0.3101259171962738,0.019151324406266212,0.12631718814373016
1772536765980408000,2.475407958984375,-0.3033183217048645,0.016643958166241646,0.1539783775806427
1772536765990457000,2.48545703125,-0.2835584878921509,0.006086388137191534,0.18232986330986023
1772536766000505000,2.495505126953125,-0.2585031986236572,0.005327653605490923,0.22150948643684387
1772536766010554000,2.50555419921875,-0.22748588025569916,0.02527366578578949,0.2665347456932068
1772536766020603000,2.515602783203125,-0.20094509422779083,0.020379839465022087,0.29296502470970154
1772536766030651100,2.525651123046875,-0.19181203842163086,-0.04806606099009514,0.29516053199768066
1772536766040700000,2.535699951171875,-0.20099888741970062,-0.1578330397605896,0.2654505670070648
1772536766050749200,2.545749267578125,-0.23573662340641022,-0.26275092363357544,0.2189704328775406
1772536766060797000,2.555796875,-0.28120797872543335,-0.31746822595596313,0.16186107695102692
1772536766070846200,2.56584619140625,-0.3331790268421173,-0.31362342834472656,0.09553797543048859
1772536766080895000,2.57589501953125,-0.379080206155777,-0.25838255882263184,0.027518443763256073
1772536766090943000,2.58594287109375,-0.42359867691993713,-0.18006910383701324,-0.04729188233613968
1772536766100992000,2.595991943359375,-0.4597654640674591,-0.114206463098526,-0.1283012479543686
1772536766111040000,2.6060400390625,-0.48052507638931274,-0.060136307030916214,-0.21140092611312866
1772536766121089000,2.616089111328125,-0.49089303612709045,-0.019115904346108437,-0.27115505933761597
1772536766131138000,2.626137939453125,-0.4962691366672516,0.0075633772648870945,-0.3099179267883301
1772536766141186000,2.63618603515625,-0.48535576462745667,0.030482808127999306,-0.309634804725647
1772536766151235000,2.646235107421875,-0.46745187044143677,0.03212038427591324,-0.2856959402561188
1772536766161284000,2.6562841796875,-0.4247709810733795,0.012283298186957836,-0.22858230769634247
1772536766171332000,2.66633203125,-0.37274134159088135,-0.017901236191391945,-0.14020611345767975
1772536766181380900,2.676380859375,-0.321393221616745,-0.030052706599235535,-0.03777001425623894
1772536766191430100,2.68643017578125,-0.2676178514957428,-0.017897773534059525,0.06308256089687347
1772536766201478000,2.696477783203125,-0.2084679901599884,-0.023029951378703117,0.12974947690963745
1772536766211527200,2.706527099609375,-0.16277506947517395,-0.03099599853157997,0.15500502288341522
1772536766221576000,2.716575927734375,-0.11924303323030472,-0.03693138435482979,0.1566639095544815
1772536766231624200,2.726624267578125,-0.08947715163230896,-0.054965246468782425,0.13913072645664215
1772536766241673000,2.7366728515625,-0.07501459121704102,-0.0757879689335823,0.10521403700113297
1772536766251722000,2.746721923828125,-0.06592655181884766,-0.11206608265638351,0.07000651210546494
1772536766261770000,2.75677001953125,-0.10291173309087753,-0.14605334401130676,0.021513281390070915
1772536766271819000,2.766819091796875,-0.1613241732120514,-0.17358750104904175,-0.03425544127821922
1772536766281868000,2.776867919921875,-0.19936130940914154,-0.17554040253162384,-0.08902281522750854
1772536766291916000,2.786916015625,-0.2364165335893631,-0.1428373157978058,-0.14860838651657104
1772536766301965000,2.796965087890625,-0.26120123267173767,-0.08607842773199081,-0.1944669485092163
1772536766312012800,2.8070126953125,-0.2621099054813385,0.0014362427173182368,-0.226243257522583
1772536766322062000,2.81706201171875,-0.23096983134746552,0.08462300896644592,-0.23323671519756317
1772536766332111000,2.827111083984375,-0.18538637459278107,0.1377836912870407,-0.20849435031414032
1772536766342159000,2.8371591796875,-0.13340678811073303,0.16019180417060852,-0.1602562516927719
1772536766352208100,2.8472080078125,-0.09469029307365417,0.14535878598690033,-0.09911246597766876
1772536766362257000,2.8572568359375,-0.06862220168113708,0.0862635150551796,-0.046293195337057114
1772536766372305000,2.867304931640625,-0.0809212177991867,0.002231196267530322,-0.00290364446118474
1772536766382354000,2.87735400390625,-0.11848296970129013,-0.0612574964761734,0.02690058946609497
1772536766392403200,2.8874033203125,-0.16209489107131958,-0.10319776087999344,0.05167171731591225
1772536766402451000,2.897450927734375,-0.1972462236881256,-0.1342930942773819,0.05525100603699684
1772536766412500000,2.9075,-0.22213666141033173,-0.14690528810024261,0.0426502600312233
1772536766422549000,2.917549072265625,-0.23567484319210052,-0.12680615484714508,0.015418104827404022
1772536766432597000,2.927596923828125,-0.22308394312858582,-0.08602117002010345,-0.020618991926312447
1772536766442646000,2.93764599609375,-0.20387935638427734,-0.04381938651204109,-0.06165803596377373
1772536766452694000,2.947694091796875,-0.17967309057712555,0.007443801499903202,-0.091939777135849
1772536766462742500,2.957742431640625,-0.15600557625293732,0.0488535575568676,-0.1119033619761467
1772536766472791600,2.96779150390625,-0.1561475247144699,0.0643686056137085,-0.12159167975187302
1772536766482839600,2.977839599609375,-0.156308114528656,0.05535753071308136,-0.11637454479932785
1772536766492888600,2.987888671875,-0.14638197422027588,0.05017581954598427,-0.09395978599786758
1772536766502937600,2.9979375,-0.17086921632289886,0.05681055039167404,-0.05571465939283371
1772536766512985600,3.007985595703125,-0.18319165706634521,0.0660378709435463,-0.010129067115485668
1772536766523034600,3.01803466796875,-0.1754077672958374,0.06442319601774216,0.036488503217697144
1772536766533083600,3.028083740234375,-0.1561184972524643,0.057254768908023834,0.06443571299314499
1772536766543131600,3.038131591796875,-0.1244625672698021,0.05066770315170288,0.07918190211057663
1772536766553180700,3.0481806640625,-0.08514045923948288,0.04446680098772049,0.08531889319419861
1772536766563229400,3.0582294921875,-0.04447478801012039,0.049681004136800766,0.09931540489196777
1772536766573277700,3.068277587890625,-0.010910438373684883,0.05380251258611679,0.11971201747655869
1772536766583326500,3.078326416015625,0.02737037092447281,0.04920216649770737,0.1485162377357483
1772536766593375700,3.088375732421875,0.07473256438970566,0.02931234799325466,0.18847563862800598
1772536766603423500,3.098423583984375,0.11191215366125107,0.002689260058104992,0.22263947129249573
1772536766613472800,3.10847265625,0.13265924155712128,-0.05769845098257065,0.24847638607025146
1772536766623520500,3.1185205078125,0.15241190791130066,-0.11046179383993149,0.2667584717273712
1772536766633569800,3.12856982421875,0.1463356465101242,-0.14309270679950714,0.271710604429245
1772536766643618600,3.13861865234375,0.12724344432353973,-0.1370159089565277,0.27337613701820374
1772536766653666800,3.148666748046875,0.1151857078075409,-0.11481393128633499,0.26344308257102966
1772536766663715600,3.158715576171875,0.11418196558952332,-0.06541629135608673,0.23914627730846405
1772536766673764600,3.1687646484375,0.1093621775507927,0.019579825922846794,0.20785678923130035
1772536766683812600,3.1788125,0.12569214403629303,0.09926559776067734,0.17606183886528015
1772536766693861600,3.188861572265625,0.15094716846942902,0.1299912929534912,0.14001250267028809
1772536766703910700,3.19891064453125,0.1610962152481079,0.09873083978891373,0.10597836226224899
1772536766713958700,3.208958740234375,0.15664154291152954,0.029569875448942184,0.07588597387075424
1772536766724007700,3.219007568359375,0.13976961374282837,-0.06429589539766312,0.05787768214941025
1772536766734056700,3.229056640625,0.10804471373558044,-0.14665043354034424,0.04581223055720329
1772536766744104700,3.239104736328125,0.054252054542303085,-0.2006414830684662,0.032878320664167404
1772536766754153700,3.24915380859375,0.0025033713318407536,-0.2120582014322281,0.017236510291695595
1772536766764202500,3.259202392578125,-0.03953436017036438,-0.18512511253356934,0.0020908478181809187
1772536766774250800,3.269250732421875,-0.059418853372335434,-0.1277555674314499,-0.013675065711140633
1772536766784299500,3.279299560546875,-0.03582404553890228,-0.005558283533900976,-0.006116481963545084
1772536766794347800,3.28934765625,-0.00839774589985609,0.12550732493400574,0.017541974782943726
1772536766804396500,3.299396484375,0.03761688247323036,0.19891256093978882,0.044970136135816574
1772536766814445800,3.30944580078125,0.07926233112812042,0.19606192409992218,0.06432466208934784
1772536766824493600,3.31949365234375,0.10423266142606735,0.13476420938968658,0.07057856023311615
1772536766834542800,3.32954296875,0.11249884963035583,0.05776316300034523,0.07545720785856247
1772536766844591600,3.339591552734375,0.11344213783740997,0.0024144218768924475,0.0772191509604454
1772536766854639600,3.3496396484375,0.11427517980337143,-0.005106611177325249,0.08649521321058273
1772536766864688600,3.359688720703125,0.13416393101215363,0.02828623354434967,0.10560685396194458
1772536766874737700,3.369737548828125,0.14842142164707184,0.06548899412155151,0.1252380758523941
1772536766884785700,3.37978564453125,0.15581409633159637,0.08837513625621796,0.13637381792068481
1772536766894834700,3.389834716796875,0.1535530686378479,0.10097934305667877,0.13163551688194275
1772536766904883700,3.3998837890625,0.13872726261615753,0.09769566357135773,0.09977186471223831
1772536766914931500,3.409931396484375,0.13823643326759338,0.0813467875123024,0.05294816941022873
1772536766924980700,3.419980712890625,0.14644616842269897,0.08171643316745758,0.0021046961192041636
1772536766935028500,3.430028564453125,0.1492432802915573,0.07357488572597504,-0.03922223672270775
1772536766945077800,3.440077880859375,0.14351561665534973,0.02888358011841774,-0.07385770976543427
1772536766955126800,3.450126708984375,0.1407107710838318,-0.04986875504255295,-0.0943043977022171
1772536766965174800,3.4601748046875,0.14323332905769348,-0.13547766208648682,-0.10252584517002106
1772536766975223600,3.4702236328125,0.15013250708580017,-0.20982487499713898,-0.09292647987604141
1772536766985272600,3.4802724609375,0.14631380140781403,-0.2630113959312439,-0.0869961529970169
1772536766995320600,3.490320556640625,0.13745373487472534,-0.29352694749832153,-0.08899006247520447
1772536767005369600,3.50036962890625,0.1264125257730484,-0.30064693093299866,-0.10544812679290771
1772536767015418600,3.510418701171875,0.1046542376279831,-0.2697387933731079,-0.14299923181533813
1772536767025466600,3.520466552734375,0.0807395875453949,-0.20142419636249542,-0.18540874123573303
1772536767035515600,3.530515625,0.05879806727170944,-0.11578865349292755,-0.2380991131067276
1772536767045564700,3.540564697265625,0.04505749046802521,-0.025077655911445618,-0.2928023040294647
1772536767055612700,3.55061279296875,0.040832649916410446,0.07401297241449356,-0.328758180141449
1772536767065661700,3.56066162109375,0.04315066710114479,0.14293904602527618,-0.3438010513782501
1772536767075709700,3.570709716796875,0.051958274096250534,0.1784520298242569,-0.33648109436035156
1772536767085758700,3.5807587890625,0.06039942800998688,0.190922811627388,-0.3089738190174103
1772536767095807500,3.590807373046875,0.05848461389541626,0.1826941817998886,-0.2691819369792938
1772536767105855700,3.600855712890625,0.04809296131134033,0.14221785962581635,-0.23695075511932373
1772536767115904500,3.610904541015625,0.03634921833872795,0.08450982719659805,-0.21726015210151672
1772536767125953800,3.620953857421875,0.015458851121366024,0.03154327720403671,-0.20869968831539154
1772536767136001500,3.63100146484375,-0.009133577346801758,-0.008187356404960155,-0.20381943881511688
1772536767146050800,3.64105078125,-0.03508741408586502,-0.03768159821629524,-0.20668473839759827
1772536767156099600,3.651099609375,-0.06440988183021545,-0.0698603093624115,-0.2173435091972351
1772536767166147600,3.661147705078125,-0.10139533132314682,-0.095489501953125,-0.23126810789108276
1772536767176196600,3.671196533203125,-0.13770753145217896,-0.10371547937393188,-0.23641546070575714
1772536767186245600,3.68124560546875,-0.1728103905916214,-0.09042976796627045,-0.243633434176445
1772536767196293600,3.691293701171875,-0.20522825419902802,-0.06971223652362823,-0.24614106118679047
1772536767206342700,3.7013427734375,-0.23221592605113983,-0.041317347437143326,-0.23070192337036133
1772536767216390700,3.711390625,-0.26019057631492615,-0.02642441727221012,-0.2108006477355957
1772536767226439700,3.721439697265625,-0.2819283604621887,-0.047145940363407135,-0.17550231516361237
1772536767236488700,3.73148876953125,-0.30771762132644653,-0.07759066671133041,-0.1380004733800888
1772536767246536700,3.74153662109375,-0.3455677926540375,-0.1128288134932518,-0.10508966445922852
1772536767256585500,3.75158544921875,-0.38325658440589905,-0.14343172311782837,-0.07942478358745575
1772536767266634800,3.761634765625,-0.4191772937774658,-0.16008713841438293,-0.06487513333559036
1772536767276682500,3.7716826171875,-0.4582482576370239,-0.17407885193824768,-0.05372927337884903
1772536767286731800,3.781731689453125,-0.4964294731616974,-0.1837426722049713,-0.04549771174788475
1772536767296780500,3.791780517578125,-0.5302028656005859,-0.1798640340566635,-0.032290827482938766
1772536767306828800,3.801828857421875,-0.5654556751251221,-0.1656467616558075,-0.02726783975958824
1772536767316877600,3.811877685546875,-0.6048142910003662,-0.1518568992614746,-0.022410500794649124
1772536767326926600,3.821926513671875,-0.6484094262123108,-0.13787105679512024,-0.023032881319522858
1772536767336974600,3.831974609375,-0.679259717464447,-0.11205143481492996,-0.012824718840420246
1772536767347023600,3.842023681640625,-0.6959812045097351,-0.07279591262340546,0.010539726354181767
1772536767357071600,3.852071533203125,-0.7093766331672668,-0.04608014225959778,0.04044089838862419
1772536767367120600,3.86212060546875,-0.7075134515762329,-0.004888498689979315,0.08630798757076263
1772536767377169700,3.872169677734375,-0.7007203102111816,0.06683842092752457,0.14712660014629364
1772536767387217700,3.8822177734375,-0.6935814023017883,0.1588631570339203,0.20531001687049866
1772536767397266700,3.8922666015625,-0.6769105792045593,0.25395825505256653,0.25776389241218567
1772536767407315700,3.902315673828125,-0.655872106552124,0.38458681106567383,0.3160058856010437
1772536767417363700,3.91236376953125,-0.6175417900085449,0.5129943490028381,0.343250036239624
1772536767427412700,3.922412841796875,-0.6038931012153625,0.49696609377861023,0.31116586923599243
1772536767437461500,3.93246142578125,-0.6246867775917053,0.3481001853942871,0.2294827252626419
1772536767447509800,3.942509765625,-0.6725488305091858,0.13500761985778809,0.11970482766628265
1772536767457558500,3.95255859375,-0.7279298305511475,-0.04993000999093056,0.0231173038482666
1772536767467607800,3.96260791015625,-0.8320913314819336,-0.2304542511701584,-0.0709623247385025
1772536767477655600,3.972655517578125,-0.9389195442199707,-0.3988315463066101,-0.1629452407360077
1772536767487704800,3.982704833984375,-1.0247974395751953,-0.46915310621261597,-0.23019112646579742
1772536767497752600,3.992752685546875,-1.0624196529388428,-0.41194894909858704,-0.27659377455711365
1772536767507801900,4.0028017578125,-1.041284203529358,-0.23511478304862976,-0.29152053594589233
1772536767517850600,4.0128505859375,-0.9843876957893372,-0.015386945568025112,-0.2961701452732086
1772536767527899000,4.02289892578125,-0.9265150427818298,0.1431688815355301,-0.2943914234638214
1772536767537947600,4.03294775390625,-0.8683979511260986,0.2098751962184906,-0.28316858410835266
1772536767547996700,4.04299658203125,-0.8190131187438965,0.19658416509628296,-0.251463919878006
1772536767558044700,4.053044677734375,-0.7737159132957458,0.12845571339130402,-0.1982867270708084
1772536767568093700,4.06309375,-0.7312576770782471,0.03129081055521965,-0.08863479644060135
1772536767578142700,4.073142822265625,-0.6671751141548157,-0.047508131712675095,0.049196839332580566
1772536767588190700,4.083190673828125,-0.5984602570533752,-0.10316340625286102,0.19974534213542938
1772536767598239700,4.09323974609375,-0.5404981374740601,-0.14930666983127594,0.3251802325248718
1772536767608287500,4.10328759765625,-0.5014849305152893,-0.18823648989200592,0.3935805857181549
1772536767618336800,4.113336669921875,-0.48453977704048157,-0.2091204673051834,0.3947798013687134
1772536767628385800,4.1233857421875,-0.5021464824676514,-0.21593602001667023,0.328829824924469
1772536767638433800,4.133433837890625,-0.5305570960044861,-0.2163488119840622,0.21881650388240814
1772536767648482800,4.14348291015625,-0.5749064087867737,-0.23828846216201782,0.08323230594396591
1772536767658531600,4.153531494140625,-0.6474093794822693,-0.25427940487861633,-0.06301891058683395
1772536767668579600,4.16357958984375,-0.7112557291984558,-0.2855164408683777,-0.19373884797096252
1772536767678628600,4.173628662109375,-0.7604206204414368,-0.3166908621788025,-0.3047710955142975
1772536767688678000,4.183677978515625,-0.7956470847129822,-0.344860702753067,-0.36964088678359985
1772536767698725600,4.1937255859375,-0.8049691915512085,-0.3707980513572693,-0.38117238879203796
1772536767708775000,4.20377490234375,-0.7773436903953552,-0.3826480507850647,-0.34078875184059143
1772536767718823700,4.21382373046875,-0.7346076965332031,-0.37316372990608215,-0.25631487369537354
1772536767728871700,4.22387158203125,-0.6827468872070312,-0.3599861264228821,-0.14509114623069763
1772536767738920700,4.233920654296875,-0.6439020037651062,-0.3564377427101135,-0.04224279522895813
1772536767748968700,4.24396875,-0.6270332932472229,-0.36224183440208435,0.039380960166454315
1772536767759017700,4.254017822265625,-0.6256029009819031,-0.3635217547416687,0.0920923724770546
1772536767769066500,4.26406640625,-0.634348452091217,-0.3436415195465088,0.12258689850568771
1772536767779114800,4.27411474609375,-0.65101557970047,-0.32264968752861023,0.1289052516222
1772536767789163500,4.28416357421875,-0.6776930093765259,-0.3143640458583832,0.11630530655384064
1772536767799212800,4.294212890625,-0.7002326846122742,-0.29842984676361084,0.09431718289852142
1772536767809260500,4.304260498046875,-0.7332921028137207,-0.2835347652435303,0.07418501377105713
1772536767819309800,4.314309814453125,-0.7532604336738586,-0.27209171652793884,0.050403520464897156
1772536767829358600,4.324358642578125,-0.7579255104064941,-0.25243598222732544,0.02835014835000038
1772536767839406800,4.33440673828125,-0.7510926723480225,-0.22724486887454987,0.014826882630586624
1772536767849455600,4.34445556640625,-0.7432834506034851,-0.2061379849910736,0.00902412086725235
1772536767859503900,4.35450390625,-0.7342340350151062,-0.21118441224098206,0.005182511638849974
1772536767869552600,4.364552734375,-0.7299373149871826,-0.2243526726961136,0.011329886503517628
1772536767879601700,4.3746015625,-0.7367051839828491,-0.23727832734584808,0.02093670703470707
1772536767889649700,4.384649658203125,-0.7422866225242615,-0.25085964798927307,0.027164509519934654
1772536767899698700,4.39469873046875,-0.7354868054389954,-0.24247229099273682,0.03875778242945671
1772536767909747700,4.404747802734375,-0.7113215327262878,-0.20207667350769043,0.0464005209505558
1772536767919795700,4.414795654296875,-0.6888388395309448,-0.1703301966190338,0.0521143339574337
1772536767929844700,4.4248447265625,-0.6529903411865234,-0.16295696794986725,0.052566006779670715
1772536767939893800,4.434893798828125,-0.6177297830581665,-0.1716468632221222,0.05517403781414032
1772536767949941800,4.444941650390625,-0.5860357880592346,-0.18727295100688934,0.0667758360505104
1772536767959990800,4.45499072265625,-0.5474660396575928,-0.21101662516593933,0.08650639653205872
1772536767970039600,4.46503955078125,-0.5115721821784973,-0.20645304024219513,0.11661529541015625
1772536767980087800,4.475087890625,-0.4790339767932892,-0.18591900169849396,0.15603913366794586
1772536767990136600,4.485136474609375,-0.45248597860336304,-0.1760474592447281,0.18192479014396667
1772536768000184800,4.495184814453125,-0.4177652895450592,-0.18799707293510437,0.20231874287128448
1772536768010233600,4.505233642578125,-0.3824821412563324,-0.17543253302574158,0.22252121567726135
1772536768020282600,4.51528271484375,-0.3526994585990906,-0.14412547647953033,0.2486225962638855
1772536768030330600,4.52533056640625,-0.3135629892349243,-0.12791481614112854,0.2742408812046051
1772536768040379600,4.535379638671875,-0.2763945758342743,-0.11790133267641068,0.29510754346847534
1772536768050428700,4.5454287109375,-0.24309121072292328,-0.10243423283100128,0.33476972579956055
1772536768060476700,4.5554765625,-0.2192079871892929,-0.08867580443620682,0.3743605613708496
1772536768070525700,4.565525634765625,-0.1911952644586563,-0.07112770527601242,0.41407066583633423
1772536768080574700,4.57557470703125,-0.1634267419576645,-0.015809323638677597,0.46261849999427795
1772536768090622700,4.585622802734375,-0.15098285675048828,0.04339674115180969,0.5105032324790955
1772536768100671700,4.595671630859375,-0.12758032977581024,0.08879245072603226,0.553949773311615
1772536768110719700,4.6057197265625,-0.09517791122198105,0.15009255707263947,0.5835047364234924
1772536768120768800,4.615768798828125,-0.06487859785556793,0.21349842846393585,0.5980492830276489
1772536768130817500,4.625817626953125,-0.04132720082998276,0.26445242762565613,0.5976428985595703
1772536768140865800,4.63586572265625,-0.02900288999080658,0.2668953537940979,0.5693042278289795
1772536768150914600,4.64591455078125,-0.037516750395298004,0.2206902951002121,0.51510089635849
1772536768160963800,4.6559638671875,-0.06871621310710907,0.1438216120004654,0.44306957721710205
1772536768171011600,4.666011474609375,-0.09738168120384216,0.09194563329219818,0.39087560772895813
1772536768181060900,4.676060791015625,-0.1230739951133728,0.04465695098042488,0.3401607573032379
1772536768191109600,4.686109619140625,-0.17017066478729248,-0.04525456205010414,0.27244430780410767
1772536768201158000,4.696157958984375,-0.22724832594394684,-0.1784488409757614,0.19012174010276794
1772536768211206700,4.70620654296875,-0.2863060534000397,-0.33826565742492676,0.10013192892074585
1772536768221254700,4.716254638671875,-0.35386085510253906,-0.46791741251945496,0.04152427241206169
1772536768231303700,4.7263037109375,-0.4181343913078308,-0.5379143357276917,0.014537929557263851
1772536768241352700,4.736352783203125,-0.4751358926296234,-0.5405117273330688,0.01920352131128311
1772536768251400700,4.746400634765625,-0.5159552097320557,-0.508231520652771,0.05934135243296623
1772536768261449500,4.756449462890625,-0.5397137999534607,-0.4480384886264801,0.1158677488565445
1772536768271498800,4.766498779296875,-0.5354189276695251,-0.34593504667282104,0.16418547928333282
1772536768281546500,4.77654638671875,-0.47090867161750793,-0.15263721346855164,0.22520782053470612
1772536768291595800,4.786595703125,-0.4106048345565796,0.10052953660488129,0.2651855945587158
1772536768301644800,4.796644775390625,-0.3436551094055176,0.30222323536872864,0.2668359577655792
1772536768311692800,4.80669287109375,-0.2865324318408966,0.42561814188957214,0.235247403383255
1772536768321741600,4.816741455078125,-0.2527318596839905,0.4485394358634949,0.191219761967659
1772536768331789800,4.826789794921875,-0.250192791223526,0.3728412091732025,0.14198936522006989
1772536768341838600,4.836838623046875,-0.2851121723651886,0.20909835398197174,0.10224568098783493
1772536768351887600,4.8468876953125,-0.3381114602088928,0.021886922419071198,0.07099321484565735
1772536768361935600,4.856935546875,-0.40329447388648987,-0.13837039470672607,0.04544471204280853
1772536768371984600,4.866984619140625,-0.4556564688682556,-0.24444863200187683,0.03268444165587425
1772536768382033700,4.87703369140625,-0.4979802370071411,-0.29263585805892944,0.016204535961151123
1772536768392081700,4.88708154296875,-0.5217183232307434,-0.29869428277015686,-0.011051053181290627
1772536768402130700,4.897130615234375,-0.5343589782714844,-0.2710336446762085,-0.047562990337610245
1772536768412179700,4.9071796875,-0.5241612195968628,-0.2244328409433365,-0.09600376337766647
1772536768422227700,4.917227783203125,-0.5001661777496338,-0.18604549765586853,-0.14148788154125214
1772536768432276700,4.92727685546875,-0.4664398729801178,-0.14899002015590668,-0.1665935069322586
1772536768442324700,4.93732470703125,-0.43660208582878113,-0.10514000058174133,-0.17281438410282135
1772536768452373800,4.947373779296875,-0.4280698597431183,-0.09651748090982437,-0.1674712896347046
1772536768462423000,4.957423095703125,-0.43199241161346436,-0.12485858052968979,-0.15265478193759918
1772536768472471000,4.967470947265625,-0.4429665207862854,-0.169402077794075,-0.1336299628019333
1772536768482520000,4.97752001953125,-0.4621751010417938,-0.19726407527923584,-0.11181734502315521
1772536768492569000,4.987569091796875,-0.4720413088798523,-0.21302784979343414,-0.10797413438558578
1772536768502617000,4.9976171875,-0.47974342107772827,-0.23032508790493011,-0.13231702148914337
1772536768512666000,5.007666015625,-0.4926203489303589,-0.22374068200588226,-0.16525660455226898
1772536768522715100,5.017715087890625,-0.49746888875961304,-0.1828414499759674,-0.1864798665046692
1772536768532763000,5.027762939453125,-0.5021867156028748,-0.15468811988830566,-0.1962595283985138
1772536768542812200,5.037812255859375,-0.49282461404800415,-0.15292350947856903,-0.19438305497169495
1772536768552860000,5.04785986328125,-0.48593422770500183,-0.16204802691936493,-0.17650765180587769
1772536768562909200,5.0579091796875,-0.49226880073547363,-0.18024779856204987,-0.14720436930656433
1772536768572958000,5.0679580078125,-0.5094901323318481,-0.22478437423706055,-0.12592251598834991
1772536768583006200,5.078006103515625,-0.5306321978569031,-0.3035212755203247,-0.1247459277510643
1772536768593055000,5.088054931640625,-0.565379798412323,-0.3784237504005432,-0.1279957890510559
1772536768603104000,5.09810400390625,-0.6029218435287476,-0.4225456714630127,-0.12536777555942535
1772536768613152000,5.108152099609375,-0.6435981392860413,-0.4419851303100586,-0.12534193694591522
1772536768623201000,5.118200927734375,-0.6651809215545654,-0.4422418773174286,-0.12608656287193298
1772536768633249000,5.1282490234375,-0.6665465831756592,-0.4032185673713684,-0.12329823523759842
1772536768643298000,5.138298095703125,-0.6714574694633484,-0.35233646631240845,-0.1192888468503952
1772536768653347000,5.14834716796875,-0.6667836308479309,-0.29875022172927856,-0.12493767589330673
1772536768663395000,5.15839501953125,-0.6467481255531311,-0.2109479159116745,-0.12188009917736053
1772536768673444000,5.168444091796875,-0.6463334560394287,-0.08444777131080627,-0.10121610015630722
1772536768683493000,5.1784931640625,-0.645548403263092,0.019602995365858078,-0.07713526487350464
1772536768693541000,5.188541015625,-0.6438927054405212,0.05764651671051979,-0.04496507719159126
1772536768703590100,5.198590087890625,-0.6351527571678162,0.02762497030198574,-0.0031065773218870163
1772536768713639000,5.208638916015625,-0.6333894729614258,-0.04692995920777321,0.03682326152920723
1772536768723687200,5.218687255859375,-0.6444770097732544,-0.14600194990634918,0.08100750297307968
1772536768733736000,5.22873583984375,-0.6709187030792236,-0.2653142213821411,0.11274412274360657
1772536768743784000,5.238783935546875,-0.7167397141456604,-0.37456509470939636,0.13520708680152893
1772536768753833000,5.2488330078125,-0.7679022550582886,-0.44271883368492126,0.15022093057632446
1772536768763882200,5.25888232421875,-0.8208677172660828,-0.4911026060581207,0.16869661211967468
1772536768773930000,5.268929931640625,-0.8662874102592468,-0.5390014052391052,0.19899645447731018
1772536768783979300,5.278979248046875,-0.897207498550415,-0.6002980470657349,0.2478308379650116
1772536768794028000,5.289028076171875,-0.9152786731719971,-0.6585012078285217,0.2952044904232025
1772536768804076000,5.299075927734375,-0.9095243811607361,-0.6728457808494568,0.3301054835319519
1772536768814125000,5.309125,-0.9029314517974854,-0.6331683993339539,0.34626686573028564
1772536768824174000,5.319174072265625,-0.914090096950531,-0.5706062316894531,0.31952953338623047
1772536768834222000,5.32922216796875,-0.9275004267692566,-0.5224480032920837,0.2264387309551239
1772536768844271000,5.33927099609375,-0.9379029870033264,-0.4434874355792999,0.12063533812761307
1772536768854319000,5.349319091796875,-0.9669634103775024,-0.3424715995788574,0.02533518336713314
1772536768864367900,5.359367919921875,-1.0165528059005737,-0.2696136236190796,-0.04861094430088997
1772536768874416000,5.369416015625,-1.0535858869552612,-0.24465155601501465,-0.10079026222229004
1772536768884465000,5.37946484375,-1.0710123777389526,-0.2187451273202896,-0.1192835196852684
1772536768894514200,5.38951416015625,-1.081322193145752,-0.168412983417511,-0.11410339921712875
1772536768904562000,5.39956201171875,-1.0699182748794556,-0.12866424024105072,-0.11450447142124176
1772536768914611200,5.409611083984375,-1.0275328159332275,-0.12039964646100998,-0.0896286889910698
1772536768924660000,5.419659912109375,-1.0095388889312744,-0.07551819086074829,-0.032393358647823334
1772536768934708200,5.429708251953125,-0.9829506278038025,-0.015058577992022038,0.05046636983752251
1772536768944757000,5.439757080078125,-0.9380084872245789,0.025129854679107666,0.155318483710289
1772536768954806000,5.449805908203125,-0.8982695937156677,-0.03634282574057579,0.2419348657131195
1772536768964854000,5.45985400390625,-0.8951361179351807,-0.20024840533733368,0.2533835172653198
1772536768974903000,5.469903076171875,-0.9271352887153625,-0.41224321722984314,0.18757575750350952
1772536768984951000,5.479950927734375,-0.969828188419342,-0.60798579454422,0.06704507768154144
1772536768995000000,5.49,-1.0288875102996826,-0.7472169399261475,-0.053090646862983704
1772536769005049000,5.500049072265625,-1.1059141159057617,-0.7877369523048401,-0.13944604992866516
1772536769015097000,5.51009716796875,-1.1660770177841187,-0.7255140542984009,-0.19200192391872406
1772536769025146000,5.52014599609375,-1.1796455383300781,-0.5734786987304688,-0.21828652918338776
1772536769035195100,5.530195068359375,-1.1255346536636353,-0.3280463218688965,-0.20940782129764557
1772536769045243100,5.5402431640625,-1.0363808870315552,-0.08340940624475479,-0.1865064948797226
1772536769055292200,5.550292236328125,-0.9356542229652405,0.10997230559587479,-0.15708255767822266
1772536769065341000,5.5603408203125,-0.8525923490524292,0.2168087363243103,-0.12221512198448181
1772536769075389200,5.57038916015625,-0.7998263835906982,0.22679266333580017,-0.09673000127077103
1772536769085438000,5.58043798828125,-0.7816084623336792,0.1651010662317276,-0.06332837045192719
1772536769095486200,5.590486328125,-0.7880139350891113,0.07302787154912949,-0.02468191087245941
1772536769105535000,5.600534912109375,-0.7948635816574097,-0.06427805870771408,0.029574403539299965
1772536769115584300,5.610584228515625,-0.7931420803070068,-0.21090850234031677,0.10749290138483047
1772536769125632000,5.620632080078125,-0.7925082445144653,-0.3331715762615204,0.19427840411663055
1772536769135681300,5.630681396484375,-0.7728182077407837,-0.4152507185935974,0.283703088760376
1772536769145730000,5.64072998046875,-0.7406604886054993,-0.4678915739059448,0.34377068281173706
1772536769155778000,5.650778076171875,-0.7118954658508301,-0.46553653478622437,0.3693045377731323
1772536769165827000,5.6608271484375,-0.7092040777206421,-0.42731377482414246,0.34980568289756775
1772536769175875000,5.670875,-0.719892144203186,-0.3758295476436615,0.276006817817688
1772536769185924000,5.680924072265625,-0.7441740036010742,-0.3145403563976288,0.1657431572675705
1772536769195973000,5.69097314453125,-0.7734895944595337,-0.2452494353055954,0.02623719722032547
1772536769206021000,5.701021240234375,-0.8043950200080872,-0.19424377381801605,-0.11469621956348419
1772536769216070100,5.711070068359375,-0.8297496438026428,-0.17163753509521484,-0.23949381709098816
1772536769226119200,5.721119140625,-0.8675521612167358,-0.17566582560539246,-0.3404848873615265
1772536769236167000,5.7311669921875,-0.9136480093002319,-0.20378321409225464,-0.4190060496330261
1772536769246216000,5.7412158203125,-0.9524401426315308,-0.2478710561990738,-0.4647487699985504
1772536769256265200,5.75126513671875,-0.9772107601165771,-0.2963954508304596,-0.46013590693473816
1772536769266313000,5.76131298828125,-0.9816752672195435,-0.35209891200065613,-0.41863879561424255
1772536769276362200,5.7713623046875,-0.9714910387992859,-0.37970471382141113,-0.3536595404148102
1772536769286410000,5.781409912109375,-0.9375290870666504,-0.34316107630729675,-0.280492901802063
1772536769296459000,5.791458984375,-0.8775659203529358,-0.2874743938446045,-0.1972760558128357
1772536769306508000,5.801508056640625,-0.8361825346946716,-0.19408585131168365,-0.12570439279079437
1772536769316556000,5.81155615234375,-0.7906845211982727,-0.11042877286672592,-0.07020438462495804
1772536769326605000,5.82160498046875,-0.7493458986282349,-0.06616783142089844,-0.03702033683657646
1772536769336653800,5.83165380859375,-0.7362023591995239,-0.0961180105805397,-0.03153795376420021
1772536769346702000,5.8417021484375,-0.7357432246208191,-0.1683107167482376,-0.025196433067321777
1772536769356750800,5.851750732421875,-0.7444462180137634,-0.24206936359405518,-0.007784952409565449
1772536769366799000,5.861799072265625,-0.7598052024841309,-0.2981097102165222,0.014484932646155357
1772536769376848000,5.871847900390625,-0.7799349427223206,-0.3377908170223236,0.033611491322517395
1772536769386897200,5.881897216796875,-0.7930963039398193,-0.3495366871356964,0.04189525172114372
1772536769396945000,5.89194482421875,-0.7944214940071106,-0.3430468440055847,0.03479739651083946
1772536769406994200,5.901994140625,-0.7818870544433594,-0.3207721710205078,0.01667165383696556
1772536769417043000,5.91204296875,-0.7527672648429871,-0.2685699462890625,0.002665025182068348
1772536769427091200,5.92209130859375,-0.7173919677734375,-0.2207118719816208,0.00030360036180354655
1772536769437140000,5.932139892578125,-0.6766546368598938,-0.15181775391101837,0.013230318203568459
1772536769447189000,5.94218896484375,-0.6321425437927246,-0.07750757783651352,0.03467515483498573
1772536769457237000,5.952237060546875,-0.5991688966751099,-0.02588352933526039,0.03886297717690468
1772536769467285500,5.962285400390625,-0.5574118494987488,0.015218900516629219,0.04162999987602234
1772536769477334500,5.97233447265625,-0.518537163734436,0.05176546052098274,0.04773769527673721
1772536769487382500,5.982382568359375,-0.48725593090057373,0.04837818443775177,0.05356176197528839
1772536769497431600,5.992431640625,-0.43815258145332336,0.009306948632001877,0.07094581425189972
1772536769507480300,6.002480224609375,-0.38382408022880554,-0.044013265520334244,0.10035376995801926
1772536769517528300,6.0125283203125,-0.3209332823753357,-0.10829771310091019,0.14659103751182556
1772536769527577300,6.022577392578125,-0.25061675906181335,-0.13212502002716064,0.20517472922801971
1772536769537625300,6.032625244140625,-0.18886418640613556,-0.1079094186425209,0.25721076130867004
1772536769547674400,6.04267431640625,-0.0972711592912674,-0.10459565371274948,0.32108214497566223
1772536769557723400,6.052723388671875,-0.03261546790599823,-0.10111276805400848,0.3836965262889862
1772536769567771400,6.062771484375,0.018510567024350166,-0.11618279665708542,0.43729424476623535
1772536769577820400,6.0728203125,0.08201097697019577,-0.1336190402507782,0.4910986125469208
1772536769587869400,6.082869384765625,0.11162400245666504,-0.14729997515678406,0.5358426570892334
1772536769597917400,6.09291748046875,0.11756737530231476,-0.1622600108385086,0.5600742101669312
1772536769607966500,6.102966552734375,0.11665631085634232,-0.14798200130462646,0.560901939868927
1772536769618014200,6.11301416015625,0.11490421742200851,-0.09321995824575424,0.5465794801712036
1772536769628063500,6.1230634765625,0.12549054622650146,-0.017792046070098877,0.5257383584976196
1772536769638112300,6.1331123046875,0.15437732636928558,0.03304024040699005,0.5079764127731323
1772536769648160500,6.143160400390625,0.18840426206588745,0.03187830373644829,0.49003201723098755
1772536769658209300,6.153209228515625,0.2085217833518982,-0.011010040529072285,0.46183526515960693
1772536769668258300,6.16325830078125,0.2171616107225418,-0.07086458802223206,0.4273633062839508
1772536769678306300,6.173306396484375,0.199908047914505,-0.12246999144554138,0.3803257644176483
1772536769688355300,6.183355224609375,0.161762535572052,-0.1881113201379776,0.32139694690704346
1772536769698403300,6.1934033203125,0.09804107993841171,-0.25606560707092285,0.2452893853187561
1772536769708452400,6.203452392578125,0.03508182242512703,-0.30591651797294617,0.16896824538707733
1772536769718501400,6.21350146484375,-0.014602910727262497,-0.31229478120803833,0.09892658144235611
1772536769728549400,6.22354931640625,-0.044744301587343216,-0.2574043571949005,0.05319930613040924
1772536769738598400,6.233598388671875,-0.06507567316293716,-0.16006982326507568,0.03172650560736656
1772536769748647400,6.2436474609375,-0.0596819706261158,-0.05522384122014046,0.017888719215989113
1772536769758695400,6.2536953125,-0.03844219818711281,0.04481354355812073,0.012646819464862347
1772536769768744400,6.263744384765625,-0.0012855078093707561,0.11669785529375076,0.026990072801709175
1772536769778793200,6.273793212890625,0.03145779296755791,0.1347050815820694,0.050459712743759155
1772536769788841500,6.283841552734375,0.05236600339412689,0.07737601548433304,0.08075902611017227
1772536769798890200,6.29389013671875,0.060917410999536514,-0.006682936567813158,0.12077781558036804
1772536769808938500,6.3039384765625,0.05439480021595955,-0.0642346441745758,0.15990205109119415
1772536769818987300,6.3139873046875,0.048479385673999786,-0.07669637352228165,0.18761010468006134
1772536769829036500,6.32403662109375,0.05351302772760391,-0.039864059537649155,0.19858099520206451
1772536769839084300,6.334084228515625,0.058927230536937714,0.032474584877491,0.1871536374092102
1772536769849133600,6.344133544921875,0.05860871821641922,0.09627087414264679,0.14765895903110504
1772536769859182300,6.354182373046875,0.06060582399368286,0.1247406005859375,0.07479088753461838
1772536769869230600,6.364230712890625,0.06342530995607376,0.14488820731639862,-0.013215137645602226
1772536769879279400,6.374279296875,0.060404222458601,0.18360525369644165,-0.0808599591255188
1772536769889327400,6.384327392578125,0.05212658271193504,0.21006907522678375,-0.13122139871120453
1772536769899376400,6.39437646484375,0.029227660968899727,0.149152472615242,-0.17659474909305573
1772536769909425400,6.40442529296875,-0.0007874967413954437,-0.0036429380998015404,-0.21804179251194
1772536769919473400,6.414473388671875,-0.04319194331765175,-0.16644597053527832,-0.2443322390317917
1772536769929522400,6.4245224609375,-0.09271182864904404,-0.3011308014392853,-0.24952860176563263
1772536769939571500,6.434571533203125,-0.12221379578113556,-0.3654349744319916,-0.23983363807201385
1772536769949619200,6.444619140625,-0.13661563396453857,-0.37375468015670776,-0.23763838410377502
1772536769959668500,6.45466845703125,-0.1347772628068924,-0.3270984888076782,-0.24910490214824677
1772536769969716200,6.46471630859375,-0.11434148997068405,-0.22774368524551392,-0.28094592690467834
1772536769979765500,6.474765625,-0.07548277080059052,-0.1281915307044983,-0.31863683462142944
1772536769989814300,6.484814208984375,-0.03555293381214142,-0.02462198957800865,-0.3568284213542938
1772536769999862500,6.494862548828125,-0.014134993776679039,0.04928871989250183,-0.38911154866218567
1772536770009911300,6.504911376953125,0.013555755838751793,0.09161300957202911,-0.40376317501068115
1772536770019960300,6.514960205078125,0.03364238142967224,0.155636727809906,-0.3833359479904175
1772536770030008300,6.52500830078125,0.036979321390390396,0.21415410935878754,-0.3346102237701416
1772536770040057300,6.535057373046875,0.034147851169109344,0.2066359966993332,-0.2832365036010742
1772536770050105300,6.545105224609375,0.022765766829252243,0.13529683649539948,-0.2439197152853012
1772536770060154400,6.555154296875,0.00490181427448988,0.036787841469049454,-0.2144550383090973
1772536770070203400,6.565203369140625,-0.01630813255906105,-0.052798233926296234,-0.187522754073143
1772536770080251400,6.57525146484375,-0.04110296070575714,-0.10556451231241226,-0.1621454954147339
1772536770090300400,6.585300537109375,-0.06394968926906586,-0.12719710171222687,-0.1382308453321457
1772536770100349400,6.595349365234375,-0.07052662968635559,-0.12660960853099823,-0.12173016369342804
1772536770110397400,6.6053974609375,-0.06795880943536758,-0.11275584250688553,-0.10425583273172379
1772536770120446500,6.615446533203125,-0.06061194837093353,-0.10162276774644852,-0.09045559912919998
1772536770130495200,6.6254951171875,-0.052621133625507355,-0.08656072616577148,-0.07319165766239166
1772536770140543500,6.63554345703125,-0.050994474440813065,-0.07524149119853973,-0.048057541251182556
1772536770150592300,6.64559228515625,-0.06376326829195023,-0.08739162981510162,-0.017195232212543488
1772536770160640500,6.655640625,-0.09354060143232346,-0.1312863826751709,0.01392566878348589
1772536770170689300,6.665689208984375,-0.12637072801589966,-0.18856965005397797,0.051301002502441406
1772536770180738600,6.675738525390625,-0.1551634818315506,-0.2373180091381073,0.09532704949378967
1772536770190786300,6.685786376953125,-0.1793644279241562,-0.25341975688934326,0.12968023121356964
1772536770200835600,6.695835693359375,-0.20146094262599945,-0.2404903620481491,0.15896648168563843
1772536770210883300,6.70588330078125,-0.2211286574602127,-0.21537542343139648,0.17188680171966553
1772536770220932600,6.7159326171875,-0.2553001940250397,-0.18780238926410675,0.16153936088085175
1772536770230981400,6.7259814453125,-0.28925684094429016,-0.17598780989646912,0.15327344834804535
1772536770241029400,6.736029296875,-0.32142382860183716,-0.17407965660095215,0.12936384975910187
1772536770251078400,6.746078369140625,-0.34690308570861816,-0.19011801481246948,0.11278647184371948
1772536770261127400,6.75612744140625,-0.3861149549484253,-0.1869879961013794,0.11625603586435318
1772536770271175400,6.766175537109375,-0.433994323015213,-0.17419762909412384,0.1340390294790268
1772536770281224400,6.776224365234375,-0.4754141867160797,-0.15118978917598724,0.15141668915748596
1772536770291273500,6.7862734375,-0.5030474066734314,-0.12714943289756775,0.15761706233024597
1772536770301321500,6.796321533203125,-0.49920395016670227,-0.05393566936254501,0.17468099296092987
1772536770311370500,6.80637060546875,-0.4970521032810211,0.036124181002378464,0.20937612652778625
1772536770321418200,6.816418212890625,-0.4724873900413513,0.1079096868634224,0.2514924108982086
1772536770331467300,6.82646728515625,-0.4404386281967163,0.11305065453052521,0.281120628118515
1772536770341516500,6.8365166015625,-0.4188862144947052,0.061523281037807465,0.3004261255264282
1772536770351564300,6.846564208984375,-0.41146212816238403,-0.013545103371143341,0.30987024307250977
1772536770361613600,6.856613525390625,-0.4227469861507416,-0.11316464096307755,0.2974809408187866
1772536770371662300,6.866662353515625,-0.4604078233242035,-0.20427830517292023,0.27034786343574524
1772536770381710300,6.87671044921875,-0.5026056170463562,-0.257770299911499,0.2350577861070633
1772536770391759400,6.88675927734375,-0.5274190902709961,-0.26354002952575684,0.1937396377325058
1772536770401807400,6.896807373046875,-0.5350791215896606,-0.21596185863018036,0.13669154047966003
1772536770411856400,6.9068564453125,-0.5331512689590454,-0.14621447026729584,0.06063618138432503
1772536770421905200,6.9169052734375,-0.5253010392189026,-0.05796130374073982,-0.032587770372629166
1772536770431953400,6.926953369140625,-0.5026026964187622,0.04302123561501503,-0.11476573348045349
1772536770442002200,6.937002197265625,-0.47415611147880554,0.13081873953342438,-0.17942994832992554
1772536770452051500,6.947051513671875,-0.44233667850494385,0.17933647334575653,-0.20864908397197723
1772536770462099200,6.95709912109375,-0.40847671031951904,0.1982148140668869,-0.18928684294223785
1772536770472148200,6.967148193359375,-0.38594236969947815,0.177229642868042,-0.12964081764221191
1772536770482196000,6.977196044921875,-0.3661377727985382,0.10491123795509338,-0.0337129570543766
1772536770492245200,6.987245361328125,-0.3439190089702606,0.010432134382426739,0.07497624307870865
1772536770502294000,6.9972939453125,-0.3074139952659607,-0.07346702367067337,0.18602445721626282
1772536770512342300,7.00734228515625,-0.27653253078460693,-0.12098927050828934,0.2840532958507538
1772536770522391000,7.01739111328125,-0.24118998646736145,-0.12228623032569885,0.3557107150554657
1772536770532440000,7.027440185546875,-0.20493343472480774,-0.08494498580694199,0.39083167910575867
1772536770542488000,7.037488037109375,-0.17279015481472015,-0.04688548296689987,0.3902239501476288
1772536770552537000,7.047537109375,-0.1446450650691986,-0.0178796648979187,0.3607001304626465
1772536770562585000,7.057585205078125,-0.13360972702503204,0.011291536502540112,0.31108757853507996
1772536770572634000,7.067634033203125,-0.14229722321033478,0.013110475614666939,0.2390301525592804
1772536770582683100,7.07768310546875,-0.17143912613391876,-0.011750665493309498,0.15711770951747894
1772536770592731100,7.087731201171875,-0.22006845474243164,-0.044373057782649994,0.07026590406894684
1772536770602780200,7.0977802734375,-0.27991607785224915,-0.08694635331630707,-0.014870558865368366
1772536770612829200,7.1078291015625,-0.3402140438556671,-0.12748952209949493,-0.09983338415622711
1772536770622877200,7.117877197265625,-0.387522429227829,-0.15015141665935516,-0.17549964785575867
1772536770632926200,7.12792626953125,-0.40422818064689636,-0.13302329182624817,-0.23829858005046844
1772536770642974200,7.13797412109375,-0.40843597054481506,-0.09144629538059235,-0.287886381149292
1772536770653023200,7.148023193359375,-0.3896273970603943,-0.03668903931975365,-0.3164735436439514
1772536770663072000,7.158072021484375,-0.3552166819572449,0.026268089190125465,-0.31478777527809143
1772536770673120300,7.168120361328125,-0.3136945366859436,0.07383587211370468,-0.2884618937969208
1772536770683169000,7.1781689453125,-0.27459773421287537,0.07504894584417343,-0.25055259466171265
1772536770693218300,7.18821826171875,-0.24081873893737793,0.0494205467402935,-0.20283620059490204
1772536770703266000,7.19826611328125,-0.21394771337509155,0.002668753731995821,-0.15726977586746216
1772536770713315300,7.2083154296875,-0.20777609944343567,-0.05360783264040947,-0.10074525326490402
1772536770723363000,7.218363037109375,-0.20871193706989288,-0.1106913611292839,-0.06375128030776978
1772536770733412400,7.228412353515625,-0.21820023655891418,-0.15467746555805206,-0.03272385895252228
1772536770743461000,7.238461181640625,-0.224691703915596,-0.15952575206756592,-0.021031782031059265
1772536770753509000,7.248509033203125,-0.2342252880334854,-0.14285248517990112,-0.021274661645293236
1772536770763558100,7.25855810546875,-0.24617542326450348,-0.12149394303560257,-0.03472575545310974
1772536770773607200,7.268607177734375,-0.2624262869358063,-0.11289779096841812,-0.05639270320534706
1772536770783655200,7.2786552734375,-0.27248504757881165,-0.0989590734243393,-0.08237370103597641
1772536770793704000,7.288703857421875,-0.27138569951057434,-0.06793937087059021,-0.0933067798614502
1772536770803752200,7.298752197265625,-0.26517999172210693,-0.03747120872139931,-0.10337192565202713
1772536770813801000,7.308801025390625,-0.25805017352104187,-0.023512249812483788,-0.11359313875436783
1772536770823850200,7.318850341796875,-0.253256231546402,-0.01690095290541649,-0.13068318367004395
1772536770833898000,7.32889794921875,-0.24931661784648895,-0.007345530670136213,-0.1468706727027893
1772536770843947300,7.338947265625,-0.2404528111219406,0.003370230318978429,-0.16478228569030762
1772536770853995000,7.3489951171875,-0.21823352575302124,0.021742580458521843,-0.17894898355007172
1772536770864044300,7.359044189453125,-0.18683992326259613,0.05404219776391983,-0.18267899751663208
1772536770874093000,7.369093017578125,-0.14648984372615814,0.08837699890136719,-0.17898252606391907
1772536770884141300,7.379141357421875,-0.10426914691925049,0.12061216682195663,-0.16665849089622498
1772536770894190000,7.389190185546875,-0.07238205522298813,0.11970030516386032,-0.15731611847877502
1772536770904239000,7.399239013671875,-0.03401282802224159,0.08473672717809677,-0.13408084213733673
1772536770914287000,7.409287109375,0.005035238806158304,0.0463898703455925,-0.10221904516220093
1772536770924336000,7.419336181640625,0.03681740164756775,0.034806717187166214,-0.05676234886050224
1772536770934384000,7.429384033203125,0.06729914247989655,0.01973988302052021,-0.011910455301404
1772536770944433200,7.43943310546875,0.1107076033949852,-0.017014935612678528,0.01564766839146614
1772536770954482200,7.449482177734375,0.15036526322364807,-0.04264999181032181,0.04476134479045868
1772536770964530200,7.4595302734375,0.1806078553199768,-0.04999419301748276,0.07469261437654495
1772536770974579200,7.4695791015625,0.2001543939113617,-0.06354328989982605,0.08669015020132065
1772536770984628200,7.479628173828125,0.21220706403255463,-0.09684478491544724,0.0766734704375267
1772536770994676200,7.48967626953125,0.23402075469493866,-0.07276608049869537,0.07594749331474304
1772536771004725200,7.499725341796875,0.2301354706287384,-0.0234049241989851,0.09432730078697205
1772536771014773200,7.509773193359375,0.1919100433588028,-0.07933450490236282,0.09810739010572433
1772536771024822300,7.519822265625,0.2105814665555954,-0.13588033616542816,0.10827454179525375
1772536771034871000,7.52987109375,0.21721114218235016,-0.10673975944519043,0.14289164543151855
1772536771044919300,7.539919189453125,0.221388578414917,-0.043224968016147614,0.18190935254096985
1772536771054968000,7.549968017578125,0.24585530161857605,0.043950945138931274,0.24827691912651062
1772536771065017300,7.560017333984375,0.25098296999931335,0.11883583664894104,0.29409581422805786
1772536771075065000,7.570065185546875,0.2754496932029724,0.1693970113992691,0.31522345542907715
1772536771085114400,7.5801142578125,0.3131275475025177,0.22122053802013397,0.3301211893558502
1772536771095162000,7.590162109375,0.3551975190639496,0.2941969931125641,0.33183279633522034
1772536771105211100,7.600211181640625,0.39510098099708557,0.3894460201263428,0.31906479597091675
1772536771115260200,7.61026025390625,0.4395613968372345,0.43750542402267456,0.2838285267353058
1772536771125308200,7.62030810546875,0.460704505443573,0.38849368691444397,0.22764594852924347
1772536771135357200,7.630357177734375,0.45670896768569946,0.27628910541534424,0.15609052777290344
1772536771145405000,7.640405029296875,0.4595039486885071,0.16294045746326447,0.0897916704416275
1772536771155454200,7.6504541015625,0.4816017746925354,0.08082054555416107,0.03719290718436241
1772536771165503200,7.660503173828125,0.4858820140361786,-0.003596865339204669,-0.02129463665187359
1772536771175551200,7.67055126953125,0.45492517948150635,-0.09184256941080093,-0.08538946509361267
1772536771185600000,7.68060009765625,0.40533843636512756,-0.1357453167438507,-0.14086151123046875
1772536771195649000,7.69064892578125,0.3463076055049896,-0.10674535483121872,-0.17609380185604095
1772536771205697000,7.700697021484375,0.2946428060531616,-0.01697072759270668,-0.19310128688812256
1772536771215746000,7.71074609375,0.260537326335907,0.10166937112808228,-0.19333137571811676
1772536771225795000,7.720795166015625,0.24600444734096527,0.19853173196315765,-0.19178062677383423
1772536771235843000,7.730843017578125,0.2504660487174988,0.26357942819595337,-0.18811984360218048
1772536771245892000,7.74089208984375,0.26096847653388977,0.285604327917099,-0.17211264371871948
1772536771255940000,7.750940185546875,0.2650444507598877,0.24876508116722107,-0.15535709261894226
1772536771265989000,7.760989013671875,0.259640634059906,0.17130091786384583,-0.1299087256193161
1772536771276038100,7.7710380859375,0.2589215636253357,0.0988251119852066,-0.08327704668045044
1772536771286086100,7.781086181640625,0.26101961731910706,0.049786731600761414,-0.02575116977095604
1772536771296135200,7.79113525390625,0.27200913429260254,0.0344860702753067,0.022947126999497414
1772536771306183200,7.80118310546875,0.2906310260295868,0.055265653878450394,0.05065092816948891
1772536771316232200,7.811232177734375,0.319451242685318,0.09180448949337006,0.05308372527360916
1772536771326281000,7.821281005859375,0.3404848873615265,0.14497236907482147,0.03410524129867554
1772536771336329200,7.8313291015625,0.3570646643638611,0.16987133026123047,0.005799832288175821
1772536771346378000,7.8413779296875,0.3656107485294342,0.17273396253585815,-0.021641379222273827
1772536771356426200,7.85142626953125,0.371945858001709,0.15906715393066406,-0.037059485912323
1772536771366475000,7.86147509765625,0.3733839690685272,0.12146011739969254,-0.03687439486384392
1772536771376524300,7.871524169921875,0.36726295948028564,0.05981006845831871,-0.026011893525719643
1772536771386572000,7.881572021484375,0.3659513592720032,-0.019216837361454964,-0.00726536987349391
1772536771396621300,7.891621337890625,0.3669292628765106,-0.08545923978090286,0.020259732380509377
1772536771406670000,7.901670166015625,0.3716183006763458,-0.12350942194461823,0.0413447767496109
1772536771416718300,7.91171826171875,0.363277792930603,-0.1279880553483963,0.05228184536099434
1772536771426767000,7.92176708984375,0.35230985283851624,-0.12429478764533997,0.03616625815629959
1772536771436815400,7.9318154296875,0.3417762517929077,-0.11281096935272217,-0.0024642229545861483
1772536771446864100,7.941864013671875,0.32585054636001587,-0.07160201668739319,-0.05230528116226196
1772536771456913200,7.9519130859375,0.31592974066734314,0.008208128623664379,-0.10681752860546112
1772536771466962200,7.961962158203125,0.30603474378585815,0.11541234701871872,-0.15055088698863983
1772536771477011200,7.97201123046875,0.30189380049705505,0.21760183572769165,-0.1914602369070053
1772536771487060000,7.98206005859375,0.2941778302192688,0.26813024282455444,-0.21274130046367645
1772536771497108200,7.992108154296875,0.278626024723053,0.26462313532829285,-0.21924926340579987
1772536771507157000,8.002156982421875,0.26701465249061584,0.22151002287864685,-0.2056194692850113
1772536771517205200,8.012205322265626,0.2605127990245819,0.1687093824148178,-0.17801368236541748
1772536771527254000,8.02225390625,0.24304381012916565,0.11490634828805923,-0.14546744525432587
1772536771537303300,8.03230322265625,0.2255801260471344,0.06453931331634521,-0.11616601794958115
1772536771547351000,8.04235107421875,0.20157413184642792,0.021986791864037514,-0.09961580485105515
1772536771557400300,8.052400390625,0.1747579574584961,0.012347213923931122,-0.09451079368591309
1772536771567449000,8.062448974609374,0.16406004130840302,0.02563532255589962,-0.09792736172676086
1772536771577497300,8.072497314453125,0.1551389843225479,0.06295765936374664,-0.10619700700044632
1772536771587546000,8.082546142578124,0.14261946082115173,0.09180981665849686,-0.11541341245174408
1772536771597594400,8.092594482421875,0.12622025609016418,0.08376280963420868,-0.13094016909599304
1772536771607643100,8.10264306640625,0.09425512701272964,0.051951080560684204,-0.1472991704940796
1772536771617692200,8.112692138671875,0.057137854397296906,0.017949439585208893,-0.13397404551506042
1772536771627740200,8.122740234375,0.02919090911746025,-0.005362008698284626,-0.09694758802652359
1772536771637789200,8.1327890625,0.009720271453261375,-0.011210576631128788,-0.032696694135665894
1772536771647837200,8.142837158203125,-0.0007470166892744601,-0.019935891032218933,0.04241643100976944
1772536771657886200,8.15288623046875,-0.015242336317896843,-0.037632595747709274,0.10497328639030457
1772536771667935200,8.162935302734375,-0.039203327149152756,-0.0805467739701271,0.14544640481472015
1772536771677983000,8.17298291015625,-0.06874843686819077,-0.12678271532058716,0.16198331117630005
1772536771688032300,8.1830322265625,-0.10434957593679428,-0.16233564913272858,0.16608457267284393
1772536771698081300,8.193081298828124,-0.13938505947589874,-0.18260575830936432,0.16497990489006042
1772536771708129300,8.20312939453125,-0.17648182809352875,-0.2025613635778427,0.16004639863967896
1772536771718178000,8.213177978515626,-0.21394318342208862,-0.23521970212459564,0.16212792694568634
1772536771728226300,8.223226318359375,-0.24303634464740753,-0.26465561985969543,0.1748005747795105
1772536771738275000,8.233275146484376,-0.2693302631378174,-0.27414554357528687,0.18142811954021454
1772536771748324000,8.243323974609375,-0.29461777210235596,-0.28020477294921875,0.16587765514850616
1772536771758372000,8.2533720703125,-0.31715452671051025,-0.2946785092353821,0.14507649838924408
1772536771768421000,8.263421142578125,-0.3413269817829132,-0.29828256368637085,0.1260567307472229
1772536771778470100,8.27347021484375,-0.37511634826660156,-0.28077706694602966,0.12052348256111145
1772536771788518100,8.28351806640625,-0.41716820001602173,-0.27641960978507996,0.1188688650727272
1772536771798567200,8.293567138671875,-0.4573976397514343,-0.2831304967403412,0.11792024224996567
1772536771808615200,8.303615234375,-0.48941683769226074,-0.25985872745513916,0.13783375918865204
1772536771818664200,8.313664306640625,-0.49613651633262634,-0.18352961540222168,0.16758526861667633
1772536771828713200,8.323713134765624,-0.5009738802909851,-0.10709209740161896,0.17013710737228394
1772536771838761200,8.33376123046875,-0.5166314244270325,-0.12505298852920532,0.13442571461200714
1772536771848810200,8.343810302734376,-0.5462489724159241,-0.19816261529922485,0.07045818865299225
1772536771858858000,8.35385791015625,-0.5796521902084351,-0.2528969645500183,0.00782676413655281
1772536771868907300,8.3639072265625,-0.6166986227035522,-0.2532767355442047,-0.05523395910859108
1772536771878956000,8.3739560546875,-0.6821556687355042,-0.2526301145553589,-0.13620443642139435
1772536771889004300,8.38400439453125,-0.7245894074440002,-0.1934107393026352,-0.2005365639925003
1772536771899053000,8.394052978515624,-0.7684450149536133,-0.0476069338619709,-0.25748321413993835
1772536771909102000,8.40410205078125,-0.7804374694824219,0.12897714972496033,-0.29326170682907104
1772536771919150000,8.414150146484374,-0.7544644474983215,0.3001057505607605,-0.3063301146030426
1772536771929199000,8.42419921875,-0.6899885535240173,0.43920427560806274,-0.2902568578720093
1772536771939247000,8.4342470703125,-0.6011255383491516,0.5292888879776001,-0.22805340588092804
1772536771949296000,8.444296142578125,-0.5212109684944153,0.5356687307357788,-0.15089097619056702
1772536771959345200,8.45434521484375,-0.45327267050743103,0.45878541469573975,-0.05139368399977684
1772536771969393200,8.46439306640625,-0.3984011709690094,0.32333067059516907,0.0597996823489666
1772536771979442200,8.474442138671876,-0.36980733275413513,0.16684703528881073,0.1681637018918991
1772536771989491200,8.4844912109375,-0.34912657737731934,0.02177693508565426,0.2550210952758789
1772536771999539200,8.494539306640625,-0.3240332007408142,-0.10297112166881561,0.3139707148075104
1772536772009588200,8.504588134765624,-0.28994235396385193,-0.1794126331806183,0.34810152649879456
1772536772019636200,8.51463623046875,-0.24729926884174347,-0.18402549624443054,0.3397602438926697
1772536772029685200,8.524685302734374,-0.19970431923866272,-0.14160266518592834,0.30418333411216736
1772536772039734000,8.534734130859375,-0.16576020419597626,-0.07986100763082504,0.24434024095535278
1772536772049782000,8.544781982421876,-0.14402934908866882,-0.028194619342684746,0.16548004746437073
1772536772059831000,8.5548310546875,-0.13505209982395172,-0.022595323622226715,0.0782436728477478
1772536772069879000,8.564879150390626,-0.1479945182800293,-0.05433567613363266,-0.013496899977326393
1772536772079928000,8.574927978515625,-0.17575451731681824,-0.11729759722948074,-0.08767233043909073
1772536772089977300,8.584977294921876,-0.21035030484199524,-0.182233989238739,-0.14973649382591248
1772536772100025000,8.595025146484375,-0.23895958065986633,-0.21218203008174896,-0.1832084357738495
1772536772110074000,8.60507421875,-0.24580471217632294,-0.18475094437599182,-0.1790648251771927
1772536772120123100,8.615123046875,-0.23381462693214417,-0.10450803488492966,-0.1608235090970993
1772536772130171100,8.625171142578125,-0.19615140557289124,-0.003442135639488697,-0.13705798983573914
1772536772140220200,8.63522021484375,-0.1455012708902359,0.054730355739593506,-0.1213754266500473
1772536772150268200,8.64526806640625,-0.09508683532476425,0.048768870532512665,-0.10837440937757492
1772536772160317200,8.655317138671874,-0.05567498132586479,0.00851625669747591,-0.08830908685922623
1772536772170366000,8.665365966796875,-0.03131131827831268,-0.04146728292107582,-0.058701131492853165
1772536772180414200,8.675414306640626,-0.028009796515107155,-0.08590824902057648,-0.031572841107845306
1772536772190463000,8.685462890625,-0.0407242588698864,-0.11439741402864456,-0.003966512158513069
1772536772200512300,8.69551220703125,-0.06288309395313263,-0.1236598864197731,0.011697135865688324
1772536772210560000,8.70556005859375,-0.08620652556419373,-0.10505957156419754,0.01581891067326069
1772536772220609300,8.715609375,-0.10321959853172302,-0.05182112008333206,-0.00430047232657671
1772536772230657000,8.725656982421874,-0.11739213764667511,0.014105166308581829,-0.028969332575798035
1772536772240706300,8.735706298828125,-0.12524819374084473,0.060149092227220535,-0.05993949994444847
1772536772250755000,8.745755126953124,-0.13352370262145996,0.07492084801197052,-0.08500170707702637
1772536772260803300,8.75580322265625,-0.1271694004535675,0.06938333809375763,-0.10158415138721466
1772536772270852000,8.76585205078125,-0.1172531247138977,0.07055485993623734,-0.09727568924427032
1772536772280900400,8.775900390625,-0.09592200070619583,0.07456957548856735,-0.09033308923244476
1772536772290949000,8.78594921875,-0.0729767382144928,0.07852916419506073,-0.07104514539241791
1772536772300998100,8.795998046875,-0.05300063267350197,0.08663689345121384,-0.046546462923288345
1772536772311046100,8.806046142578126,-0.03225354477763176,0.08401048183441162,-0.028743498027324677
1772536772321095200,8.81609521484375,-0.016805611550807953,0.07330776751041412,-0.01588788628578186
1772536772331144200,8.826144287109376,0.0011203918838873506,0.0684293881058693,-0.004701810888946056
1772536772341192200,8.836192138671874,0.021167868748307228,0.07100652903318405,-0.004714061506092548
1772536772351241200,8.8462412109375,0.05766649171710014,0.09565088897943497,0.006161223165690899
1772536772361289200,8.856289306640624,0.09541014581918716,0.14695589244365692,0.020116720348596573
1772536772371338200,8.866338134765625,0.1409110426902771,0.1810147911310196,0.03304503485560417
1772536772381387300,8.87638720703125,0.1848050057888031,0.1784091591835022,0.044807951897382736
1772536772391435300,8.886435302734375,0.2181411236524582,0.14403599500656128,0.057808440178632736
1772536772401484300,8.896484375,0.24610723555088043,0.10400789231061935,0.08000535517930984
1772536772411533000,8.906532958984375,0.2692996561527252,0.05775943771004677,0.11535561829805374
1772536772421581000,8.9165810546875,0.2882871925830841,0.010047308169305325,0.15293867886066437
1772536772431630000,8.926630126953125,0.29554322361946106,-0.02672002837061882,0.19367386400699615
1772536772441678000,8.936677978515625,0.3065356910228729,-0.034575819969177246,0.22553139925003052
1772536772451727000,8.94672705078125,0.3173966109752655,-0.004254133440554142,0.25366848707199097
1772536772461776400,8.9567763671875,0.3349159359931946,0.06324607878923416,0.26411738991737366
1772536772471823400,8.9668232421875,0.3518661558628082,0.13568885624408722,0.24273860454559326
1772536772481872600,8.97687255859375,0.3614889681339264,0.20301543176174164,0.19982630014419556
1772536772491920400,8.98692041015625,0.35320574045181274,0.2623187005519867,0.1344776451587677
1772536772501969700,8.9969697265625,0.3506384491920471,0.3283129036426544,0.0815609022974968
1772536772512018400,9.007018310546876,0.3615550100803375,0.3863471746444702,0.06998254358768463
1772536772522066700,9.017066650390625,0.3521777391433716,0.3973279297351837,0.07695256918668747
1772536772532115500,9.027115478515626,0.3642389476299286,0.3517031669616699,0.09412117302417755
1772536772542164500,9.03716455078125,0.3733072578907013,0.28923046588897705,0.13123472034931183
1772536772552212500,9.04721240234375,0.3382377028465271,0.17941077053546906,0.15187448263168335
1772536772562261500,9.057261474609374,0.3085724711418152,0.040041159838438034,0.1455654501914978
1772536772572309500,9.0673095703125,0.28706398606300354,-0.04229871928691864,0.13152819871902466
1772536772582358500,9.077358642578124,0.2618390619754791,-0.08759589493274689,0.12295814603567123
1772536772592407600,9.087407470703125,0.22732795774936676,-0.12694144248962402,0.09525541216135025
1772536772602455600,9.09745556640625,0.1903102844953537,-0.13373994827270508,0.05235561728477478
1772536772612504600,9.107504638671875,0.16059766709804535,-0.0850086361169815,0.007994276471436024
1772536772622552600,9.117552490234376,0.1465231329202652,0.004598746541887522,-0.0054365769028663635
1772536772632601600,9.1276015625,0.14317713677883148,0.12544500827789307,0.012656672857701778
1772536772642650600,9.137650634765626,0.1685112565755844,0.2705982029438019,0.059590358287096024
1772536772652698600,9.14769873046875,0.2139301300048828,0.39773619174957275,0.11404747515916824
