time,seconds_elapsed,z,y,x
1772536724041053000,0.067052978515625,-0.02666596509516239,-0.28767839074134827,0.17822059988975525
1772536724051101700,0.077101806640625,-0.03632311895489693,-0.29115673899650574,0.11862704902887344
1772536724061150700,0.087150634765625,-0.03229349106550217,-0.2719534933567047,0.05608723685145378
1772536724071199700,0.09719970703125,-0.019211245700716972,-0.22497719526290894,0.017117999494075775
1772536724081248800,0.107248779296875,0.007589210290461779,-0.1676875352859497,0.015784289687871933
1772536724091297800,0.1172978515625,0.033491380512714386,-0.12408040463924408,0.031862325966358185
1772536724101345800,0.127345703125,0.05784172937273979,-0.10079772025346756,0.06118346378207207
1772536724111394800,0.137394775390625,0.10014417767524719,-0.059913668781518936,0.08989633619785309
1772536724121443800,0.14744384765625,0.15233813226222992,0.0011353056179359555,0.11536227911710739
1772536724131492900,0.157492919921875,0.1914791464805603,0.053647782653570175,0.12445883452892303
1772536724141541600,0.167541748046875,0.2200937569141388,0.06694281101226807,0.11323387920856476
1772536724151591000,0.1775908203125,0.24932114779949188,0.08308316767215729,0.08076195418834686
1772536724161638700,0.187638671875,0.2747468650341034,0.1226087361574173,0.05986333265900612
1772536724171688000,0.19768798828125,0.28258803486824036,0.16657406091690063,0.07169149816036224
1772536724181736700,0.20773681640625,0.26870018243789673,0.15116527676582336,0.09411105513572693
1772536724191785700,0.21778564453125,0.24927666783332825,0.06933939456939697,0.11168605089187622
1772536724201834800,0.227834716796875,0.2209414392709732,-0.04266943410038948,0.11500781029462814
1772536724211883800,0.2378837890625,0.19068552553653717,-0.12357919663190842,0.13170023262500763
1772536724221931800,0.247931884765625,0.15547986328601837,-0.16258172690868378,0.152574360370636
1772536724231980800,0.257980712890625,0.1228976920247078,-0.19103732705116272,0.15933772921562195
1772536724242029600,0.268029541015625,0.09536407142877579,-0.21999602019786835,0.15606257319450378
1772536724252078800,0.278078857421875,0.07644949853420258,-0.23814065754413605,0.14120052754878998
1772536724262127900,0.2881279296875,0.06264740228652954,-0.24339641630649567,0.11427970230579376
1772536724272176600,0.2981767578125,0.05037529021501541,-0.2453961819410324,0.08384163677692413
1772536724282224600,0.308224609375,0.03533588722348213,-0.257663756608963,0.05494314432144165
1772536724292273700,0.318273681640625,0.020534303039312363,-0.26718562841415405,0.018306834623217583
1772536724302323000,0.328322998046875,-0.0008820389630272985,-0.2731836140155792,-0.010223076678812504
1772536724312371700,0.338371826171875,-0.031150462105870247,-0.25905659794807434,-0.042448658496141434
1772536724322420700,0.348420654296875,-0.052494365721940994,-0.24057212471961975,-0.0701010599732399
1772536724332469800,0.3584697265625,-0.06324847787618637,-0.1886570006608963,-0.08144665509462357
1772536724342517800,0.368517822265625,-0.07754699140787125,-0.117940753698349,-0.09708553552627563
1772536724352566800,0.37856689453125,-0.06024709343910217,-0.03165007010102272,-0.09606900811195374
1772536724362615800,0.38861572265625,-0.04964105784893036,0.07649557292461395,-0.07836324721574783
1772536724372664600,0.39866455078125,-0.04638773947954178,0.16665183007717133,-0.07173250615596771
1772536724382713900,0.4087138671875,-0.039509858936071396,0.209415003657341,-0.07912677526473999
1772536724392762600,0.4187626953125,-0.02935895323753357,0.23935826122760773,-0.0883069559931755
1772536724402811000,0.428810791015625,-0.017612548545002937,0.26118260622024536,-0.09957612305879593
1772536724412859600,0.438859619140625,-0.01636592298746109,0.25603896379470825,-0.1095866784453392
1772536724422908700,0.44890869140625,-0.011506986804306507,0.22988379001617432,-0.1155465692281723
1772536724432957700,0.458957763671875,-0.008318116888403893,0.16244857013225555,-0.13025280833244324
1772536724443006500,0.46900634765625,-0.01846742443740368,0.09810899198055267,-0.1365136355161667
1772536724453055700,0.4790556640625,-0.034455180168151855,0.061056431382894516,-0.13390666246414185
1772536724463103500,0.489103515625,-0.039318379014730453,0.011506720446050167,-0.12958994507789612
1772536724473152500,0.499152587890625,-0.045813560485839844,-0.02659326046705246,-0.1238284707069397
1772536724483201500,0.509201416015625,-0.05481531098484993,-0.04351232200860977,-0.11544590443372726
1772536724493250600,0.51925048828125,-0.06323542445898056,-0.0401410274207592,-0.11025087535381317
1772536724503299800,0.5292998046875,-0.066917784512043,-0.024584172293543816,-0.1091078445315361
1772536724513347600,0.53934765625,-0.07766816020011902,-0.005063201766461134,-0.10494478791952133
1772536724523396600,0.549396728515625,-0.08271325379610062,-0.001008272753097117,-0.10809211432933807
1772536724533445600,0.559445556640625,-0.09358188509941101,-0.028316326439380646,-0.10350668430328369
1772536724543494700,0.56949462890625,-0.11104955524206161,-0.07600635290145874,-0.0880156084895134
1772536724553543700,0.579543701171875,-0.1302482783794403,-0.13292716443538666,-0.06931649148464203
1772536724563592700,0.5895927734375,-0.1507146805524826,-0.1669788658618927,-0.03761129081249237
1772536724573640700,0.599640625,-0.16832216084003448,-0.16361263394355774,0.017601363360881805
1772536724583689700,0.609689697265625,-0.1861182004213333,-0.14790397882461548,0.06406766921281815
1772536724593738500,0.619738525390625,-0.21048080921173096,-0.1455763727426529,0.10064884275197983
1772536724603787800,0.629787841796875,-0.23864533007144928,-0.1557917296886444,0.10995126515626907
1772536724613836500,0.63983642578125,-0.2674090564250946,-0.16354338824748993,0.10699702054262161
1772536724623885600,0.649885498046875,-0.29576215147972107,-0.15721198916435242,0.09411904215812683
1772536724633933600,0.65993359375,-0.3208374083042145,-0.15908552706241608,0.0637584701180458
1772536724643982600,0.669982666015625,-0.35233941674232483,-0.18481218814849854,0.017765680328011513
1772536724654031600,0.680031494140625,-0.3973985016345978,-0.21095538139343262,-0.036981720477342606
1772536724664080600,0.69008056640625,-0.43160998821258545,-0.19126050174236298,-0.07225742191076279
1772536724674129400,0.70012939453125,-0.4355413615703583,-0.09874681383371353,-0.07469873875379562
1772536724684178700,0.7101787109375,-0.4230913519859314,0.008196943439543247,-0.07863329350948334
1772536724694226400,0.720226318359375,-0.4240327775478363,0.018787004053592682,-0.10688330978155136
1772536724704275700,0.730275634765625,-0.4510928690433502,-0.060867078602313995,-0.17552228271961212
1772536724714324700,0.74032470703125,-0.4679485559463501,-0.11035367101430893,-0.24209412932395935
1772536724724373500,0.75037353515625,-0.47778335213661194,-0.08493086695671082,-0.27265310287475586
1772536724734422800,0.7604228515625,-0.48691079020500183,-0.014088122174143791,-0.27224430441856384
1772536724744471600,0.770471435546875,-0.4806782007217407,0.07725377380847931,-0.24980904161930084
1772536724754519800,0.780519775390625,-0.468176007270813,0.1358523666858673,-0.24161794781684875
1772536724764568600,0.790568603515625,-0.4420163035392761,0.15896914899349213,-0.23989248275756836
1772536724774617600,0.80061767578125,-0.41630375385284424,0.1599433273077011,-0.24976110458374023
1772536724784666600,0.81066650390625,-0.38844069838523865,0.1127566397190094,-0.27951791882514954
1772536724794715600,0.820715576171875,-0.36447834968566895,0.039202261716127396,-0.2947259247303009
1772536724804764400,0.830764404296875,-0.34479039907455444,-0.02869263105094433,-0.2597000300884247
1772536724814812700,0.840812744140625,-0.3152114748954773,-0.09858649224042892,-0.17613720893859863
1772536724824861400,0.850861328125,-0.28649380803108215,-0.1237562969326973,-0.04258714243769646
1772536724834910700,0.86091064453125,-0.2390964776277542,-0.06215231865644455,0.11753807961940765
1772536724844959500,0.87095947265625,-0.17879104614257812,0.059176236391067505,0.27218279242515564
1772536724855008500,0.881008544921875,-0.1279265433549881,0.16452263295650482,0.3840762972831726
1772536724865057800,0.891057861328125,-0.08270473033189774,0.17929412424564362,0.44260936975479126
1772536724875105500,0.90110546875,-0.04141481593251228,0.11823023855686188,0.46945512294769287
1772536724885154600,0.911154541015625,-0.029560288414359093,0.07115434110164642,0.47115659713745117
1772536724895203600,0.92120361328125,-0.04952361062169075,0.001990712946280837,0.4425044655799866
1772536724905252600,0.931252685546875,-0.08527521789073944,-0.10464518517255783,0.3895781338214874
1772536724915301600,0.941301513671875,-0.12467135488986969,-0.1908823400735855,0.3297558128833771
1772536724925349600,0.951349609375,-0.17169825732707977,-0.25568556785583496,0.27763667702674866
1772536724935398700,0.961398681640625,-0.2559867799282074,-0.31288546323776245,0.2069324105978012
1772536724945447700,0.97144775390625,-0.3344314992427826,-0.3247320055961609,0.12990446388721466
1772536724955496400,0.981496337890625,-0.3813031315803528,-0.2586328983306885,0.05762947350740433
1772536724965545700,0.991545654296875,-0.40695416927337646,-0.14960679411888123,-0.010455303825438023
1772536724975594500,1.001594482421875,-0.41602569818496704,-0.0385279506444931,-0.08001574128866196
1772536724985642800,1.011642822265625,-0.4115199148654938,0.033917222172021866,-0.1608184427022934
1772536724995691500,1.02169140625,-0.4049179255962372,0.05481637641787529,-0.2376256138086319
1772536725005740500,1.031740478515625,-0.40934836864471436,0.022278407588601112,-0.29321056604385376
1772536725015789600,1.04178955078125,-0.42957958579063416,-0.016979781910777092,-0.3129086494445801
1772536725025838600,1.051838623046875,-0.46175751090049744,-0.06193260848522186,-0.2995976209640503
1772536725035887600,1.0618876953125,-0.5014694929122925,-0.12539467215538025,-0.2637416422367096
1772536725045935600,1.071935546875,-0.5232786536216736,-0.1839064508676529,-0.19780655205249786
1772536725055984400,1.081984375,-0.5368631482124329,-0.20100660622119904,-0.10522149503231049
1772536725066033700,1.09203369140625,-0.5397023558616638,-0.1857975572347641,-0.028667330741882324
1772536725076082700,1.102082763671875,-0.5169491171836853,-0.16185282170772552,0.019809924066066742
1772536725086131500,1.11213134765625,-0.479496568441391,-0.11589650809764862,0.044203415513038635
1772536725096180700,1.1221806640625,-0.44240352511405945,-0.07767055928707123,0.039074163883924484
1772536725106228500,1.132228515625,-0.40743488073349,-0.05730403587222099,0.012207397259771824
1772536725116277800,1.14227783203125,-0.3773065507411957,-0.04397305101156235,-0.029263878241181374
1772536725126326500,1.152326416015625,-0.35956084728240967,-0.031064175069332123,-0.06532121449708939
1772536725136375600,1.16237548828125,-0.3530811071395874,-0.028794096782803535,-0.08483392745256424
1772536725146424600,1.172424560546875,-0.3514957129955292,-0.05621080845594406,-0.08627789467573166
1772536725156472600,1.18247265625,-0.34274083375930786,-0.08967795222997665,-0.06930024176836014
1772536725166521600,1.192521484375,-0.32244354486465454,-0.0994885042309761,-0.03687279671430588
1772536725176570600,1.202570556640625,-0.29227501153945923,-0.09397895634174347,-0.00009374327055411413
1772536725186619600,1.21261962890625,-0.2512098550796509,-0.0939033254981041,0.034332405775785446
1772536725196668700,1.222668701171875,-0.1991458535194397,-0.09536353498697281,0.06203620508313179
1772536725206717400,1.232717529296875,-0.14541152119636536,-0.10232237726449966,0.08781054615974426
1772536725216765700,1.242765625,-0.08928833156824112,-0.10571098327636719,0.12493287771940231
1772536725226814500,1.252814453125,-0.027725370600819588,-0.09283912926912308,0.16292287409305573
1772536725236863500,1.262863525390625,0.03893674537539482,-0.07499221712350845,0.21198123693466187
1772536725246912800,1.272912841796875,0.10682152211666107,-0.06868984550237656,0.2488657385110855
1772536725256961500,1.28296142578125,0.18217779695987701,-0.09733134508132935,0.27213963866233826
1772536725267010800,1.2930107421875,0.2667512595653534,-0.16311728954315186,0.3121855854988098
1772536725277058600,1.30305859375,0.3407171070575714,-0.23026569187641144,0.36930668354034424
1772536725287107600,1.313107666015625,0.3874499797821045,-0.28984299302101135,0.43180227279663086
1772536725297156600,1.323156494140625,0.41779032349586487,-0.32889294624328613,0.4727475643157959
1772536725307205600,1.33320556640625,0.47468796372413635,-0.27959996461868286,0.5100962519645691
1772536725317254700,1.343254638671875,0.5039419531822205,-0.2131282538175583,0.5356026887893677
1772536725327303700,1.3533037109375,0.5467333793640137,-0.1813703179359436,0.549772322177887
1772536725337351700,1.3633515625,0.5823031067848206,-0.15694087743759155,0.5325440764427185
1772536725347400700,1.373400634765625,0.5947219729423523,-0.13478471338748932,0.48123401403427124
1772536725357449500,1.383449462890625,0.5929307341575623,-0.10889904946088791,0.39002925157546997
1772536725367498800,1.393498779296875,0.5782713294029236,-0.08038858324289322,0.27018728852272034
1772536725377547500,1.403547607421875,0.5541753172874451,-0.05905479937791824,0.14986778795719147
1772536725387595800,1.413595703125,0.5257836580276489,-0.02515675127506256,0.06220158934593201
1772536725397644500,1.42364453125,0.5142377614974976,0.028537102043628693,0.029766418039798737
1772536725407693600,1.433693603515625,0.5313363075256348,0.09342901408672333,0.04729267954826355
1772536725417742600,1.44374267578125,0.578618586063385,0.1617090106010437,0.09703893214464188
1772536725427792100,1.453792236328125,0.6357612609863281,0.21388699114322662,0.15860003232955933
1772536725437841000,1.4638408203125,0.7228794097900391,0.29550889134407043,0.22828589379787445
1772536725447889200,1.47388916015625,0.7747822403907776,0.3699237108230591,0.29312747716903687
1772536725457938000,1.48393798828125,0.8023507595062256,0.38127759099006653,0.3159204125404358
1772536725467987000,1.493987060546875,0.8230248689651489,0.33892425894737244,0.3048461973667145
1772536725478036000,1.504035888671875,0.8043641448020935,0.25103995203971863,0.26866820454597473
1772536725488085000,1.5140849609375,0.7610896229743958,0.1479865312576294,0.2502010464668274
1772536725498134000,1.524134033203125,0.682238757610321,0.023183615878224373,0.22848084568977356
1772536725508182000,1.53418212890625,0.6033018827438354,-0.11844275891780853,0.21291759610176086
1772536725518231000,1.54423095703125,0.5424813628196716,-0.21843940019607544,0.21681885421276093
1772536725528280000,1.554280029296875,0.4864245057106018,-0.25984010100364685,0.22720599174499512
1772536725538328800,1.564328857421875,0.4544135630130768,-0.25112277269363403,0.2272467315196991
1772536725548378000,1.574378173828125,0.4432690441608429,-0.2015051543712616,0.20675450563430786
1772536725558425900,1.58442578125,0.43691420555114746,-0.14041197299957275,0.1653631329536438
1772536725568475100,1.59447509765625,0.4130200743675232,-0.07459088414907455,0.10291572660207748
1772536725578524000,1.60452392578125,0.3766189217567444,-0.023312779143452644,0.02412184700369835
1772536725588573000,1.614572998046875,0.32627904415130615,0.011743741109967232,-0.05228477716445923
1772536725598622200,1.624622314453125,0.2681960463523865,0.04084090515971184,-0.10610406845808029
1772536725608671000,1.6346708984375,0.21771501004695892,0.06458884477615356,-0.14324185252189636
1772536725618719000,1.644718994140625,0.18087470531463623,0.10020649433135986,-0.15610703825950623
1772536725628768000,1.65476806640625,0.15507160127162933,0.136826291680336,-0.1689344197511673
1772536725638817000,1.664817138671875,0.14223650097846985,0.17347484827041626,-0.1853986233472824
1772536725648866000,1.674865966796875,0.13893072307109833,0.20316509902477264,-0.1969255805015564
1772536725658915000,1.6849150390625,0.14562751352787018,0.22918152809143066,-0.2121436893939972
1772536725668963800,1.6949638671875,0.15624234080314636,0.2517392933368683,-0.2177608162164688
1772536725679012000,1.70501220703125,0.15700240433216095,0.24702763557434082,-0.21540498733520508
1772536725689060900,1.715060791015625,0.14727839827537537,0.20371770858764648,-0.20363248884677887
1772536725699110100,1.725110107421875,0.13866254687309265,0.13599379360675812,-0.18477171659469604
1772536725709159000,1.735158935546875,0.1226942241191864,0.07556293159723282,-0.1523040533065796
1772536725719208000,1.7452080078125,0.09906399995088577,0.03593243286013603,-0.12774650752544403
1772536725729257000,1.755257080078125,0.08179526031017303,0.013173858635127544,-0.12280687689781189
1772536725739305000,1.765304931640625,0.07065792381763458,0.011562912724912167,-0.12042921036481857
1772536725749354000,1.77535400390625,0.055635031312704086,0.0189577117562294,-0.12640054523944855
1772536725759403000,1.785403076171875,0.04301351308822632,0.02901167795062065,-0.13933153450489044
1772536725769452000,1.7954521484375,0.03588263317942619,0.050820302218198776,-0.14249616861343384
1772536725779501000,1.8055009765625,0.020665330812335014,0.09039061516523361,-0.13498924672603607
1772536725789548800,1.815548828125,-0.0023180153220891953,0.12114852666854858,-0.112823486328125
1772536725799598000,1.82559814453125,-0.026751186698675156,0.13104642927646637,-0.0851668268442154
1772536725809647000,1.835647216796875,-0.05396203324198723,0.1137729063630104,-0.06514891237020493
1772536725819695900,1.84569580078125,-0.09137305617332458,0.07618984580039978,-0.05570480599999428
1772536725829745200,1.8557451171875,-0.13661430776119232,0.013145895674824715,-0.055692024528980255
1772536725839794000,1.8657939453125,-0.1913965940475464,-0.045689456164836884,-0.04800747334957123
1772536725849842200,1.87584228515625,-0.24333809316158295,-0.07273918390274048,-0.03104659914970398
1772536725859891000,1.885890869140625,-0.2788665294647217,-0.05724118649959564,-0.0015158712631091475
1772536725869940000,1.89593994140625,-0.2926792800426483,-0.015846608206629753,0.024162061512470245
1772536725879989000,1.905989013671875,-0.2919061481952667,0.03452149033546448,0.04367024824023247
1772536725890038000,1.9160380859375,-0.2855505347251892,0.06984113156795502,0.04962800815701485
1772536725900086000,1.9260859375,-0.28545865416526794,0.07810412347316742,0.03731541335582733
1772536725910135000,1.936135009765625,-0.28956976532936096,0.06746052950620651,0.018325477838516235
1772536725920183800,1.946183837890625,-0.30147674679756165,0.03567757084965706,-0.0013105415273457766
1772536725930233000,1.956233154296875,-0.3245930075645447,-0.010976218618452549,-0.026881415396928787
1772536725940281900,1.96628173828125,-0.35359349846839905,-0.05590907111763954,-0.039563123136758804
1772536725950331000,1.976330810546875,-0.3820863962173462,-0.10670620948076248,-0.03562643751502037
1772536725960379000,1.98637890625,-0.39870157837867737,-0.14784671366214752,-0.011495002545416355
1772536725970428000,1.996427978515625,-0.4003700613975525,-0.18018442392349243,0.039083488285541534
1772536725980477200,2.006477294921875,-0.38677912950515747,-0.1770607978105545,0.1040763333439827
1772536725990526000,2.01652587890625,-0.35460254549980164,-0.14255236089229584,0.17592522501945496
1772536726000575000,2.026574951171875,-0.3153630197048187,-0.11442138254642487,0.2213134765625
1772536726010624000,2.0366240234375,-0.2979920208454132,-0.14450658857822418,0.21353012323379517
1772536726020672000,2.046672119140625,-0.28793057799339294,-0.18736855685710907,0.16927610337734222
1772536726030721000,2.056720947265625,-0.29223746061325073,-0.20762190222740173,0.10635067522525787
1772536726040770000,2.06677001953125,-0.31193819642066956,-0.18850946426391602,0.03658384457230568
1772536726050818800,2.07681884765625,-0.3374866843223572,-0.13971848785877228,-0.0436265729367733
1772536726060868000,2.0868681640625,-0.3643510639667511,-0.06752178817987442,-0.12583328783512115
1772536726070915800,2.096915771484375,-0.39292705059051514,-0.0014620753936469555,-0.2085963487625122
1772536726080965000,2.106965087890625,-0.41058674454689026,0.0392422117292881,-0.2802388370037079
1772536726091014000,2.117013916015625,-0.4082798957824707,0.049549974501132965,-0.34738272428512573
1772536726101063000,2.12706298828125,-0.39889171719551086,0.032112397253513336,-0.3845287561416626
1772536726111112000,2.13711181640625,-0.38011911511421204,-0.019919378682971,-0.39592257142066956
1772536726121161000,2.147160888671875,-0.3589906394481659,-0.0972708910703659,-0.3711804747581482
1772536726131209000,2.157208984375,-0.345451682806015,-0.16688431799411774,-0.3176056742668152
1772536726141258000,2.167258056640625,-0.3297038674354553,-0.20205189287662506,-0.23502182960510254
1772536726151306800,2.177306640625,-0.3126055896282196,-0.204013854265213,-0.13764414191246033
1772536726161356000,2.18735595703125,-0.27629390358924866,-0.15839657187461853,-0.04921761155128479
1772536726171405000,2.197405029296875,-0.22790107131004333,-0.09335178136825562,0.03087509237229824
1772536726181453000,2.207453125,-0.1748298704624176,-0.06052033603191376,0.07564682513475418
1772536726191502000,2.217502197265625,-0.12114213407039642,-0.0683702677488327,0.09555076062679291
1772536726201550800,2.22755078125,-0.07716376334428787,-0.08203601092100143,0.10051994770765305
1772536726211600100,2.23760009765625,-0.05608244240283966,-0.10078892856836319,0.09814414381980896
1772536726221649000,2.24764892578125,-0.058277156203985214,-0.137984499335289,0.08299262076616287
1772536726231698000,2.257697998046875,-0.08116116374731064,-0.1784704029560089,0.06294860690832138
1772536726241746000,2.267745849609375,-0.12153308838605881,-0.2190157026052475,0.037455495446920395
1772536726251795000,2.277794921875,-0.167757049202919,-0.24308562278747559,0.008304269053041935
1772536726261844000,2.287843994140625,-0.20825226604938507,-0.24110396206378937,-0.018692994490265846
1772536726271893000,2.29789306640625,-0.22901082038879395,-0.2165440171957016,-0.0535106286406517
1772536726281942000,2.30794189453125,-0.23634116351604462,-0.1793348640203476,-0.09173231571912766
1772536726291990000,2.317989990234375,-0.22781504690647125,-0.1275148093700409,-0.13476420938968658
1772536726302038800,2.328038818359375,-0.2095542848110199,-0.055810801684856415,-0.1796853393316269
1772536726312088000,2.338088134765625,-0.1945423185825348,0.026314694434404373,-0.22191429138183594
1772536726322136800,2.34813671875,-0.17139571905136108,0.09852657467126846,-0.25725123286247253
1772536726332185900,2.358185791015625,-0.14871464669704437,0.15374402701854706,-0.26692917943000793
1772536726342235100,2.368235107421875,-0.14287060499191284,0.20393235981464386,-0.25175952911376953
1772536726352283000,2.378282958984375,-0.13655225932598114,0.21375489234924316,-0.22522060573101044
1772536726362332000,2.388331787109375,-0.12490944564342499,0.19220300018787384,-0.18888549506664276
1772536726372381000,2.398380859375,-0.12144254148006439,0.14986832439899445,-0.14801982045173645
1772536726382430000,2.408429931640625,-0.11655457317829132,0.11821772158145905,-0.10629208385944366
1772536726392479000,2.41847900390625,-0.10528168082237244,0.10273943096399307,-0.06446234881877899
1772536726402527000,2.42852685546875,-0.09222633391618729,0.10600872337818146,-0.020184364169836044
1772536726412576000,2.438575927734375,-0.08642037212848663,0.07878296077251434,0.013244166038930416
1772536726422625300,2.448625244140625,-0.07104674726724625,0.05301794409751892,0.03756122291088104
1772536726432674000,2.458674072265625,-0.051364120095968246,0.06452199816703796,0.06371106952428818
1772536726442723300,2.468723388671875,-0.030726753175258636,0.0970996543765068,0.06600271910429001
1772536726452772000,2.478772216796875,-0.0005824333056807518,0.09644371271133423,0.04717789962887764
1772536726462820400,2.4888203125,0.01227211207151413,0.07874088734388351,0.01287531852722168
1772536726472869000,2.498869140625,0.00390312890522182,0.054961517453193665,-0.028914738446474075
1772536726482918100,2.508918212890625,-0.014111557975411415,0.004208060912787914,-0.09033149480819702
1772536726492967200,2.51896728515625,-0.028200745582580566,-0.07270988821983337,-0.15445348620414734
1772536726503016200,2.52901611328125,-0.03858201205730438,-0.14416277408599854,-0.21613869071006775
1772536726513065200,2.539065185546875,-0.02990836463868618,-0.2056354433298111,-0.25791144371032715
1772536726523113200,2.54911328125,-0.005052282940596342,-0.22909283638000488,-0.2649584412574768
1772536726533162200,2.559162353515625,0.02256602980196476,-0.21447740495204926,-0.24775627255439758
1772536726543211300,2.569211181640625,0.05663451552391052,-0.1796693652868271,-0.22028575837612152
1772536726553260300,2.57926025390625,0.08726140111684799,-0.1410609781742096,-0.19475696980953217
1772536726563309300,2.589309326171875,0.12969568371772766,-0.07845832407474518,-0.14811968803405762
1772536726573357300,2.599357421875,0.15984585881233215,-0.028064657002687454,-0.09770898520946503
1772536726583406300,2.60940625,0.20013362169265747,0.009260343387722969,-0.04578453302383423
1772536726593455400,2.619455322265625,0.2509653866291046,0.04250271990895271,0.005372661165893078
1772536726603504000,2.629504150390625,0.2809866666793823,0.06449217349290848,0.05485578998923302
1772536726613553400,2.639553466796875,0.3094303011894226,0.06825495511293411,0.10675893723964691
1772536726623602200,2.649602294921875,0.3375282287597656,0.0666610524058342,0.15680532157421112
1772536726633650200,2.659650146484375,0.36096087098121643,0.07026404142379761,0.201850026845932
1772536726643699200,2.66969921875,0.37455976009368896,0.08661345392465591,0.23959794640541077
1772536726653748200,2.679748291015625,0.38253912329673767,0.08919938653707504,0.27521905303001404
1772536726663797200,2.68979736328125,0.38528376817703247,0.0757373720407486,0.2956250011920929
1772536726673846300,2.69984619140625,0.3891970217227936,0.08168341219425201,0.31391504406929016
1772536726683894300,2.709894287109375,0.39055150747299194,0.09757901728153229,0.3299398124217987
1772536726693943300,2.719943359375,0.3894857168197632,0.09995535761117935,0.3269003629684448
1772536726703992000,2.729991943359375,0.39046281576156616,0.08847180753946304,0.3149605989456177
1772536726714041300,2.740041259765625,0.3910287320613861,0.083861343562603,0.30653250217437744
1772536726724090400,2.75009033203125,0.39320695400238037,0.07499994337558746,0.3012128472328186
1772536726734139100,2.76013916015625,0.3959220349788666,0.08848725259304047,0.3288591206073761
1772536726744187100,2.770187255859375,0.4001482129096985,0.12311527132987976,0.3719935417175293
1772536726754236200,2.780236083984375,0.4140318036079407,0.159854918718338,0.418717622756958
1772536726764285400,2.790285400390625,0.4511179029941559,0.20257441699504852,0.4507322907447815
1772536726774334200,2.800334228515625,0.4888186752796173,0.21730169653892517,0.4558788537979126
1772536726784383200,2.81038330078125,0.5171020030975342,0.19483312964439392,0.41031214594841003
1772536726794431200,2.82043115234375,0.5358538627624512,0.182777538895607,0.332788348197937
1772536726804480300,2.830480224609375,0.5544621348381042,0.20325352251529694,0.2438880354166031
1772536726814529300,2.840529296875,0.569568932056427,0.23244735598564148,0.14963503181934357
1772536726824578300,2.850578369140625,0.5733453035354614,0.24214446544647217,0.04705752432346344
1772536726834627000,2.860626953125,0.5760641098022461,0.2154366821050644,-0.04081720486283302
1772536726844676400,2.87067626953125,0.5858868956565857,0.1707182079553604,-0.1031399667263031
1772536726854724000,2.88072412109375,0.591016948223114,0.14747734367847443,-0.10835177451372147
1772536726864773400,2.8907734375,0.5837997794151306,0.1439955234527588,-0.05561292916536331
1772536726874822100,2.900822265625,0.5787488222122192,0.13936747610569,0.030051110312342644
1772536726884871200,2.91087109375,0.5602028369903564,0.10674002766609192,0.12571612000465393
1772536726894920200,2.920920166015625,0.5252560377120972,0.05609016865491867,0.2257993072271347
1772536726904968200,2.93096826171875,0.48162469267845154,0.029562951996922493,0.3186461627483368
1772536726915017200,2.941017333984375,0.44740626215934753,0.039806801825761795,0.3919326066970825
1772536726925066200,2.951066162109375,0.42335525155067444,0.0738300159573555,0.431571900844574
1772536726935115300,2.961115234375,0.40222761034965515,0.10946045070886612,0.431942343711853
1772536726945164300,2.971164306640625,0.3797675669193268,0.13653600215911865,0.39995965361595154
1772536726955213300,2.98121337890625,0.349979043006897,0.156386137008667,0.34837955236434937
1772536726965261300,2.99126123046875,0.3185979425907135,0.17433930933475494,0.2863135039806366
1772536726975310300,3.001310302734375,0.2839217185974121,0.18906232714653015,0.22883744537830353
1772536726985359000,3.011359130859375,0.2561292350292206,0.19209487736225128,0.186252161860466
1772536726995408400,3.021408447265625,0.22899216413497925,0.1684020608663559,0.152592733502388
1772536727005457200,3.03145703125,0.19662357866764069,0.1259118616580963,0.13420148193836212
1772536727015505400,3.04150537109375,0.16652347147464752,0.08219846338033676,0.12130378931760788
1772536727025554200,3.05155419921875,0.14108841121196747,0.058989018201828,0.12432168424129486
1772536727035603200,3.061603271484375,0.11795699596405029,0.037283457815647125,0.13140782713890076
1772536727045652200,3.07165234375,0.08530104905366898,0.008348743431270123,0.12941737473011017
1772536727055701200,3.081701171875,0.06095017120242119,-0.027028687298297882,0.11826405674219131
1772536727065750000,3.09175,0.037625670433044434,-0.0521625354886055,0.0894441306591034
1772536727075798300,3.10179833984375,0.02382410690188408,-0.04954252019524574,0.05877756327390671
1772536727085847000,3.111846923828125,0.01085610967129469,-0.023385750129818916,0.021042168140411377
1772536727095896300,3.121896240234375,0.003799531841650605,0.004357730504125357,-0.016349945217370987
1772536727105945000,3.131945068359375,-0.008518652990460396,0.04712117463350296,-0.04752357676625252
1772536727115994000,3.141994140625,-0.023387614637613297,0.10180599242448807,-0.07410911470651627
1772536727126042000,3.1520419921875,-0.02671150490641594,0.16934294998645782,-0.10083739459514618
1772536727136091100,3.162091064453125,-0.019995013251900673,0.22498571872711182,-0.12427614629268646
1772536727146140400,3.172140380859375,-0.010087521746754646,0.25034990906715393,-0.1439739465713501
1772536727156189200,3.182189208984375,-0.009841179475188255,0.24301157891750336,-0.15874889492988586
1772536727166238200,3.19223828125,-0.017051421105861664,0.19828246533870697,-0.17554092407226562
1772536727176287200,3.202287353515625,-0.026554912328720093,0.1404537856578827,-0.18629451096057892
1772536727186335200,3.212335205078125,-0.042337868362665176,0.08216677606105804,-0.18477784097194672
1772536727196384300,3.22238427734375,-0.05521904677152634,0.03200480341911316,-0.18303799629211426
1772536727206433300,3.232433349609375,-0.06987815350294113,-0.023927969858050346,-0.17956629395484924
1772536727216482000,3.24248193359375,-0.08681079745292664,-0.08914238959550858,-0.16423581540584564
1772536727226531300,3.25253125,-0.0867500752210617,-0.12940245866775513,-0.14435797929763794
1772536727236579000,3.2625791015625,-0.09459388256072998,-0.14168763160705566,-0.123574398458004
1772536727246628400,3.27262841796875,-0.11064662039279938,-0.14431802928447723,-0.10140331834554672
1772536727256677000,3.282677001953125,-0.1183846965432167,-0.12155945599079132,-0.07846018671989441
1772536727266726100,3.29272607421875,-0.12338611483573914,-0.07754139602184296,-0.06806560605764389
1772536727276775200,3.302775146484375,-0.11221921443939209,-0.017436780035495758,-0.06125403568148613
1772536727286824200,3.31282421875,-0.11368501931428909,0.042941074818372726,-0.07467423379421234
1772536727296872200,3.3228720703125,-0.12252112478017807,0.07745883613824844,-0.11486373841762543
1772536727306921200,3.332921142578125,-0.15317091345787048,0.06681311875581741,-0.15928739309310913
1772536727316970000,3.342969970703125,-0.20280584692955017,0.028440961614251137,-0.1878676414489746
1772536727327019300,3.353019287109375,-0.24136760830879211,0.004208060912787914,-0.18444840610027313
1772536727337068300,3.363068359375,-0.27685290575027466,-0.012736568227410316,-0.14498008787631989
1772536727347116300,3.3731162109375,-0.3032437562942505,-0.05823587626218796,-0.08626192063093185
1772536727357165300,3.383165283203125,-0.32352134585380554,-0.07304704934358597,-0.031562987715005875
1772536727367214000,3.393214111328125,-0.33266156911849976,-0.13350772857666016,0.0170879065990448
1772536727377263400,3.403263427734375,-0.3466343879699707,-0.19438812136650085,0.06301411986351013
1772536727387312000,3.41331201171875,-0.3694608807563782,-0.262594074010849,0.10474398732185364
1772536727397361200,3.423361083984375,-0.36851784586906433,-0.29445481300354004,0.1419946849346161
1772536727407409200,3.4334091796875,-0.37906742095947266,-0.29484841227531433,0.17797985672950745
1772536727417458200,3.443458251953125,-0.40748122334480286,-0.3202834725379944,0.19136276841163635
1772536727427507500,3.453507568359375,-0.421258807182312,-0.327299028635025,0.19868992269039154
1772536727437556200,3.46355615234375,-0.43874406814575195,-0.3031148612499237,0.21012181043624878
1772536727447605200,3.473605224609375,-0.4657767415046692,-0.25480780005455017,0.22452178597450256
1772536727457653200,3.4836533203125,-0.48105451464653015,-0.19431355595588684,0.24188266694545746
1772536727467702300,3.493702392578125,-0.4811924695968628,-0.11929390579462051,0.2603013515472412
1772536727477751300,3.503751220703125,-0.4727928340435028,-0.027841750532388687,0.2728874683380127
1772536727487800300,3.51380029296875,-0.45134642720222473,0.040641434490680695,0.280265212059021
1772536727497849300,3.523849365234375,-0.42919182777404785,0.04386066645383835,0.2737140953540802
1772536727507898400,3.5338984375,-0.41353246569633484,-0.018701249733567238,0.2570696175098419
1772536727517946400,3.5439462890625,-0.4049251079559326,-0.09936440736055374,0.21827641129493713
1772536727527995400,3.553995361328125,-0.39887842535972595,-0.1742895096540451,0.17520563304424286
1772536727538044400,3.56404443359375,-0.4076830744743347,-0.23424658179283142,0.13703136146068573
1772536727548093400,3.574093505859375,-0.43663910031318665,-0.3096366822719574,0.09527511894702911
1772536727558142500,3.584142578125,-0.4742221534252167,-0.3939145505428314,0.04749428108334541
1772536727568190500,3.5941904296875,-0.5244917273521423,-0.4537754952907562,-0.016533702611923218
1772536727578239500,3.604239501953125,-0.5608673095703125,-0.4313391447067261,-0.07728812843561172
1772536727588288300,3.614288330078125,-0.5716419219970703,-0.3369380831718445,-0.12347400188446045
1772536727598337500,3.624337646484375,-0.567480206489563,-0.21893714368343353,-0.15360261499881744
1772536727608386300,3.63438623046875,-0.5440508127212524,-0.10531949996948242,-0.17292064428329468
1772536727618434300,3.644434326171875,-0.4769929349422455,0.03983636200428009,-0.17575371265411377
1772536727628483300,3.6544833984375,-0.41385629773139954,0.17755001783370972,-0.17194247245788574
1772536727638532400,3.664532470703125,-0.3471342623233795,0.2569146156311035,-0.16090711951255798
1772536727648581400,3.674581298828125,-0.2866370975971222,0.2390112429857254,-0.15319222211837769
1772536727658630400,3.68463037109375,-0.24827159941196442,0.13246163725852966,-0.13732829689979553
1772536727668679200,3.69467919921875,-0.21876031160354614,-0.029217006638646126,-0.11696896702051163
1772536727678727400,3.7047275390625,-0.19956690073013306,-0.20903870463371277,-0.09688899666070938
1772536727688776200,3.714776123046875,-0.18681035935878754,-0.36100879311561584,-0.05516605079174042
1772536727698825500,3.724825439453125,-0.19032999873161316,-0.45565861463546753,0.0018471685471013188
1772536727708874500,3.73487451171875,-0.19909952580928802,-0.5032338500022888,0.06358696520328522
1772536727718923300,3.74492333984375,-0.207844540476799,-0.49343767762184143,0.09910926967859268
1772536727728971300,3.75497119140625,-0.21010583639144897,-0.41731733083724976,0.10236498713493347
1772536727739020300,3.765020263671875,-0.21382573246955872,-0.29736751317977905,0.05884520709514618
1772536727749069600,3.775069580078125,-0.21590113639831543,-0.18235543370246887,-0.02840873785316944
1772536727759118300,3.785118408203125,-0.2185981124639511,-0.09061431884765625,-0.15080522000789642
1772536727769167400,3.79516748046875,-0.224020853638649,-0.014552577398717403,-0.27942630648612976
1772536727779216400,3.80521630859375,-0.22857750952243805,0.04092372953891754,-0.37765035033226013
1772536727789264400,3.815264404296875,-0.2374005764722824,0.07681914418935776,-0.42982301115989685
1772536727799313400,3.8253134765625,-0.2404613345861435,0.09659178555011749,-0.4414977729320526
1772536727809362400,3.835362548828125,-0.24229039251804352,0.09085001051425934,-0.42127054929733276
1772536727819411200,3.8454111328125,-0.22936289012432098,0.0750497430562973,-0.3850667178630829
1772536727829460500,3.85546044921875,-0.20972393453121185,0.06857187300920486,-0.33532634377479553
1772536727839508200,3.86550830078125,-0.18374373018741608,0.05378440022468567,-0.2698083221912384
1772536727849557500,3.8755576171875,-0.15683355927467346,0.033964358270168304,-0.20831352472305298
1772536727859606300,3.885606201171875,-0.13535861670970917,0.013383982703089714,-0.15252988040447235
1772536727869655300,3.8956552734375,-0.11844196170568466,-0.006670685950666666,-0.12000550329685211
1772536727879704300,3.905704345703125,-0.10726413875818253,-0.026078471913933754,-0.10700501501560211
1772536727889753300,3.91575341796875,-0.10967589914798737,-0.026094984263181686,-0.11031904816627502
1772536727899801300,3.92580126953125,-0.11270257830619812,-0.023081084713339806,-0.12215280532836914
1772536727909850400,3.935850341796875,-0.10809184610843658,-0.01022733747959137,-0.1515415906906128
1772536727919899400,3.9458994140625,-0.09878889471292496,0.01480690948665142,-0.18171866238117218
1772536727929948400,3.955948486328125,-0.08612929284572601,0.0332849845290184,-0.20983844995498657
1772536727939997400,3.96599755859375,-0.06888745725154877,0.0428641103208065,-0.23398266732692719
1772536727950045400,3.97604541015625,-0.05384458974003792,0.0330362468957901,-0.2530895173549652
1772536727960094500,3.986094482421875,-0.04212801158428192,0.01853426918387413,-0.25661712884902954
1772536727970143200,3.996143310546875,-0.029292907565832138,0.014631673693656921,-0.23674224317073822
1772536727980192500,4.006192626953125,-0.01721600443124771,0.016988836228847504,-0.20965096354484558
1772536727990241300,4.0162412109375,-0.0033625070936977863,0.01582423597574234,-0.17908985912799835
1772536728000289500,4.02628955078125,0.007434746716171503,0.0013243899447843432,-0.14810238778591156
1772536728010338300,4.03633837890625,0.012910205870866776,-0.022523950785398483,-0.11001518368721008
1772536728020387300,4.04638720703125,0.0189028512686491,-0.04721997678279877,-0.07005444914102554
1772536728030436400,4.056436279296875,0.023037409409880638,-0.03922676295042038,-0.03506211191415787
1772536728040485400,4.0664853515625,0.03736335039138794,-0.00031318774563260376,-0.007439540233463049
1772536728050534100,4.0765341796875,0.062121160328388214,0.07446757704019547,0.018370218575000763
1772536728060582400,4.08658251953125,0.09284339100122452,0.15973533689975739,0.03477209433913231
1772536728070631200,4.096631103515625,0.12544554471969604,0.22113877534866333,0.038548458367586136
1772536728080680400,4.106680419921875,0.16219103336334229,0.25339019298553467,0.030238596722483635
1772536728090729200,4.116729248046875,0.18384146690368652,0.24869157373905182,0.018326276913285255
1772536728100778200,4.1267783203125,0.20218771696090698,0.21315275132656097,0.024947160854935646
1772536728110826200,4.136826171875,0.22398889064788818,0.17254194617271423,0.057186324149370193
1772536728120875300,4.146875244140625,0.24919624626636505,0.14702673256397247,0.10584574192762375
1772536728130924500,4.156924560546875,0.2800303101539612,0.14231133460998535,0.1708098202943802
1772536728140973300,4.166973388671875,0.31575024127960205,0.14943236112594604,0.24123525619506836
1772536728151022300,4.177022216796875,0.34252139925956726,0.1467771977186203,0.30599215626716614
1772536728161071400,4.1870712890625,0.3749501705169678,0.1349112093448639,0.35584545135498047
1772536728171119400,4.197119384765625,0.4053078293800354,0.13761138916015625,0.3790735602378845
1772536728181168400,4.20716845703125,0.4382207691669464,0.14009211957454681,0.3827369809150696
1772536728191217400,4.217217529296875,0.47254064679145813,0.13294632732868195,0.3721189796924591
1772536728201266200,4.22726611328125,0.5025568604469299,0.13872379064559937,0.3576633334159851
1772536728211315500,4.2373154296875,0.5234435200691223,0.19546723365783691,0.3515412509441376
1772536728221363200,4.24736328125,0.5453887581825256,0.3011161684989929,0.35929638147354126
1772536728231412500,4.25741259765625,0.5621634721755981,0.3941558301448822,0.3729088604450226
1772536728241461200,4.267461181640625,0.5646119713783264,0.43331360816955566,0.3670823872089386
1772536728251510300,4.27751025390625,0.5652439594268799,0.42968985438346863,0.35159531235694885
1772536728261559300,4.287559326171875,0.5758587718009949,0.4113297462463379,0.3272031545639038
1772536728271608300,4.2976083984375,0.5828434824943542,0.3579925000667572,0.2793767750263214
1772536728281656300,4.30765625,0.5786350965499878,0.26592010259628296,0.22642461955547333
1772536728291705300,4.317705322265625,0.5559995770454407,0.14708133041858673,0.16403260827064514
1772536728301754000,4.327754150390625,0.5104323625564575,0.02153751626610756,0.09991434961557388
1772536728311803400,4.337803466796875,0.43754616379737854,-0.10070423781871796,0.03895166143774986
1772536728321852400,4.347852294921875,0.35608646273612976,-0.20786051452159882,-0.007072556763887405
1772536728331900400,4.357900390625,0.2735162377357483,-0.28406739234924316,-0.026675552129745483
1772536728341949400,4.367949462890625,0.2023927867412567,-0.3009321391582489,-0.003817907767370343
1772536728351998200,4.377998291015625,0.15162920951843262,-0.25215262174606323,0.0608883835375309
1772536728362047500,4.388047607421875,0.10736187547445297,-0.16905853152275085,0.11836659163236618
1772536728372096300,4.39809619140625,0.14406849443912506,-0.0013499563792720437,0.18764100968837738
1772536728382144500,4.40814453125,0.19772718846797943,0.24461214244365692,0.2572792172431946
1772536728392193300,4.418193359375,0.2378048300743103,0.4298240840435028,0.28693243861198425
1772536728402242300,4.4282421875,0.27877092361450195,0.4991791844367981,0.2654910683631897
1772536728412291300,4.438291259765625,0.3036096692085266,0.4655895233154297,0.21850517392158508
1772536728422340400,4.44834033203125,0.2930537164211273,0.3861517012119293,0.1723318248987198
1772536728432388900,4.458388916015625,0.25492629408836365,0.29467105865478516,0.14781102538108826
1772536728442438000,4.46843798828125,0.21079160273075104,0.18480899930000305,0.14885392785072327
1772536728452486700,4.478486572265625,0.16302993893623352,0.08699455112218857,0.17115603387355804
1772536728462536000,4.488535888671875,0.12359704077243805,0.014874286949634552,0.20191074907779694
1772536728472584700,4.498584716796875,0.11114782840013504,-0.014104633592069149,0.23447588086128235
1772536728482633700,4.5086337890625,0.12113414704799652,-0.019566509872674942,0.2518112063407898
1772536728492681700,4.518681640625,0.13743536174297333,-0.029947511851787567,0.2543151080608368
1772536728502730800,4.528730712890625,0.14406795799732208,-0.05893122777342796,0.23136238753795624
1772536728512779800,4.53877978515625,0.14071157574653625,-0.08523553609848022,0.18640050292015076
1772536728522828800,4.548828857421875,0.13211649656295776,-0.08580411970615387,0.1320568323135376
1772536728532877600,4.558877685546875,0.09665516763925552,-0.05240248888731003,0.07342921197414398
1772536728542925800,4.56892578125,0.06066681072115898,0.004246410448104143,0.009929330088198185
1772536728552974600,4.578974609375,0.03410923480987549,0.07223930954933167,-0.06402665376663208
1772536728563024000,4.58902392578125,0.020474914461374283,0.14997272193431854,-0.1393517702817917
1772536728573072600,4.59907275390625,0.02731737494468689,0.21344783902168274,-0.20676302909851074
1772536728583121700,4.60912158203125,0.04117300361394882,0.2664481997489929,-0.2524367868900299
1772536728593171000,4.6191708984375,0.06172088906168938,0.2961307168006897,-0.2807389795780182
1772536728603218700,4.62921875,0.08079258352518082,0.3011704981327057,-0.30089086294174194
1772536728613267700,4.639267822265625,0.09296829253435135,0.28918465971946716,-0.3076331913471222
1772536728623316700,4.649316650390625,0.08931975811719894,0.25840386748313904,-0.30803558230400085
1772536728633365800,4.65936572265625,0.07252666354179382,0.20076213777065277,-0.3098966181278229
1772536728643414800,4.669414794921875,0.04860348999500275,0.12693637609481812,-0.3038850426673889
1772536728653462800,4.679462890625,0.027226561680436134,0.05199156329035759,-0.3072819113731384
1772536728663511800,4.68951171875,0.011356784030795097,-0.030959246680140495,-0.30017420649528503
1772536728673560800,4.699560791015625,-0.004869856406003237,-0.096002958714962,-0.2833819091320038
1772536728683609600,4.709609619140625,-0.016936905682086945,-0.13523611426353455,-0.2584778964519501
1772536728693659000,4.719658935546875,-0.02413170225918293,-0.16126371920108795,-0.23872070014476776
1772536728703706600,4.72970654296875,-0.02936561219394207,-0.15080948173999786,-0.22467465698719025
1772536728713756000,4.739755859375,-0.03286047652363777,-0.09616941213607788,-0.206630140542984
1772536728723804700,4.7498046875,-0.0333438403904438,-0.025467010214924812,-0.18388035893440247
1772536728733853700,4.759853759765625,-0.03226872533559799,0.05324298143386841,-0.15330326557159424
1772536728743902700,4.76990283203125,-0.03617238625884056,0.12309397011995316,-0.11714020371437073
1772536728753950700,4.77995068359375,-0.04776539281010628,0.1621689349412918,-0.08207516372203827
1772536728763999700,4.789999755859375,-0.06976283341646194,0.15270832180976868,-0.05811603367328644
1772536728774048800,4.800048828125,-0.10978908091783524,0.10526170581579208,-0.03945686295628548
1772536728784097800,4.810097900390625,-0.1469966322183609,0.030083067715168,-0.03217524662613869
1772536728794146800,4.820146728515625,-0.18315544724464417,-0.036307141184806824,-0.019279422238469124
1772536728804195800,4.83019580078125,-0.20502690970897675,-0.07565108686685562,0.004435494542121887
1772536728814243800,4.840243896484375,-0.2115039974451065,-0.08593248575925827,0.050633616745471954
1772536728824292600,4.850292724609375,-0.22402536869049072,-0.10661805421113968,0.09857610613107681
1772536728834342000,4.860341796875,-0.23958170413970947,-0.14408127963542938,0.13879436254501343
1772536728844391000,4.870390869140625,-0.25201359391212463,-0.17062446475028992,0.1504717916250229
1772536728854439700,4.880439697265625,-0.2654212713241577,-0.1819961667060852,0.16940021514892578
1772536728864488000,4.890488037109375,-0.2883910536766052,-0.15876327455043793,0.183355450630188
1772536728874536700,4.90053662109375,-0.3019505441188812,-0.12016555666923523,0.19403818249702454
1772536728884586000,4.9105859375,-0.3202965259552002,-0.04693927988409996,0.1992952674627304
1772536728894634800,4.920634765625,-0.3319116234779358,0.03007933869957924,0.18746869266033173
1772536728904683800,4.930683837890625,-0.3341042101383209,0.05890273302793503,0.16250422596931458
1772536728914731800,4.940731689453125,-0.34906744956970215,0.0994352474808693,0.14576493203639984
1772536728924780800,4.95078076171875,-0.36034220457077026,0.16964921355247498,0.12994521856307983
1772536728934829800,4.960829833984375,-0.3477156162261963,0.24381132423877716,0.1083911880850792
1772536728944878800,4.97087890625,-0.33013078570365906,0.2923794090747833,0.08438518643379211
1772536728954927600,4.980927734375,-0.3339955508708954,0.26497626304626465,0.051530301570892334
1772536728964977000,4.990976806640625,-0.351848840713501,0.1481332778930664,0.00487251952290535
1772536728975024600,5.001024658203125,-0.36849308013916016,0.01270141452550888,-0.01619121991097927
1772536728985074000,5.011073974609375,-0.38955920934677124,-0.07816004753112793,-0.0013470269041135907
1772536728995122700,5.021122802734375,-0.4161050617694855,-0.14679370820522308,0.037282656878232956
1772536729005171700,5.031171630859375,-0.4448277950286865,-0.20525728166103363,0.07032689452171326
1772536729015221000,5.041220947265625,-0.4791088104248047,-0.23405936360359192,0.07993211597204208
1772536729025268700,5.051268798828125,-0.5003494024276733,-0.22771517932415009,0.056885652244091034
1772536729035317800,5.06131787109375,-0.5046610236167908,-0.17563121020793915,0.013590643182396889
1772536729045366800,5.07136669921875,-0.49291542172431946,-0.09683067351579666,-0.03584721311926842
1772536729055415800,5.081415771484375,-0.4655708968639374,0.009574064053595066,-0.07654111087322235
1772536729065464800,5.09146484375,-0.42979609966278076,0.1275576949119568,-0.09643466025590897
1772536729075512800,5.101512939453125,-0.40523964166641235,0.21191784739494324,-0.10443026572465897
1772536729085561900,5.111561767578125,-0.3899155557155609,0.22580863535404205,-0.0846584290266037
1772536729095611000,5.12161083984375,-0.3754662871360779,0.1686886101961136,-0.05492290481925011
1772536729105659600,5.13165966796875,-0.34846609830856323,0.07763727009296417,-0.008352206088602543
1772536729115709000,5.141708984375,-0.32328271865844727,-0.014904913492500782,0.045580800622701645
1772536729125757700,5.1517578125,-0.302272230386734,-0.1143537387251854,0.08232337236404419
1772536729135806000,5.161805908203125,-0.28566423058509827,-0.2172979712486267,0.10452907532453537
1772536729145854700,5.171854736328125,-0.2697683572769165,-0.28368765115737915,0.10946470499038696
1772536729155903700,5.18190380859375,-0.25090011954307556,-0.28829437494277954,0.10567422956228256
1772536729165952800,5.191952880859375,-0.24288535118103027,-0.24392610788345337,0.0959523618221283
1772536729176001800,5.202001708984375,-0.23276028037071228,-0.18875767290592194,0.052565474063158035
1772536729186049800,5.2120498046875,-0.23170699179172516,-0.15400688350200653,-0.021626198664307594
1772536729196098800,5.222098876953125,-0.2342630922794342,-0.13839222490787506,-0.10400735586881638
1772536729206147600,5.232147705078125,-0.24530696868896484,-0.12865491211414337,-0.18204011023044586
1772536729216196900,5.24219677734375,-0.2529606223106384,-0.120500847697258,-0.24129225313663483
1772536729226246000,5.252245849609375,-0.25520193576812744,-0.09900008141994476,-0.27498576045036316
1772536729236294700,5.262294677734375,-0.25775405764579773,-0.04970576986670494,-0.28331345319747925
1772536729246342700,5.2723427734375,-0.2457415908575058,0.011875301599502563,-0.27009645104408264
1772536729256391700,5.2823916015625,-0.21553868055343628,0.07382788509130478,-0.2404421716928482
1772536729266441000,5.29244091796875,-0.18501432240009308,0.14228257536888123,-0.20409400761127472
1772536729276489700,5.30248974609375,-0.15059536695480347,0.14412681758403778,-0.16463501751422882
1772536729286538800,5.312538818359375,-0.12394005060195923,0.09645809233188629,-0.12415789812803268
1772536729296586800,5.322586669921875,-0.10889452695846558,0.023422235623002052,-0.08249220997095108
1772536729306635800,5.3326357421875,-0.10098040848970413,-0.06969811767339706,-0.04379994422197342
1772536729316684800,5.342684814453125,-0.10700821131467819,-0.12936890125274658,-0.010641193017363548
1772536729326733800,5.35273388671875,-0.1283140331506729,-0.17078159749507904,0.00897059217095375
1772536729336781800,5.36278173828125,-0.14960093796253204,-0.200651615858078,0.005800897255539894
1772536729346830800,5.372830810546875,-0.1663983017206192,-0.2062639594078064,-0.010092315264046192
1772536729356879600,5.382879638671875,-0.1805141121149063,-0.20979930460453033,-0.04741838201880455
1772536729366929000,5.392928955078125,-0.1861690729856491,-0.18777282536029816,-0.08189965784549713
1772536729376977700,5.402977783203125,-0.18916699290275574,-0.1230018213391304,-0.12083906680345535
1772536729387026000,5.41302587890625,-0.1844361573457718,-0.05536125972867012,-0.1628565639257431
1772536729397074700,5.42307470703125,-0.17840994894504547,-0.018794193863868713,-0.20029102265834808
1772536729407123700,5.433123779296875,-0.15502233803272247,0.018693260848522186,-0.20077811181545258
1772536729417172700,5.4431728515625,-0.12868741154670715,0.06813431531190872,-0.1802310198545456
1772536729427221800,5.4532216796875,-0.09041831642389297,0.08121549338102341,-0.14786535501480103
1772536729437269500,5.46326953125,-0.047862064093351364,0.08263522386550903,-0.11132998764514923
1772536729447318300,5.473318359375,-0.008153267204761505,0.07067044079303741,-0.0719921663403511
1772536729457367300,5.4833671875,0.030120352283120155,0.07635655999183655,-0.02756531536579132
1772536729467416300,5.493416259765625,0.06036613881587982,0.0852307379245758,0.0030157635919749737
1772536729477465300,5.50346533203125,0.08204054087400436,0.07274770736694336,0.025258218869566917
1772536729487513300,5.513513427734375,0.10432267934083939,0.0580902025103569,0.04607455059885979
1772536729497562400,5.523562255859375,0.1240077018737793,0.033247701823711395,0.06335580348968506
1772536729507611400,5.533611328125,0.15692543983459473,0.025832396000623703,0.07383427768945694
1772536729517660400,5.543660400390625,0.197554349899292,0.052075985819101334,0.09900887310504913
1772536729527709200,5.553709228515625,0.23867835104465485,0.0725327879190445,0.12886877357959747
1772536729537757400,5.56375732421875,0.2842058837413788,0.059962667524814606,0.16004905104637146
1772536729547806200,5.57380615234375,0.33411380648612976,0.01876969262957573,0.19537295401096344
1772536729557855500,5.58385546875,0.3708084225654602,-0.026385001838207245,0.2321019470691681
1772536729567904300,5.593904296875,0.3892524242401123,-0.06950584053993225,0.2625858187675476
1772536729577953300,5.603953369140625,0.3896747827529907,-0.08834797143936157,0.2903599143028259
1772536729588002600,5.61400244140625,0.37777766585350037,-0.07822582870721817,0.3073756694793701
1772536729598050300,5.62405029296875,0.36560967564582825,-0.04848018288612366,0.31987759470939636
1772536729608099600,5.634099609375,0.35781192779541016,-0.012990899384021759,0.30992668867111206
1772536729618148400,5.6441484375,0.35417619347572327,0.022834209725260735,0.28413131833076477
1772536729628197400,5.654197265625,0.3584337830543518,0.041487786918878555,0.25262826681137085
1772536729638246400,5.664246337890625,0.3682568669319153,0.061890266835689545,0.2329307198524475
1772536729648294400,5.67429443359375,0.38272953033447266,0.08342219144105911,0.22652767598628998
1772536729658343400,5.684343505859375,0.3907933235168457,0.0695846676826477,0.21213755011558533
1772536729668392400,5.694392333984375,0.3862118721008301,0.0007006776868365705,0.18924689292907715
1772536729678441200,5.704441162109375,0.36201146245002747,-0.0881200060248375,0.158084437251091
1772536729688490500,5.714490478515625,0.325092613697052,-0.1447334885597229,0.12329477071762085
1772536729698538200,5.724538330078125,0.29347848892211914,-0.1662057489156723,0.09832204133272171
1772536729708587500,5.73458740234375,0.2718874514102936,-0.15797178447246552,0.08137661218643188
1772536729718636300,5.74463623046875,0.24545156955718994,-0.17885097861289978,0.08580997586250305
1772536729728685300,5.754685302734375,0.2500567138195038,-0.1608211100101471,0.12637285888195038
1772536729738734300,5.764734375,0.257891982793808,-0.06011100858449936,0.17843765020370483
1772536729748783400,5.774783447265625,0.27933311462402344,0.08460862934589386,0.2015027552843094
1772536729758831400,5.784831298828125,0.3195372521877289,0.22974717617034912,0.16781829297542572
1772536729768880400,5.79488037109375,0.36858123540878296,0.3101823627948761,0.07747960835695267
1772536729778929200,5.80492919921875,0.4024531841278076,0.3118140697479248,-0.03532816469669342
1772536729788978400,5.814978515625,0.41255053877830505,0.22906407713890076,-0.12951484322547913
1772536729799027500,5.82502734375,0.4003702998161316,0.10242863744497299,-0.17678596079349518
1772536729809075500,5.835075439453125,0.3697703182697296,-0.004311391618102789,-0.17260825634002686
1772536729819124500,5.84512451171875,0.33221736550331116,-0.06542801111936569,-0.12122709304094315
1772536729829173200,5.85517333984375,0.30883294343948364,-0.06881528347730637,-0.0471227690577507
1772536729839222500,5.865222412109375,0.31788527965545654,-0.0318966805934906,0.00959723349660635
1772536729849271300,5.875271240234375,0.34972071647644043,0.03912290185689926,0.044020187109708786
1772536729859319600,5.885319580078125,0.38854241371154785,0.11521580815315247,0.0459778793156147
1772536729869368300,5.895368408203125,0.4260067045688629,0.1776227205991745,0.02298787422478199
1772536729879417300,5.905417236328125,0.4628209173679352,0.22527067363262177,-0.009334113448858261
1772536729889466400,5.91546630859375,0.48705461621284485,0.24662628769874573,-0.032046351581811905
1772536729899515400,5.925515380859375,0.48196423053741455,0.2338513731956482,-0.04196156561374664
1772536729909564200,5.935564208984375,0.4540471136569977,0.16506192088127136,-0.036073315888643265
1772536729919612400,5.9456123046875,0.42249906063079834,0.05485792085528374,-0.030130472034215927
1772536729929661200,5.9556611328125,0.38611069321632385,-0.05210607871413231,-0.017708422616124153
1772536729939710500,5.96571044921875,0.35596635937690735,-0.12186172604560852,-0.002239984693005681
1772536729949759200,5.97575927734375,0.33396491408348083,-0.14941105246543884,0.003367567202076316
1772536729959808300,5.985808349609375,0.3201196789741516,-0.14797773957252502,-0.007988151162862778
1772536729969857500,5.995857421875,0.31219756603240967,-0.13427604734897614,-0.04014528915286064
1772536729979906300,6.00590625,0.30398866534233093,-0.10401055216789246,-0.08506882190704346
1772536729989954300,6.015954345703125,0.29721757769584656,-0.051664259284734726,-0.1300583928823471
1772536730000003300,6.02600341796875,0.28548288345336914,0.015599199570715427,-0.16548296809196472
1772536730010052400,6.03605224609375,0.2663469910621643,0.09895161539316177,-0.19486455619335175
1772536730020101400,6.046101318359375,0.2528431713581085,0.17705999314785004,-0.20384500920772552
1772536730030150400,6.056150390625,0.24395300447940826,0.24223074316978455,-0.20121194422245026
1772536730040198400,6.066198486328125,0.24439775943756104,0.27819859981536865,-0.17773669958114624
1772536730050247400,6.076247314453125,0.24865961074829102,0.28449830412864685,-0.16025304794311523
1772536730060296200,6.086296142578125,0.2611250877380371,0.2786121964454651,-0.15659120678901672
1772536730070345500,6.096345458984375,0.2722536325454712,0.26391419768333435,-0.15632303059101105
1772536730080394200,6.106394287109375,0.26807326078414917,0.2380533069372177,-0.17093420028686523
1772536730090442500,6.1164423828125,0.2587902843952179,0.19281978905200958,-0.18338021636009216
1772536730100491300,6.1264912109375,0.24664892256259918,0.1531836986541748,-0.1925113946199417
1772536730110540300,6.136540283203125,0.22934077680110931,0.13003124296665192,-0.19406801462173462
1772536730120589300,6.14658935546875,0.21852914988994598,0.10232371091842651,-0.189911350607872
1772536730130638300,6.156638427734375,0.21285954117774963,0.0860065221786499,-0.1713310033082962
1772536730140686300,6.166686279296875,0.2083316296339035,0.092985600233078,-0.14798812568187714
1772536730150735400,6.1767353515625,0.20984004437923431,0.13210077583789825,-0.1285896599292755
1772536730160784100,6.1867841796875,0.2152678370475769,0.17912234365940094,-0.10711633414030075
1772536730170833400,6.19683349609375,0.21972890198230743,0.2148558497428894,-0.09232966601848602
1772536730180882400,6.20688232421875,0.21874858438968658,0.22093424201011658,-0.08273216336965561
1772536730190930400,6.216930419921875,0.20875667035579681,0.1982148140668869,-0.07474880665540695
1772536730200979200,6.226979248046875,0.18508942425251007,0.1498401015996933,-0.07739119231700897
1772536730211028200,6.2370283203125,0.14574627578258514,0.09493077546358109,-0.08158354461193085
1772536730221077500,6.247077392578125,0.09933670610189438,0.04152320697903633,-0.08414310961961746
1772536730231126300,6.257126220703125,0.052012067288160324,-0.0017992316279560328,-0.07925141602754593
1772536730241175300,6.26717529296875,0.016038088127970695,-0.03301813825964928,-0.06978201121091843
1772536730251223300,6.277223388671875,-0.007670170161873102,-0.02648433856666088,-0.0393599234521389
1772536730261272300,6.287272216796875,-0.018910041078925133,-0.012952550314366817,0.00021491710504051298
1772536730271321300,6.2973212890625,-0.018823489546775818,0.004875182639807463,0.02905775047838688
1772536730281370400,6.307370361328125,-0.013073191046714783,0.03295901417732239,0.049008555710315704
1772536730291419400,6.31741943359375,-0.004815794061869383,0.045526470988988876,0.057190850377082825
1772536730301467400,6.32746728515625,-0.014393053948879242,0.05166878551244736,0.06258188933134079
1772536730311516200,6.33751611328125,-0.03578649461269379,0.020083695650100708,0.05341049283742905
1772536730321565400,6.3475654296875,-0.06897320598363876,-0.04147553816437721,0.028200479224324226
1772536730331614200,6.3576142578125,-0.09881073236465454,-0.09277068078517914,0.007229683455079794
1772536730341663500,6.36766357421875,-0.13016866147518158,-0.11484216153621674,0.010307764634490013
1772536730351711200,6.377711181640625,-0.15512754023075104,-0.09246175736188889,0.025785524398088455
1772536730361760300,6.38776025390625,-0.1662728637456894,-0.027786623686552048,0.05300622805953026
1772536730371809300,6.397809326171875,-0.15398530662059784,0.05928010120987892,0.08654315024614334
1772536730381858300,6.4078583984375,-0.13026319444179535,0.16594555974006653,0.10934247076511383
1772536730391907300,6.4179072265625,-0.09699392318725586,0.21548275649547577,0.08968407660722733
1772536730401955300,6.427955322265625,-0.08861854672431946,0.14613324403762817,0.010100836865603924
1772536730412004400,6.43800439453125,-0.09547378867864609,0.0029119004029780626,-0.10460630059242249
1772536730422053400,6.448053466796875,-0.10992037504911423,-0.09409187734127045,-0.1955050528049469
1772536730432102400,6.458102294921875,-0.12354563921689987,-0.09801151603460312,-0.2280733734369278
1772536730442151400,6.4681513671875,-0.13752910494804382,-0.025257952511310577,-0.21283850073814392
1772536730452199400,6.478199462890625,-0.13671790063381195,0.08691705763339996,-0.17501096427440643
1772536730462248400,6.48824853515625,-0.11698467284440994,0.1892884373664856,-0.13376259803771973
1772536730472297500,6.49829736328125,-0.0857311487197876,0.27009087800979614,-0.09541759639978409
1772536730482346200,6.50834619140625,-0.04788336902856827,0.335217148065567,-0.06551775336265564
1772536730492395500,6.5183955078125,-0.01776168681681156,0.3701508939266205,-0.033967819064855576
1772536730502444500,6.528444580078125,0.006965763866901398,0.34059831500053406,-0.018157698214054108
1772536730512492500,6.538492431640625,0.028723256662487984,0.22076646983623505,-0.0038336203433573246
1772536730522541300,6.548541259765625,0.041974615305662155,0.08221391588449478,0.013419934548437595
1772536730532590300,6.55859033203125,0.046059370040893555,-0.05795571208000183,0.04057618975639343
1772536730542639600,6.5686396484375,0.05089540407061577,-0.1582612693309784,0.10077933967113495
1772536730552688400,6.5786884765625,0.06009902432560921,-0.20088329911231995,0.18632273375988007
1772536730562736400,6.588736328125,0.07253571599721909,-0.17876549065113068,0.278170108795166
1772536730572785400,6.598785400390625,0.08778710663318634,-0.09862750768661499,0.3522837460041046
1772536730582834400,6.60883447265625,0.10406062006950378,0.013123791664838791,0.38813868165016174
1772536730592883500,6.618883544921875,0.11989711225032806,0.13121607899665833,0.36799612641334534
1772536730602932500,6.628932373046875,0.1225871667265892,0.21473067998886108,0.29846978187561035
1772536730612980500,6.63898046875,0.10684868693351746,0.254192590713501,0.1983642280101776
1772536730623029500,6.649029541015625,0.071149542927742,0.2397550642490387,0.08519665151834488
1772536730633078300,6.659078369140625,0.02642468363046646,0.1869587004184723,-0.01715448498725891
1772536730643127600,6.66912744140625,-0.023420104756951332,0.10441349446773529,-0.09726370126008987
1772536730653176300,6.67917626953125,-0.06565278023481369,0.03797055035829544,-0.14333772659301758
1772536730663224600,6.689224609375,-0.08944173157215118,0.0096259955316782,-0.15790094435214996
1772536730673273300,6.6992734375,-0.08651864528656006,0.029563218355178833,-0.1531703770160675
1772536730683322400,6.709322265625,-0.058883823454380035,0.10383691638708115,-0.13553039729595184
1772536730693371400,6.719371337890625,-0.020301010459661484,0.1993139088153839,-0.10865937173366547
1772536730703420400,6.72942041015625,0.02947586588561535,0.285388320684433,-0.07682793587446213
1772536730713468400,6.739468505859375,0.08484777808189392,0.3261200487613678,-0.044803425669670105
1772536730723517400,6.749517333984375,0.12900511920452118,0.3346182107925415,-0.01617870293557644
1772536730733566200,6.759566162109375,0.15990737080574036,0.32641273736953735,0.009433182887732983
1772536730743615500,6.769615478515625,0.16653811931610107,0.3037053048610687,0.009308014065027237
1772536730753664500,6.77966455078125,0.16287094354629517,0.2697710394859314,-0.018996594473719597
1772536730763712500,6.78971240234375,0.15789856016635895,0.23820483684539795,-0.05206240341067314
1772536730773761500,6.799761474609375,0.14713671803474426,0.21020570397377014,-0.07049547135829926
1772536730783810300,6.809810302734375,0.1438319981098175,0.18425080180168152,-0.08136729151010513
1772536730793859600,6.819859619140625,0.14150066673755646,0.17684294283390045,-0.08442353457212448
1772536730803908400,6.829908447265625,0.1478232890367508,0.170766681432724,-0.0788990780711174
1772536730813957400,6.839957275390625,0.15621091425418854,0.17619553208351135,-0.06520909816026688
1772536730824005400,6.85000537109375,0.16402143239974976,0.22254972159862518,-0.05613011494278908
1772536730834054400,6.860054443359375,0.19653542339801788,0.21299375593662262,-0.0361018106341362
1772536730844103400,6.870103515625,0.2271420657634735,0.20193445682525635,-0.033850640058517456
1772536730854152400,6.88015234375,0.24608780443668365,0.1876295506954193,-0.033072199672460556
1772536730864201200,6.890201171875,0.27971845865249634,0.17708583176136017,-0.02034868113696575
1772536730874249500,6.90024951171875,0.2946265637874603,0.1710718870162964,-0.008607069961726665
1772536730884298200,6.91029833984375,0.30493512749671936,0.14585520327091217,-0.009047024883329868
1772536730894347500,6.920347412109375,0.31427857279777527,0.1266775131225586,-0.007236873731017113
1772536730904396300,6.930396240234375,0.3204997181892395,0.0892433300614357,-0.0060240705497562885
1772536730914445300,6.9404453125,0.3447965383529663,0.06933433562517166,0.00866219773888588
1772536730924493300,6.950493408203125,0.37248915433883667,0.07182145863771439,0.03374571353197098
1772536730934542300,6.960542236328125,0.40299537777900696,0.08292044699192047,0.05661667510867119
1772536730944591400,6.97059130859375,0.44276517629623413,0.10451708734035492,0.07780584692955017
1772536730954640400,6.980640380859375,0.4725651443004608,0.12077461928129196,0.10528993606567383
1772536730964689400,6.990689453125,0.4878524839878082,0.08435828983783722,0.11925448477268219
1772536730974737400,7.0007373046875,0.5347989797592163,0.08570984750986099,0.138525128364563
1772536730984786400,7.010786376953125,0.5484876036643982,0.10676905512809753,0.1742199957370758
1772536730994835500,7.02083544921875,0.5588006973266602,0.09302661567926407,0.20127026736736298
1772536731004884500,7.030884521484375,0.5696229934692383,0.059006329625844955,0.2155839502811432
1772536731014933200,7.040933349609375,0.5801030397415161,0.026690199971199036,0.2158057987689972
1772536731024981500,7.0509814453125,0.5881662964820862,0.01751774176955223,0.21507954597473145
1772536731035030300,7.0610302734375,0.6093568205833435,0.029446838423609734,0.21584227681159973
1772536731045079600,7.07107958984375,0.6297289133071899,0.05829659476876259,0.21556824445724487
1772536731055128300,7.08112841796875,0.6536276340484619,0.09979956597089767,0.21512961387634277
1772536731065177300,7.09117724609375,0.6695783734321594,0.1276884526014328,0.21769104897975922
1772536731075225300,7.101225341796875,0.6826243996620178,0.14921025931835175,0.228391632437706
1772536731085274400,7.1112744140625,0.6890018582344055,0.16666248440742493,0.23471583425998688
1772536731095323400,7.121323486328125,0.6967564225196838,0.20966507494449615,0.25155287981033325
1772536731105372400,7.131372314453125,0.7201022505760193,0.2605285346508026,0.26415175199508667
1772536731115421200,7.141421142578125,0.740896999835968,0.2142249494791031,0.24465981125831604
1772536731125469400,7.151469482421875,0.7409089803695679,0.0438540056347847,0.18854275345802307
1772536731135518200,7.161518310546875,0.7002792954444885,-0.1580362319946289,0.12547217309474945
1772536731145567500,7.1715673828125,0.6535000205039978,-0.27273857593536377,0.07372428476810455
1772536731155616300,7.1816162109375,0.6050496697425842,-0.3328288197517395,0.04302150383591652
1772536731165665300,7.191665283203125,0.5398659110069275,-0.3996448814868927,0.018818961456418037
1772536731175714600,7.201714599609375,0.5161400437355042,-0.35525795817375183,0.032878853380680084
1772536731185762300,7.21176220703125,0.48814278841018677,-0.22722382843494415,0.08124079555273056
1772536731195811600,7.2218115234375,0.4845448434352875,-0.035885028541088104,0.14239682257175446
1772536731205860400,7.2318603515625,0.5125144124031067,0.18247953057289124,0.17666958272457123
1772536731215909400,7.241909423828125,0.5327541828155518,0.34693610668182373,0.16048528254032135
1772536731225958400,7.25195849609375,0.5685031414031982,0.4390524625778198,0.10475464165210724
1772536731236006400,7.26200634765625,0.6036097407341003,0.4604714810848236,0.027462782338261604
1772536731246055400,7.272055419921875,0.6178991794586182,0.4134834408760071,-0.03359098359942436
1772536731256104400,7.2821044921875,0.617766797542572,0.31954285502433777,-0.06066334620118141
1772536731266153200,7.2921533203125,0.6204906702041626,0.23792681097984314,-0.03355689346790314
1772536731276202500,7.302202392578125,0.6359103918075562,0.1996966004371643,0.029795711860060692
1772536731286250200,7.312250244140625,0.6469518542289734,0.1739656776189804,0.11235556751489639
1772536731296299500,7.322299560546875,0.6602112054824829,0.1746109575033188,0.18336236476898193
1772536731306348300,7.332348388671875,0.6732162237167358,0.2074916660785675,0.2262275367975235
1772536731316397300,7.342397216796875,0.6822326183319092,0.24510642886161804,0.2126811146736145
1772536731326446300,7.3524462890625,0.6994853615760803,0.27948862314224243,0.16655009984970093
1772536731336494300,7.362494384765625,0.7121362090110779,0.2865894138813019,0.09881552308797836
1772536731346543400,7.37254345703125,0.6997849941253662,0.26887592673301697,0.025235848501324654
1772536731356592400,7.38259228515625,0.6852784752845764,0.22736631333827972,-0.058466240763664246
1772536731366641400,7.392641357421875,0.6713011264801025,0.20358029007911682,-0.13359880447387695
1772536731376690400,7.4026904296875,0.6579272747039795,0.21247364580631256,-0.1821676790714264
1772536731386738200,7.41273828125,0.6502406001091003,0.22283148765563965,-0.19779084622859955
1772536731396787500,7.422787353515625,0.6593499183654785,0.23634596168994904,-0.19484858214855194
1772536731406836500,7.43283642578125,0.6615681052207947,0.23036102950572968,-0.18701834976673126
1772536731416885200,7.44288525390625,0.6730457544326782,0.18932226300239563,-0.1894516795873642
1772536731426934500,7.4529345703125,0.6848356127738953,0.14473800361156464,-0.19008632004261017
1772536731436982300,7.462982177734375,0.6847823262214661,0.116343654692173,-0.21240893006324768
1772536731447031600,7.473031494140625,0.6747957468032837,0.08848778903484344,-0.24953153729438782
1772536731457080300,7.483080322265625,0.6517346501350403,0.08547814935445786,-0.30288901925086975
1772536731467129300,7.49312939453125,0.6230303049087524,0.1213405430316925,-0.3559810221195221
1772536731477178600,7.5031787109375,0.6025636196136475,0.19498173892498016,-0.40010398626327515
1772536731487226400,7.513226318359375,0.5898217558860779,0.2906677722930908,-0.4331687390804291
1772536731497275600,7.523275634765625,0.5959464907646179,0.3785496950149536,-0.45118820667266846
1772536731507324400,7.533324462890625,0.6157883405685425,0.4453721344470978,-0.4433247148990631
1772536731517373400,7.54337353515625,0.6437060236930847,0.5139946341514587,-0.41071268916130066
1772536731527422500,7.55342236328125,0.6785462498664856,0.5668309330940247,-0.36049214005470276
1772536731537470500,7.563470458984375,0.7214575409889221,0.5583218932151794,-0.30858924984931946
1772536731547519500,7.57351953125,0.761894166469574,0.504560112953186,-0.2576421797275543
1772536731557568500,7.583568603515625,0.7881848812103271,0.4322563409805298,-0.21526624262332916
1772536731567617500,7.593617431640625,0.7976241707801819,0.34756648540496826,-0.17889705300331116
1772536731577666600,7.60366650390625,0.792311429977417,0.2798857092857361,-0.1540127396583557
1772536731587715300,7.61371533203125,0.772797167301178,0.21868041157722473,-0.134456604719162
1772536731597763600,7.623763671875,0.751068651676178,0.16812215745449066,-0.1271078884601593
1772536731607812400,7.633812255859375,0.7283828258514404,0.13261689245700836,-0.11309033632278442
1772536731617861600,7.643861572265625,0.708692729473114,0.14824458956718445,-0.10560765117406845
1772536731627910400,7.653910400390625,0.684705913066864,0.17431321740150452,-0.10382173955440521
1772536731637959400,7.66395947265625,0.6634448170661926,0.20538431406021118,-0.1034851148724556
1772536731648007400,7.67400732421875,0.6402260661125183,0.24900129437446594,-0.10318417847156525
1772536731658056400,7.684056396484375,0.6157289743423462,0.279475599527359,-0.09084202349185944
1772536731668105500,7.69410546875,0.5942156910896301,0.30161869525909424,-0.08309195935726166
1772536731678154500,7.704154541015625,0.5682426691055298,0.30544325709342957,-0.087411068379879
1772536731688203500,7.71420361328125,0.5384219288825989,0.2848341166973114,-0.07631713896989822
1772536731698251500,7.72425146484375,0.5049926042556763,0.26619625091552734,-0.05560627207159996
1772536731708300500,7.734300537109375,0.4841368496417999,0.26654860377311707,-0.026463298127055168
1772536731718349600,7.744349609375,0.4605678617954254,0.25472310185432434,0.0002383529208600521
1772536731728398600,7.754398681640625,0.4471774995326996,0.23860032856464386,0.020850952714681625
1772536731738447400,7.764447265625,0.44321390986442566,0.19763131439685822,0.02377883344888687
1772536731748495600,7.77449560546875,0.4364529550075531,0.1432999074459076,0.024174844846129417
1772536731758544400,7.78454443359375,0.4352007210254669,0.11084023118019104,0.0335230715572834
1772536731768593700,7.79459375,0.42720910906791687,0.10590166598558426,0.05248397961258888
1772536731778642400,7.804642333984375,0.408221572637558,0.12109233438968658,0.07636028528213501
1772536731788691500,7.81469140625,0.3909887969493866,0.14841316640377045,0.1068263128399849
1772536731798739500,7.824739501953125,0.378407746553421,0.18822823464870453,0.12094799429178238
1772536731808788500,7.83478857421875,0.3643886148929596,0.24664413928985596,0.13092686235904694
1772536731818837500,7.84483740234375,0.3498144745826721,0.303843230009079,0.12669242918491364
1772536731828886500,7.854886474609375,0.3456711173057556,0.32196044921875,0.10024537891149521
1772536731838935300,7.864935302734375,0.3500613272190094,0.304323673248291,0.06514198333024979
1772536731848983600,7.874983642578125,0.3549959063529968,0.2665073275566101,0.042571160942316055
1772536731859032300,7.8850322265625,0.3606085181236267,0.21979920566082,0.0436185821890831
1772536731869081600,7.89508154296875,0.3741435110569,0.20231075584888458,0.07594483345746994
1772536731879130400,7.90513037109375,0.37427452206611633,0.22153133153915405,0.11465201526880264
1772536731889179400,7.915179443359375,0.38930168747901917,0.19033053517341614,0.12234482169151306
1772536731899227400,7.925227294921875,0.3899983763694763,0.06741499155759811,0.08054810762405396
1772536731909276400,7.9352763671875,0.3760702908039093,-0.031432490795850754,0.019420037046074867
1772536731919325700,7.94532568359375,0.37034955620765686,-0.07906579226255417,-0.03121917136013508
1772536731929374500,7.95537451171875,0.3638956546783447,-0.06829223781824112,-0.05728379637002945
1772536731939423500,7.965423583984375,0.35939091444015503,-0.017944112420082092,-0.06505116820335388
1772536731949471500,7.975471435546875,0.3632029592990875,0.06460775434970856,-0.041844118386507034
1772536731959520500,7.9855205078125,0.4055706560611725,0.21098360419273376,0.0054906392470002174
1772536731969569500,7.995569580078125,0.4630078673362732,0.3517409861087799,0.04707270488142967
1772536731979618600,8.00561865234375,0.5133626461029053,0.432424932718277,0.08202110230922699
1772536731989667300,8.015667236328126,0.550449013710022,0.46019476652145386,0.1191900372505188
1772536731999715600,8.025715576171875,0.5782878398895264,0.4374425709247589,0.1529029905796051
1772536732009764400,8.035764404296875,0.5924865007400513,0.370225191116333,0.18660476803779602
1772536732019813600,8.045813720703125,0.5965328812599182,0.27145707607269287,0.22746458649635315
1772536732029862400,8.0558623046875,0.5996930003166199,0.1721070557832718,0.2688343822956085
1772536732039911400,8.065911376953125,0.5912209749221802,0.07329098880290985,0.3067580759525299
1772536732049959400,8.07595947265625,0.5690234899520874,-0.005352421198040247,0.337908536195755
1772536732060008400,8.086008544921874,0.5439053773880005,-0.06598514318466187,0.35290372371673584
1772536732070057500,8.096057373046875,0.5274494290351868,-0.08394070714712143,0.3515940010547638
1772536732080106500,8.1061064453125,0.5130012631416321,-0.05488269031047821,0.3392840623855591
1772536732090155300,8.1161552734375,0.4952475428581238,0.0054581486620008945,0.30746912956237793
1772536732100203500,8.12620361328125,0.4801700711250305,0.07542285323143005,0.25779053568840027
1772536732110252300,8.136252197265625,0.4518643915653229,0.12958568334579468,0.18972066044807434
1772536732120301600,8.146301513671874,0.41687366366386414,0.17403331398963928,0.108658567070961
1772536732130350600,8.1563505859375,0.38759806752204895,0.23766449093818665,0.032047681510448456
1772536732140399400,8.1663994140625,0.3775275945663452,0.3328072428703308,-0.045046303421258926
1772536732150447400,8.176447265625,0.38930967450141907,0.4155769646167755,-0.1047101691365242
1772536732160496400,8.186496337890626,0.4089294373989105,0.4742322862148285,-0.15180496871471405
1772536732170545700,8.196545654296875,0.4407190680503845,0.5012069344520569,-0.17744295299053192
1772536732180594400,8.206594482421876,0.4747540056705475,0.5181843042373657,-0.18061451613903046
1772536732190643500,8.2166435546875,0.522565484046936,0.5372352004051208,-0.14627225697040558
1772536732200691500,8.22669140625,0.5636606812477112,0.5647310018539429,-0.09254351258277893
1772536732210740500,8.236740478515625,0.6064414381980896,0.5970743298530579,-0.035346273332834244
1772536732220789500,8.24678955078125,0.6471598744392395,0.6136945486068726,0.020424049347639084
1772536732230838500,8.256838623046875,0.6961883902549744,0.6000091433525085,0.04936382174491882
1772536732240887300,8.26688720703125,0.7382554411888123,0.5469011664390564,0.05612665042281151
1772536732250935600,8.276935546875,0.7840332984924316,0.49913737177848816,0.06779928505420685
1772536732260984300,8.286984375,0.7720447778701782,0.39584586024284363,0.03832794725894928
1772536732271033600,8.29703369140625,0.7624731063842773,0.25008946657180786,-0.028009263798594475
1772536732281082400,8.307082275390625,0.767045259475708,0.12584102153778076,-0.06851620972156525
1772536732291131400,8.31713134765625,0.7480145692825317,0.04018976539373398,-0.0816115066409111
1772536732301179400,8.327179443359375,0.7300427556037903,-0.013569338247179985,-0.07390245050191879
1772536732311228400,8.337228515625,0.7276341915130615,-0.030673224478960037,-0.06041167676448822
1772536732321277400,8.34727734375,0.7257819771766663,-0.02551787719130516,-0.042080607265233994
1772536732331326500,8.357326416015624,0.7283098101615906,-0.0060445768758654594,-0.02983938902616501
1772536732341375500,8.36737548828125,0.7353863716125488,0.023813454434275627,-0.025770876556634903
1772536732351423500,8.377423583984376,0.7399910092353821,0.05428454279899597,-0.031794946640729904
1772536732361472300,8.38747216796875,0.742394208908081,0.09010405838489532,-0.05736502259969711
1772536732371521500,8.397521484375,0.7411721348762512,0.1298820972442627,-0.08386800438165665
1772536732381570600,8.407570556640625,0.735591471195221,0.173008531332016,-0.10941038280725479
1772536732391619300,8.417619384765626,0.7291799187660217,0.21947376430034637,-0.12866663932800293
1772536732401667600,8.42766748046875,0.7253417372703552,0.2536008358001709,-0.13322916626930237
1772536732411716400,8.43771630859375,0.7256664037704468,0.26715368032455444,-0.12170299887657166
1772536732421765600,8.447765625,0.7239062786102295,0.2547665238380432,-0.10530272126197815
1772536732431814700,8.457814697265626,0.7221502065658569,0.24569445848464966,-0.08352898061275482
1772536732441863700,8.46786376953125,0.7237329483032227,0.2486305832862854,-0.044076114892959595
1772536732451911700,8.47791162109375,0.7169610261917114,0.26616376638412476,-0.0033182986080646515
1772536732461960700,8.487960693359375,0.7149961590766907,0.286540687084198,0.03485305607318878
1772536732472009700,8.498009765625,0.717590868473053,0.31670790910720825,0.06775294989347458
1772536732482058800,8.508058837890625,0.7248309254646301,0.3399317264556885,0.0878686010837555
1772536732492107500,8.518107421875,0.7277705669403076,0.3442612290382385,0.10355888307094574
1772536732502155800,8.52815576171875,0.7300555109977722,0.33903956413269043,0.10241532325744629
1772536732512204500,8.53820458984375,0.7299319505691528,0.3282753527164459,0.09755611419677734
1772536732522253800,8.54825390625,0.7293623089790344,0.3190232515335083,0.09852790832519531
1772536732532302600,8.558302490234375,0.7253841161727905,0.3123120963573456,0.11097631603479385
1772536732542351600,8.5683515625,0.7259281873703003,0.3116244673728943,0.1383674591779709
1772536732552399600,8.578399658203125,0.7270411252975464,0.32598528265953064,0.17025162279605865
1772536732562448600,8.58844873046875,0.7321940660476685,0.36393266916275024,0.21341480314731598
1772536732572498000,8.598497802734375,0.731401264667511,0.36915379762649536,0.24513359367847443
1772536732582546700,8.608546630859376,0.7247148156166077,0.3413858115673065,0.25774553418159485
1772536732592595700,8.618595703125,0.7237454652786255,0.2993989586830139,0.2739492654800415
1772536732602644700,8.628644775390624,0.7115100622177124,0.27777916193008423,0.29926154017448425
1772536732612692700,8.638692626953125,0.700333833694458,0.2872067391872406,0.32826364040374756
1772536732622741800,8.64874169921875,0.6932362914085388,0.35099849104881287,0.35078996419906616
1772536732632790800,8.658790771484375,0.7035887837409973,0.43002966046333313,0.347174733877182
1772536732642839600,8.668839599609376,0.7154603600502014,0.4531427025794983,0.3066835105419159
1772536732652887800,8.6788876953125,0.7290448546409607,0.42249399423599243,0.23743891716003418
1772536732662936600,8.6889365234375,0.7248802185058594,0.3603435456752777,0.16476045548915863
1772536732672985900,8.69898583984375,0.7019535899162292,0.29037538170814514,0.11308979988098145
1772536732683034600,8.70903466796875,0.660426914691925,0.23522795736789703,0.07464467734098434
1772536732693083600,8.719083740234375,0.6076622605323792,0.21852435171604156,0.053823016583919525
1772536732703131600,8.729131591796875,0.5665891170501709,0.24510961771011353,0.041071269661188126
1772536732713180700,8.7391806640625,0.5441234707832336,0.3119903802871704,0.028250547125935555
1772536732723229700,8.749229736328125,0.5401015877723694,0.40306356549263,0.013613812625408173
1772536732733278700,8.75927880859375,0.5491054654121399,0.4895811378955841,-0.0021736719645559788
1772536732743327700,8.76932763671875,0.5489422082901001,0.5242379307746887,-0.03783739358186722
1772536732753375700,8.779375732421874,0.5338774919509888,0.49017956852912903,-0.08736446499824524
1772536732763424500,8.789424560546875,0.5096110701560974,0.4241808354854584,-0.1333458125591278
1772536732773473800,8.799473876953124,0.46835869550704956,0.32613229751586914,-0.14728932082653046
1772536732783522800,8.809522705078125,0.4269244372844696,0.23151259124279022,-0.1371714323759079
1772536732793571600,8.819571533203124,0.4004161059856415,0.15525829792022705,-0.11210016906261444
1772536732803619600,8.82961962890625,0.38839754462242126,0.12818166613578796,-0.08611571043729782
1772536732813668600,8.839668701171876,0.40259164571762085,0.15530197322368622,-0.04951455444097519
1772536732823718000,8.8497177734375,0.4436013996601105,0.24006639420986176,-0.005536711774766445
1772536732833766700,8.8597666015625,0.5020958781242371,0.348557710647583,0.0277959443628788
1772536732843815700,8.869815673828125,0.5734462141990662,0.4585571885108948,0.04803117364645004
1772536732853863700,8.87986376953125,0.6306357383728027,0.5295075178146362,0.06602242588996887
1772536732863912700,8.88991259765625,0.671113908290863,0.5128853917121887,0.08131296187639236
1772536732873961700,8.899961669921876,0.6821988224983215,0.429066926240921,0.09451425820589066
1772536732884010800,8.9100107421875,0.6695767641067505,0.2975083887577057,0.10598102957010269
1772536732894059800,8.920059814453126,0.6263760328292847,0.14576731622219086,0.12283165007829666
1772536732904107800,8.930107666015624,0.5704208612442017,0.021993981674313545,0.1438184231519699
1772536732914156800,8.94015673828125,0.5209159255027771,-0.06295260041952133,0.16497910022735596
1772536732924205800,8.950205810546874,0.48195040225982666,-0.11103463917970657,0.16748858988285065
1772536732934254600,8.960254638671875,0.45127370953559875,-0.12095491588115692,0.133594810962677
1772536732944303900,8.970303955078125,0.43069973587989807,-0.08135078102350235,0.08248795568943024
1772536732954351600,8.9803515625,0.4235118627548218,-0.004534564446657896,0.011638546362519264
1772536732964401000,8.99040087890625,0.42979905009269714,0.10732965171337128,-0.06926269084215164
1772536732974449700,9.00044970703125,0.42221197485923767,0.23512808978557587,-0.13392584025859833
1772536732984498700,9.010498779296874,0.3988938629627228,0.3382917642593384,-0.20009367167949677
1772536732994548000,9.0205478515625,0.38772109150886536,0.42000633478164673,-0.23890525102615356
1772536733004595700,9.030595703125,0.3416883647441864,0.47581952810287476,-0.22754500806331635
1772536733014644700,9.040644775390625,0.2753969430923462,0.30493593215942383,-0.26349687576293945
1772536733024693800,9.05069384765625,0.26495203375816345,0.12488361448049545,-0.3058944046497345
1772536733034742800,9.06074267578125,0.2465575784444809,0.05970700457692146,-0.3163502514362335
1772536733044791800,9.070791748046876,0.22087591886520386,0.03538275882601738,-0.3182019293308258
1772536733054839600,9.080839599609375,0.22973012924194336,0.036618463695049286,-0.30555540323257446
1772536733064888800,9.090888916015626,0.24084989726543427,0.04198180511593819,-0.28527116775512695
1772536733074937900,9.100937744140625,0.2638614773750305,0.03791622444987297,-0.2608358561992645
1772536733084986600,9.110986572265626,0.29351097345352173,0.0357193797826767,-0.2283114641904831
1772536733095036000,9.121035888671875,0.32131969928741455,0.04130110144615173,-0.17942515015602112
