time,seconds_elapsed,z,y,x
1772537172126310100,0.06731005859375,0.2525467574596405,0.7451421022415161,0.21572989225387573
1772537172136358100,0.077358154296875,0.20907092094421387,0.4958973824977875,0.3389224112033844
1772537172146406100,0.08740625,0.14232385158538818,0.16721029579639435,0.49862951040267944
1772537172156455200,0.097455078125,0.05739165470004082,-0.1528278887271881,0.6455007195472717
1772537172166503200,0.107503173828125,-0.01607324182987213,-0.4217837154865265,0.7536343932151794
1772537172176551200,0.11755126953125,-0.06040235608816147,-0.5990487933158875,0.8302039504051208
1772537172186599200,0.12759912109375,-0.08664780855178833,-0.652285099029541,0.8225897550582886
1772537172196648200,0.137648193359375,-0.10186325013637543,-0.6587296724319458,0.6676118969917297
1772537172206696200,0.1476962890625,-0.10822980105876923,-0.6584460735321045,0.38959968090057373
1772537172216744200,0.157744140625,-0.11710026115179062,-0.5994871258735657,0.07501565665006638
1772537172226793200,0.167793212890625,-0.13049569725990295,-0.4475333094596863,-0.19266532361507416
1772537172236841200,0.17784130859375,-0.13219372928142548,-0.19939406216144562,-0.3215612471103668
1772537172246889200,0.18788916015625,-0.10103633254766464,0.04086221009492874,-0.3218584656715393
1772537172256937200,0.197937255859375,-0.04885915294289589,0.1608935445547104,-0.27140486240386963
1772537172266986200,0.207986328125,-0.023371901363134384,0.13136547803878784,-0.29433467984199524
1772537172277034200,0.2180341796875,0.004987035412341356,0.03313451632857323,-0.38374125957489014
1772537172287082200,0.228082275390625,0.08164745569229126,-0.06349854916334152,-0.50949627161026
1772537172297131300,0.23813134765625,0.18937605619430542,-0.10490244626998901,-0.6327574849128723
1772537172307179300,0.24817919921875,0.3239802122116089,-0.08969180285930634,-0.7367169260978699
1772537172317227000,0.25822705078125,0.4604738652706146,0.04555443674325943,-0.8038261532783508
1772537172327275300,0.268275146484375,0.5710269808769226,0.2240229845046997,-0.770556628704071
1772537172337324000,0.278323974609375,0.6403200626373291,0.3692139983177185,-0.6022288799285889
1772537172347372300,0.288372314453125,0.6363332867622375,0.3591749370098114,-0.35661616921424866
1772537172357420300,0.298420166015625,0.5792351365089417,0.2770654261112213,-0.08945078402757645
1772537172367469300,0.30846923828125,0.5421718955039978,0.2326582819223404,0.11017630249261856
1772537172377517300,0.318517333984375,0.5592473149299622,0.1573941558599472,0.1643308848142624
1772537172387565000,0.32856494140625,0.5740198493003845,-0.07974356412887573,0.08306319266557693
1772537172397613300,0.33861328125,0.5314119458198547,-0.3615638017654419,-0.04135116934776306
1772537172407662000,0.348662109375,0.4452514946460724,-0.5147126317024231,-0.16861164569854736
1772537172417710300,0.35871044921875,0.3242183029651642,-0.462764710187912,-0.25835591554641724
1772537172427758300,0.36875830078125,0.20964111387729645,-0.14594149589538574,-0.2569793164730072
1772537172437807000,0.37880712890625,0.16013294458389282,0.07733207195997238,-0.24916428327560425
1772537172447855400,0.38885546875,0.12186066061258316,0.1415848284959793,-0.24931368231773376
1772537172457903000,0.398903076171875,0.09550362080335617,0.14310842752456665,-0.19521157443523407
1772537172467951400,0.408951416015625,0.06740540266036987,0.09089209139347076,-0.08157235383987427
1772537172478000000,0.419000244140625,0.028187163174152374,0.09390625357627869,0.06910903006792068
1772537172488048400,0.42904833984375,-0.010699782520532608,0.18335624039173126,0.24333861470222473
1772537172498096000,0.43909619140625,-0.059724584221839905,0.3099634647369385,0.41759243607521057
1772537172508145200,0.449145263671875,-0.05076837167143822,0.5189595222473145,0.5605421662330627
1772537172518193200,0.459193115234375,0.003698331769555807,0.6657907962799072,0.694570779800415
1772537172528241200,0.4692412109375,-0.0020788635592907667,0.7559747695922852,0.8376637697219849
1772537172538290200,0.479290283203125,-0.039866987615823746,0.7616233229637146,0.9703575968742371
1772537172548338200,0.489338134765625,-0.034805916249752045,0.7659512162208557,1.060758352279663
1772537172558386200,0.49938623046875,0.04192508012056351,0.7698208093643188,1.1126623153686523
1772537172568434200,0.50943408203125,0.12157916277647018,0.7123753428459167,1.129489779472351
1772537172578483200,0.519483154296875,0.14590021967887878,0.5566707253456116,1.0634335279464722
1772537172588531200,0.52953125,0.11611515283584595,0.3306138813495636,0.8975891470909119
1772537172598579200,0.5395791015625,0.07197912037372589,0.014726747758686543,0.6484626531600952
1772537172608628200,0.549628173828125,0.018397383391857147,-0.2818330228328705,0.3968901038169861
1772537172618676200,0.55967626953125,-0.05735570192337036,-0.45092883706092834,0.20370732247829437
1772537172628724200,0.56972412109375,-0.0996597483754158,-0.49318307638168335,0.06208733841776848
1772537172638772200,0.579772216796875,-0.08798418194055557,-0.48928847908973694,-0.08990378677845001
1772537172648821000,0.589821044921875,0.00024048343766480684,-0.4442687928676605,-0.257854700088501
1772537172658869200,0.599869140625,0.19764544069766998,-0.4161761701107025,-0.4427958130836487
1772537172668917200,0.609917236328125,0.42972978949546814,-0.4473937451839447,-0.6703839302062988
1772537172678966300,0.61996630859375,0.5897274613380432,-0.38151273131370544,-0.8768510818481445
1772537172689014300,0.63001416015625,0.6104660034179688,-0.2520844340324402,-0.9940983653068542
1772537172699062000,0.64006201171875,0.48509079217910767,-0.11451566219329834,-0.9989557266235352
1772537172709110300,0.6501103515625,0.23493874073028564,-0.03700275719165802,-0.9019242525100708
1772537172719159000,0.660158935546875,-0.07696375995874405,-0.07876751571893692,-0.7415404319763184
1772537172729207300,0.670207275390625,-0.3369324803352356,-0.26155784726142883,-0.6126716732978821
1772537172739255300,0.68025537109375,-0.5481432676315308,-0.5488452911376953,-0.5534871816635132
1772537172749304300,0.69030419921875,-0.7534668445587158,-0.8428678512573242,-0.5545303225517273
1772537172759352300,0.700352294921875,-0.9288261532783508,-1.0673680305480957,-0.6196044087409973
1772537172769400000,0.710400146484375,-1.01396906375885,-1.0966854095458984,-0.6548050045967102
1772537172779448300,0.7204482421875,-0.9631873369216919,-0.8140905499458313,-0.5463104844093323
1772537172789497000,0.7304970703125,-0.799174427986145,-0.2976580560207367,-0.32044246792793274
1772537172799545300,0.74054541015625,-0.5455712080001831,0.20287615060806274,-0.1252545863389969
1772537172809593000,0.750593017578125,-0.2810617685317993,0.4529254138469696,-0.06757079064846039
1772537172819642400,0.760642333984375,-0.09336429834365845,0.34764397144317627,-0.15806792676448822
1772537172829690000,0.770690185546875,-0.02479589357972145,0.040403615683317184,-0.3297467529773712
1772537172839738000,0.780738037109375,-0.06563227623701096,-0.2535398602485657,-0.486858606338501
1772537172849786400,0.790786376953125,-0.18716669082641602,-0.45754945278167725,-0.6450136303901672
1772537172859835100,0.800835205078125,-0.33319926261901855,-0.5681813955307007,-0.7977650761604309
1772537172869883400,0.81088330078125,-0.43616798520088196,-0.5972293019294739,-0.8641374707221985
1772537172879931100,0.82093115234375,-0.4427585303783417,-0.4900416135787964,-0.7310124039649963
1772537172889980400,0.83098046875,-0.3404553234577179,-0.3558396100997925,-0.42048996686935425
1772537172900028200,0.841028076171875,-0.247670516371727,-0.2696719467639923,-0.03882329538464546
1772537172910076200,0.851076171875,-0.2111268937587738,-0.2384016513824463,0.3451225161552429
1772537172920125200,0.861125244140625,-0.2113194316625595,-0.31039753556251526,0.7063443660736084
1772537172930173200,0.871173095703125,-0.22882865369319916,-0.4544263482093811,1.0638175010681152
1772537172940221200,0.88122119140625,-0.25420138239860535,-0.5332242250442505,1.339751124382019
1772537172950269200,0.891269287109375,-0.23079407215118408,-0.5264779329299927,1.461836576461792
1772537172960318200,0.901318115234375,-0.12238477170467377,-0.4111374616622925,1.4166946411132812
1772537172970366200,0.9113662109375,0.059712864458560944,-0.14531858265399933,1.266076683998108
1772537172980414200,0.921414306640625,0.263046532869339,0.21913528442382812,1.069063425064087
1772537172990463200,0.931463134765625,0.454128623008728,0.5711726546287537,0.8611584305763245
1772537173000511200,0.94151123046875,0.6011950373649597,0.8446153998374939,0.7147804498672485
1772537173010559000,0.95155908203125,0.6624906063079834,1.0046255588531494,0.6528151035308838
1772537173020607200,0.961607177734375,0.6490328311920166,0.9659641981124878,0.6987109184265137
1772537173030656000,0.971656005859375,0.5881298184394836,0.7455543279647827,0.8586486577987671
1772537173040704300,0.981704345703125,0.4570210874080658,0.4082985520362854,1.082590937614441
1772537173050752300,0.991752197265625,0.28990453481674194,0.05551945045590401,1.3024964332580566
1772537173060801300,1.00180126953125,0.10894379764795303,-0.23627139627933502,1.409110426902771
1772537173070849300,1.011849365234375,-0.030166957527399063,-0.4123971462249756,1.3611663579940796
1772537173080897000,1.02189697265625,-0.0954974964261055,-0.4675522744655609,1.162295937538147
1772537173090945300,1.0319453125,-0.07400951534509659,-0.4187237620353699,0.8293355107307434
1772537173100990000,1.041989990234375,0.010208162479102612,-0.26858457922935486,0.376801073551178
1772537173111038000,1.052037841796875,0.09826718270778656,-0.05140486732125282,-0.1606469303369522
1772537173121086000,1.0620859375,0.14347034692764282,0.12439651787281036,-0.7162805795669556
1772537173131135000,1.072135009765625,0.1619100719690323,0.20227080583572388,-1.189067006111145
1772537173141183000,1.082182861328125,0.20346949994564056,0.19796155393123627,-1.4990990161895752
1772537173151231000,1.09223095703125,0.2792856991291046,0.09895960241556168,-1.6038991212844849
1772537173161279000,1.102279052734375,0.32795578241348267,-0.07374639064073563,-1.5470454692840576
1772537173171328000,1.112327880859375,0.2952848970890045,-0.32390615344047546,-1.427547574043274
1772537173181376000,1.1223759765625,0.19156783819198608,-0.6606807112693787,-1.3294705152511597
1772537173191424000,1.132424072265625,0.00881186779588461,-1.0265047550201416,-1.2540439367294312
1772537173201473000,1.14247314453125,-0.25049638748168945,-1.3272486925125122,-1.22296941280365
1772537173211521000,1.15252099609375,-0.5555766820907593,-1.488537073135376,-1.2967759370803833
1772537173221569000,1.162569091796875,-0.853565514087677,-1.3860032558441162,-1.5238224267959595
1772537173231618000,1.1726181640625,-1.0466220378875732,-0.9487884044647217,-1.7090498208999634
1772537173241666000,1.182666015625,-1.0814985036849976,-0.3465299904346466,-1.6053603887557983
1772537173251714000,1.192714111328125,-0.9267752766609192,0.03574841096997261,-1.1961207389831543
1772537173261761800,1.20276171875,-0.6357935070991516,-0.02678127959370613,-0.6408465504646301
1772537173271811000,1.21281103515625,-0.3570941984653473,-0.49959996342658997,-0.19399531185626984
1772537173281858800,1.22285888671875,-0.21992197632789612,-1.0377616882324219,0.02611602284014225
1772537173291907000,1.232906982421875,-0.22461526095867157,-1.4686555862426758,0.08829417824745178
1772537173301955800,1.242955810546875,-0.2944212555885315,-1.7147457599639893,0.14412148296833038
1772537173312004000,1.253004150390625,-0.3360097110271454,-1.8288843631744385,0.27926307916641235
1772537173322052000,1.263052001953125,-0.303276002407074,-1.7525863647460938,0.4958345293998718
1772537173332099800,1.273099853515625,-0.2068202942609787,-1.3819342851638794,0.7631956338882446
1772537173342149000,1.283149169921875,-0.1329071819782257,-0.8027923107147217,1.0297335386276245
1772537173352196900,1.29319677734375,-0.08492235094308853,-0.27595755457878113,1.217656135559082
1772537173362245000,1.3032451171875,0.020048808306455612,0.07215674966573715,1.2299833297729492
1772537173372294000,1.3132939453125,0.1656973510980606,0.3643947243690491,1.066826343536377
1772537173382342100,1.323342041015625,0.2863673269748688,0.60767662525177,0.8182634115219116
1772537173392390000,1.333389892578125,0.33851492404937744,0.7974761128425598,0.5716230273246765
1772537173402438000,1.34343798828125,0.29942959547042847,0.9215757250785828,0.38038673996925354
1772537173412487000,1.35348681640625,0.17614705860614777,0.9640232920646667,0.2620404064655304
1772537173422535000,1.363534912109375,0.03731594607234001,0.9698095321655273,0.26731666922569275
1772537173432583200,1.373583251953125,-0.06771247088909149,0.9622997045516968,0.39877933263778687
1772537173442632000,1.3836318359375,-0.13537460565567017,0.9233976006507874,0.6409421563148499
1772537173452680000,1.393679931640625,-0.1517205536365509,0.8709756135940552,0.9346281290054321
1772537173462728000,1.40372802734375,-0.11437185108661652,0.8186056613922119,1.2274587154388428
1772537173472776000,1.41377587890625,-0.05181259661912918,0.7345924973487854,1.4668986797332764
1772537173482825000,1.423824951171875,-0.0010223875287920237,0.5837148427963257,1.5706639289855957
1772537173492873000,1.433873046875,0.032949429005384445,0.4289819896221161,1.5170097351074219
1772537173502921200,1.443921142578125,0.03868773952126503,0.36753860116004944,1.3436731100082397
1772537173512970000,1.453969970703125,0.01673050969839096,0.3188791871070862,1.0855611562728882
1772537173523018000,1.46401806640625,-0.03257232531905174,0.26485055685043335,0.7813645601272583
1772537173533066000,1.47406591796875,-0.07765351235866547,0.26371607184410095,0.43069785833358765
1772537173543114000,1.484114013671875,-0.11908164620399475,0.35583585500717163,0.028549086302518845
1772537173553163000,1.4941630859375,-0.15242309868335724,0.5689854025840759,-0.38327282667160034
1772537173563211000,1.5042109375,-0.19023598730564117,0.7857736349105835,-0.7791474461555481
1772537173573258800,1.5142587890625,-0.1776197999715805,0.8664628863334656,-1.077494740486145
1772537173583308000,1.52430810546875,-0.07263106107711792,0.7793202996253967,-1.198470115661621
1772537173593355800,1.534355712890625,0.10338311642408371,0.5426917672157288,-1.0760645866394043
1772537173603404000,1.544404052734375,0.28803765773773193,0.2956356406211853,-0.8038440346717834
1772537173613452000,1.5544521484375,0.4443625509738922,0.15693049132823944,-0.5156897306442261
1772537173623501000,1.5645009765625,0.5626534819602966,0.09710337966680527,-0.3054209053516388
1772537173633549000,1.574549072265625,0.6352131962776184,0.08439770340919495,-0.2048410326242447
1772537173643596800,1.5845966796875,0.6224726438522339,0.08457187563180923,-0.22773782908916473
1772537173653646000,1.59464599609375,0.48750388622283936,0.0777062475681305,-0.38346269726753235
1772537173663693800,1.60469384765625,0.257508248090744,0.09607166796922684,-0.6540409326553345
1772537173673742000,1.6147421875,0.0030658310279250145,0.19154971837997437,-0.9761172533035278
1772537173683790800,1.624790771484375,-0.17482693493366241,0.3202214241027832,-1.2848774194717407
1772537173693839000,1.634839111328125,-0.26840081810951233,0.3941161334514618,-1.503632664680481
1772537173703887000,1.64488720703125,-0.3103914260864258,0.42616063356399536,-1.5244765281677246
1772537173713934800,1.654934814453125,-0.33505627512931824,0.3190533518791199,-1.29948091506958
1772537173723984100,1.664984130859375,-0.33663633465766907,0.06094218045473099,-0.8495454788208008
1772537173734032000,1.675031982421875,-0.3002817928791046,-0.28608715534210205,-0.314823180437088
1772537173744080100,1.685080078125,-0.2526455819606781,-0.6720638871192932,0.09927225857973099
1772537173754129000,1.69512890625,-0.2180204838514328,-0.9757729172706604,0.2812822759151459
1772537173764177200,1.70517724609375,-0.17309188842773438,-1.083534836769104,0.22848723828792572
1772537173774225000,1.715224853515625,-0.1314951777458191,-0.9533448219299316,-0.02244911715388298
1772537173784273000,1.72527294921875,-0.097963847219944,-0.5898827314376831,-0.36687785387039185
1772537173794322000,1.735322021484375,-0.04735526442527771,-0.04578932747244835,-0.6738593578338623
1772537173804370000,1.745369873046875,0.010880078189074993,0.5049231052398682,-0.8308652639389038
1772537173814418200,1.755418212890625,0.07489155232906342,0.9434061646461487,-0.7334662675857544
1772537173824467000,1.765467041015625,0.14235341548919678,1.1603970527648926,-0.37233680486679077
1772537173834515200,1.77551513671875,0.1764053851366043,1.0709601640701294,0.13488484919071198
1772537173844563000,1.78556298828125,0.1619766503572464,0.7768589854240417,0.6389312148094177
1772537173854611000,1.79561083984375,0.07790332287549973,0.352254718542099,1.017350196838379
1772537173864660000,1.805659912109375,-0.07246700674295425,-0.06169452145695686,1.2074306011199951
1772537173874708000,1.8157080078125,-0.24103684723377228,-0.3250609040260315,1.1793465614318848
1772537173884756000,1.825755859375,-0.39177921414375305,-0.373849481344223,0.9955908060073853
1772537173894805000,1.835804931640625,-0.493807852268219,-0.21654082834720612,0.7513115406036377
1772537173904853000,1.84585302734375,-0.5129027366638184,0.07937099039554596,0.5403907895088196
1772537173914901000,1.85590087890625,-0.43562445044517517,0.36634230613708496,0.41011562943458557
1772537173924949000,1.865948974609375,-0.2630191147327423,0.5794894695281982,0.35800236463546753
1772537173934998000,1.875998046875,-0.03804139047861099,0.6723962426185608,0.3406555950641632
1772537173945046000,1.8860458984375,0.1762743592262268,0.6418620347976685,0.3192403018474579
1772537173955094000,1.896093994140625,0.32807961106300354,0.5355494618415833,0.274926096200943
1772537173965143000,1.90614306640625,0.41963374614715576,0.42767250537872314,0.23358505964279175
1772537173975190800,1.916190673828125,0.4470198452472687,0.3766796290874481,0.25806722044944763
1772537173985239000,1.926239013671875,0.40303799510002136,0.4049229919910431,0.3943078815937042
1772537173995287800,1.936287841796875,0.31358057260513306,0.45954442024230957,0.6080564260482788
1772537174005336000,1.946336181640625,0.22881481051445007,0.4746309518814087,0.8564009666442871
1772537174015384000,1.956384033203125,0.1771193891763687,0.47099176049232483,1.0949006080627441
1772537174025432000,1.96643212890625,0.16191965341567993,0.4834026098251343,1.2663331031799316
1772537174035481000,1.976481201171875,0.1586756706237793,0.5166670680046082,1.3116194009780884
1772537174045528800,1.98652880859375,0.1414671093225479,0.5172948241233826,1.2004337310791016
1772537174055577000,1.9965771484375,0.11888723820447922,0.44644540548324585,0.970957338809967
1772537174065625900,2.0066259765625,0.07779412716627121,0.24842339754104614,0.6248795986175537
1772537174075674000,2.016674072265625,0.08332418650388718,0.006420881487429142,0.2374948412179947
1772537174085721900,2.026721923828125,0.13140888512134552,-0.1698167324066162,-0.11932985484600067
1772537174095769900,2.036769775390625,0.20180156826972961,-0.31755852699279785,-0.4589686393737793
1772537174105820700,2.046820556640625,0.3274569511413574,-0.3210510015487671,-0.7787732481956482
1772537174115868700,2.05686865234375,0.45206838846206665,-0.13816159963607788,-1.0410912036895752
1772537174125916400,2.06691650390625,0.4836396276950836,0.060687582939863205,-1.2385107278823853
1772537174135965700,2.076965576171875,0.40319111943244934,0.07553550601005554,-1.3586920499801636
1772537174146013400,2.087013427734375,0.23852361738681793,-0.17087534070014954,-1.408109188079834
1772537174156061700,2.097061767578125,-0.017549166455864906,-0.5352162718772888,-1.4107654094696045
1772537174166109400,2.107109375,-0.3761182427406311,-0.9138831496238708,-1.4303662776947021
1772537174176158700,2.11715869140625,-0.777130126953125,-1.1817041635513306,-1.3975661993026733
1772537174186206500,2.12720654296875,-1.0847113132476807,-1.261538028717041,-1.1842784881591797
1772537174196254500,2.13725439453125,-1.2009031772613525,-1.1119706630706787,-0.7152158617973328
1772537174206303500,2.147303466796875,-1.109636664390564,-0.7773913741111755,-0.01906397193670273
1772537174216351500,2.1573515625,-0.8534142374992371,-0.5613189935684204,0.6855655908584595
1772537174226399700,2.167399658203125,-0.5557646751403809,-0.6146700978279114,1.1578196287155151
1772537174236447500,2.177447509765625,-0.29122573137283325,-0.8342141509056091,1.2904794216156006
1772537174246496800,2.187496826171875,-0.15024222433567047,-1.04933762550354,1.0243761539459229
1772537174256544500,2.19754443359375,-0.12029578536748886,-1.1554838418960571,0.4827679991722107
1772537174266592500,2.207592529296875,-0.12740908563137054,-1.0853065252304077,-0.07825379073619843
1772537174276641500,2.2176416015625,-0.14960706233978271,-0.7655930519104004,-0.5015515089035034
1772537174286689500,2.227689453125,-0.17449750006198883,-0.28226712346076965,-0.7547744512557983
1772537174296737800,2.23773779296875,-0.18843036890029907,0.2376309335231781,-0.7933998703956604
1772537174306786600,2.24778662109375,-0.1686718463897705,0.6384134888648987,-0.5575301051139832
1772537174316834800,2.257834716796875,-0.09097331762313843,0.7607324719429016,-0.11139363795518875
1772537174326882600,2.267882568359375,0.007893876172602177,0.5518091320991516,0.413709819316864
1772537174336930600,2.2779306640625,0.08294974267482758,0.11905954778194427,0.9183322191238403
1772537174346979600,2.2879794921875,0.08917514979839325,-0.34942829608917236,1.3452835083007812
1772537174357027600,2.298027587890625,0.02599857747554779,-0.6785731911659241,1.6266268491744995
1772537174367075600,2.30807568359375,-0.01312272623181343,-0.8197832703590393,1.670825481414795
1772537174377124600,2.31812451171875,0.009253951720893383,-0.7576272487640381,1.435014009475708
1772537174387172400,2.32817236328125,0.08032733201980591,-0.43836110830307007,1.0154145956039429
1772537174397220600,2.338220703125,0.1683402806520462,0.13486327230930328,0.550964891910553
1772537174407268600,2.3482685546875,0.22724168002605438,0.8128744959831238,0.1540718525648117
1772537174417317600,2.358317626953125,0.22535109519958496,1.402066946029663,-0.10926630347967148
1772537174427365600,2.36836572265625,0.16485393047332764,1.7767084836959839,-0.21294263005256653
1772537174437413600,2.37841357421875,0.07659091800451279,1.793302059173584,-0.19009484350681305
1772537174447462700,2.388462646484375,0.005845904815942049,1.5277249813079834,-0.017350228503346443
1772537174457510400,2.398510498046875,-0.03767867013812065,1.203102946281433,0.31077757477760315
1772537174467558700,2.40855859375,-0.09128250926733017,0.9209524989128113,0.6953087449073792
1772537174477606700,2.418606689453125,-0.17776520550251007,0.6782882213592529,1.0209203958511353
1772537174487655700,2.42865576171875,-0.28202369809150696,0.49564969539642334,1.2253875732421875
1772537174497703700,2.43870361328125,-0.35273781418800354,0.40413230657577515,1.307186245918274
1772537174507751400,2.44875146484375,-0.3832145035266876,0.41744568943977356,1.2715870141983032
1772537174517800400,2.458800537109375,-0.37102362513542175,0.4396785795688629,1.094849705696106
1772537174527848400,2.468848388671875,-0.2740563154220581,0.43218177556991577,0.8156782984733582
1772537174537896700,2.478896728515625,-0.10716000944375992,0.42025959491729736,0.4679719805717468
1772537174547945500,2.488945556640625,0.07959096878767014,0.45433369278907776,0.043414320796728134
1772537174557993700,2.49899365234375,0.310708612203598,0.5761900544166565,-0.4221842586994171
1772537174568041500,2.50904150390625,0.5261170864105225,0.7206862568855286,-0.8791019916534424
1772537174578089500,2.51908935546875,0.6874822378158569,0.7985941171646118,-1.2516542673110962
1772537174588138500,2.529138427734375,0.8280242085456848,0.6910061240196228,-1.4733986854553223
1772537174598186500,2.5391865234375,0.8498786091804504,0.521009624004364,-1.5191048383712769
1772537174608234800,2.54923486328125,0.7464907169342041,0.30350980162620544,-1.3916057348251343
1772537174618283500,2.559283447265625,0.6338691115379333,0.11004661023616791,-1.124955177307129
1772537174628331800,2.569331787109375,0.5186048150062561,-0.05921512097120285,-0.848867654800415
1772537174638379500,2.579379638671875,0.36727121472358704,-0.20752708613872528,-0.6403006315231323
1772537174648427500,2.589427490234375,0.17652496695518494,-0.2659693658351898,-0.48706525564193726
1772537174658476500,2.5994765625,-0.043960265815258026,-0.2532471716403961,-0.3579613268375397
1772537174668524500,2.609524658203125,-0.2744795083999634,-0.22147326171398163,-0.2100488394498825
1772537174678572500,2.619572509765625,-0.4736541211605072,-0.1765848845243454,0.056169264018535614
1772537174688621600,2.62962158203125,-0.5868557691574097,-0.15670758485794067,0.43196818232536316
1772537174698669600,2.639669677734375,-0.5951395630836487,-0.21494586765766144,0.7748759984970093
1772537174708717600,2.649717529296875,-0.5306857228279114,-0.400862455368042,0.9697712063789368
1772537174718765600,2.659765625,-0.4496840536594391,-0.707949161529541,0.9590452909469604
1772537174728814600,2.669814697265625,-0.3914409875869751,-1.004952311515808,0.7077457308769226
1772537174738862600,2.679862548828125,-0.33236196637153625,-1.18949556350708,0.20741790533065796
1772537174748910600,2.68991064453125,-0.2674753665924072,-1.1941651105880737,-0.41112256050109863
1772537174758959600,2.699959716796875,-0.22330206632614136,-1.0258736610412598,-0.9904890060424805
1772537174769007600,2.710007568359375,-0.20832310616970062,-0.7110493779182434,-1.411258339881897
1772537174779055600,2.7200556640625,-0.20642080903053284,-0.2857939302921295,-1.533724308013916
1772537174789103600,2.730103515625,-0.20690923929214478,0.10008212924003601,-1.3194706439971924
1772537174799152600,2.740152587890625,-0.18248112499713898,0.2668657898902893,-0.835416853427887
1772537174809200600,2.75020068359375,-0.16610774397850037,0.16121232509613037,-0.20623785257339478
1772537174819248600,2.76024853515625,-0.1906208097934723,-0.14899960160255432,0.42213207483291626
1772537174829297700,2.770297607421875,-0.24259746074676514,-0.5207409262657166,0.9345136284828186
1772537174839345400,2.780345458984375,-0.3219362199306488,-0.852449357509613,1.2811267375946045
1772537174849393700,2.7903935546875,-0.4021247923374176,-1.108440637588501,1.4293670654296875
1772537174859442400,2.8004423828125,-0.4262181520462036,-1.2204750776290894,1.381318211555481
1772537174869490700,2.81049072265625,-0.40886127948760986,-1.133542537689209,1.1622674465179443
1772537174879538400,2.820538330078125,-0.415090948343277,-0.8417701125144958,0.8088635206222534
1772537174889586700,2.830586669921875,-0.46735042333602905,-0.4041629135608673,0.39578089118003845
1772537174899635500,2.840635498046875,-0.546032190322876,0.14004658162593842,0.013502226211130619
1772537174909683500,2.850683349609375,-0.617390513420105,0.7519059777259827,-0.2719729244709015
1772537174919731700,2.860731689453125,-0.7015317678451538,1.2930814027786255,-0.41032519936561584
1772537174929780500,2.870780517578125,-0.7610957622528076,1.6522154808044434,-0.36892637610435486
1772537174939828700,2.880828857421875,-0.7767543196678162,1.785372257232666,-0.16225947439670563
1772537174949876500,2.89087646484375,-0.7717633247375488,1.6959770917892456,0.13493305444717407
1772537174959924500,2.900924560546875,-0.7390415668487549,1.4802981615066528,0.46465209126472473
1772537174969973500,2.910973388671875,-0.7068753838539124,1.2421252727508545,0.789017915725708
1772537174980021500,2.921021484375,-0.7085686326026917,1.002845287322998,1.0827052593231201
1772537174990069500,2.931069580078125,-0.7241047024726868,0.7106373906135559,1.296439290046692
1772537175000118500,2.941118408203125,-0.7092632055282593,0.3965577185153961,1.394461989402771
1772537175010166500,2.95116650390625,-0.6428053379058838,0.11372923105955124,1.3779245615005493
1772537175020214500,2.961214599609375,-0.5503749847412109,-0.13282781839370728,1.2316219806671143
1772537175030262500,2.971262451171875,-0.41320595145225525,-0.2978931963443756,0.9761444330215454
1772537175040311600,2.9813115234375,-0.22329381108283997,-0.36808454990386963,0.6137294769287109
1772537175050359600,2.991359619140625,-0.005182777531445026,-0.32176870107650757,0.17735081911087036
1772537175060407600,3.001407470703125,0.2057664841413498,-0.17757558822631836,-0.2471911460161209
1772537175070456600,3.01145654296875,0.3889639973640442,-0.008615059778094292,-0.6190816164016724
1772537175080504600,3.021504638671875,0.48343324661254883,0.13200277090072632,-0.9379149675369263
1772537175090552600,3.031552490234375,0.4711802899837494,0.11117259413003922,-1.1527841091156006
1772537175100600600,3.0416005859375,0.3998267650604248,-0.05072230100631714,-1.2359554767608643
1772537175110648600,3.051648681640625,0.3328525125980377,-0.28929412364959717,-1.2647240161895752
1772537175120696600,3.061696533203125,0.29245316982269287,-0.6076132655143738,-1.3229641914367676
1772537175130744600,3.07174462890625,0.22834289073944092,-1.0081441402435303,-1.4695658683776855
1772537175140793600,3.081793701171875,0.0972658321261406,-1.3410781621932983,-1.6658143997192383
1772537175150841600,3.091841552734375,-0.09667807072401047,-1.420161485671997,-1.802695870399475
1772537175160889600,3.1018896484375,-0.2696642279624939,-1.2136446237564087,-1.788967251777649
1772537175170937600,3.1119375,-0.33686643838882446,-0.8061801195144653,-1.6220057010650635
1772537175180986600,3.121986572265625,-0.3381301164627075,-0.352441668510437,-1.2723768949508667
1772537175191034600,3.13203466796875,-0.3305582106113434,-0.0752532109618187,-0.7652311325073242
1772537175201082400,3.142082275390625,-0.2940257787704468,-0.12306626886129379,-0.24220198392868042
1772537175211131600,3.152131591796875,-0.21662232279777527,-0.40214210748672485,0.1672997772693634
1772537175221179400,3.162179443359375,-0.13535036146640778,-0.70794278383255,0.4427582621574402
1772537175231227600,3.1722275390625,-0.0815606415271759,-0.9345876574516296,0.5467349886894226
1772537175241275600,3.182275634765625,-0.041734661906957626,-1.0165499448776245,0.4449463188648224
1772537175251324700,3.19232470703125,-0.004062652122229338,-0.8952335715293884,0.19373564422130585
1772537175261372700,3.20237255859375,0.011324825696647167,-0.5197259783744812,-0.11205889284610748
1772537175271420400,3.21242041015625,-0.02479855716228485,-0.07040519267320633,-0.4097273349761963
1772537175281469700,3.2224697265625,-0.09789114445447922,0.25601208209991455,-0.566134512424469
1772537175291517400,3.232517333984375,-0.16844387352466583,0.3800986111164093,-0.4977368116378784
1772537175301565700,3.242565673828125,-0.19936610758304596,0.2963656187057495,-0.23213070631027222
1772537175311613400,3.252613525390625,-0.20787250995635986,0.06187082454562187,0.14851650595664978
1772537175321662700,3.262662841796875,-0.2253236621618271,-0.21503055095672607,0.5446401238441467
1772537175331710500,3.27271044921875,-0.2493605613708496,-0.4503410756587982,0.8853543400764465
1772537175341758500,3.282758544921875,-0.2750534117221832,-0.6053165197372437,1.1550889015197754
1772537175351807500,3.292807373046875,-0.278885155916214,-0.6655487418174744,1.3323941230773926
1772537175361855500,3.30285546875,-0.2750400900840759,-0.5917115211486816,1.441214919090271
1772537175371903700,3.31290380859375,-0.2445567548274994,-0.4100029766559601,1.5389031171798706
1772537175381951500,3.322951416015625,-0.10666359215974808,-0.17933912575244904,1.5869169235229492
1772537175392000800,3.333000732421875,0.09928983449935913,0.024565530940890312,1.5076581239700317
1772537175402048500,3.343048583984375,0.28478139638900757,0.19357985258102417,1.2904139757156372
1772537175412096500,3.353096435546875,0.3331209719181061,0.2534621059894562,0.942708432674408
1772537175422145500,3.3631455078125,0.17269161343574524,0.2606979012489319,0.5260204076766968
1772537175432193500,3.373193603515625,-0.15684394538402557,0.2757711410522461,0.12311846762895584
1772537175442241800,3.38324169921875,-0.47180160880088806,0.21672165393829346,-0.21948201954364777
1772537175452289500,3.39328955078125,-0.6606575846672058,0.14828747510910034,-0.4213014245033264
1772537175462338600,3.403338623046875,-0.703912615776062,0.14479473233222961,-0.42073577642440796
1772537175472386600,3.413386474609375,-0.581974446773529,0.21300947666168213,-0.23370464146137238
1772537175482434600,3.4234345703125,-0.31447404623031616,0.3188339173793793,0.07966473698616028
1772537175492483600,3.433483642578125,0.00039228363311849535,0.3554214835166931,0.44450899958610535
1772537175502531600,3.443531494140625,0.2815464735031128,0.2796039581298828,0.7796657085418701
1772537175512579600,3.45357958984375,0.4823557138442993,0.1553291380405426,1.02609384059906
1772537175522628600,3.463628662109375,0.6090329885482788,0.0735573098063469,1.1218738555908203
1772537175532676400,3.47367626953125,0.6346185207366943,0.009181780740618706,1.0170865058898926
1772537175542724600,3.483724609375,0.5868666768074036,-0.045348040759563446,0.7444765567779541
1772537175552772600,3.493772705078125,0.511600136756897,-0.04854489862918854,0.37122493982315063
1772537175562821600,3.503821533203125,0.46331891417503357,0.08541689813137054,-0.011275291442871094
1772537175572869600,3.51386962890625,0.4818316102027893,0.3359505832195282,-0.3561865985393524
1772537175582917600,3.523917724609375,0.5531542897224426,0.5245066285133362,-0.634803295135498
1772537175592966700,3.533966552734375,0.6447901725769043,0.5443282723426819,-0.8668184280395508
1772537175603014400,3.544014404296875,0.7180249691009521,0.463060587644577,-1.0225428342819214
1772537175613062700,3.554062744140625,0.6992491483688354,0.37020814418792725,-1.1017659902572632
1772537175623110700,3.564110595703125,0.5369409322738647,0.14950799942016602,-1.1547197103500366
1772537175633159700,3.57415966796875,0.3087189495563507,-0.21477381885051727,-1.1643882989883423
1772537175643207400,3.58420751953125,0.06985844671726227,-0.6333247423171997,-1.1017212867736816
1772537175653255400,3.59425537109375,-0.13155882060527802,-0.9174746870994568,-1.0205509662628174
1772537175663304400,3.604304443359375,-0.2702237665653229,-0.987916111946106,-0.9807548522949219
1772537175673352400,3.6143525390625,-0.34830552339553833,-0.8192692995071411,-1.0083364248275757
1772537175683400700,3.624400634765625,-0.3961699903011322,-0.4971458613872528,-1.0509980916976929
1772537175693448400,3.634448486328125,-0.4394604563713074,-0.15449769794940948,-0.9750365018844604
1772537175703497700,3.644497802734375,-0.46616876125335693,0.028270520269870758,-0.7179091572761536
1772537175713545500,3.65454541015625,-0.40875715017318726,-0.09948557615280151,-0.35677677392959595
1772537175723593500,3.664593505859375,-0.2645682692527771,-0.4374138116836548,0.004415787290781736
1772537175733642500,3.674642578125,-0.09618352353572845,-0.7424536347389221,0.2567138075828552
1772537175743690500,3.6846904296875,0.04683088883757591,-0.9344632625579834,0.2811832129955292
1772537175753738800,3.69473876953125,0.12223482877016068,-0.9540854692459106,0.05915413424372673
1772537175763786500,3.704786376953125,0.12139566987752914,-0.732233464717865,-0.27603450417518616
1772537175773835800,3.714835693359375,0.03410524129867554,-0.2898046672344208,-0.5702195167541504
1772537175783883500,3.724883544921875,-0.13382837176322937,0.15503379702568054,-0.6766778230667114
1772537175793931500,3.734931640625,-0.31302130222320557,0.3661356568336487,-0.5309139490127563
1772537175803980500,3.74498046875,-0.45360878109931946,0.3588699996471405,-0.1584990918636322
1772537175814028500,3.755028564453125,-0.5395734906196594,0.16572345793247223,0.3295038640499115
1772537175824076500,3.76507666015625,-0.5961861610412598,-0.16673465073108673,0.8017627596855164
1772537175834124500,3.77512451171875,-0.6687849760055542,-0.5962788462638855,1.0734001398086548
1772537175844173600,3.785173583984375,-0.7572485208511353,-0.947128176689148,1.0776811838150024
1772537175854221600,3.7952216796875,-0.8289022445678711,-1.0586028099060059,0.8425155282020569
1772537175864269600,3.80526953125,-0.8219907879829407,-0.8812612891197205,0.4953538179397583
1772537175874318600,3.815318603515625,-0.679173469543457,-0.5391476154327393,0.16685210168361664
1772537175884366600,3.82536669921875,-0.4088340997695923,-0.15896888077259064,-0.09685410559177399
1772537175894414600,3.83541455078125,-0.07079187780618668,0.1947905272245407,-0.2697385251522064
1772537175904462600,3.845462646484375,0.24958506226539612,0.4932217001914978,-0.30134519934654236
1772537175914511600,3.85551171875,0.4789828360080719,0.7029677033424377,-0.18118469417095184
1772537175924559600,3.8655595703125,0.5803914666175842,0.7330026030540466,0.06340081244707108
1772537175934607600,3.875607666015625,0.5686477422714233,0.5623837113380432,0.41147756576538086
1772537175944656600,3.88565673828125,0.47960948944091797,0.288816899061203,0.8126023411750793
1772537175954704600,3.89570458984375,0.35814934968948364,0.00854608416557312,1.1966110467910767
1772537175964752600,3.905752685546875,0.2643030285835266,-0.19747258722782135,1.5020785331726074
1772537175974800600,3.915800537109375,0.23338106274604797,-0.28608447313308716,1.681214451789856
1772537175984849700,3.925849609375,0.23994681239128113,-0.2260856032371521,1.7396482229232788
1772537175994897700,3.935897705078125,0.24758023023605347,-0.040037430822849274,1.7049047946929932
1772537176004945400,3.9459453125,0.2582922577857971,0.20358161628246307,1.5824577808380127
1772537176014994700,3.95599462890625,0.2918720543384552,0.42373421788215637,1.364274024963379
1772537176025042400,3.96604248046875,0.34660935401916504,0.5193701982498169,1.0711880922317505
1772537176035090700,3.976090576171875,0.36333611607551575,0.5713282227516174,0.7477378845214844
1772537176045138700,3.986138671875,0.34382501244544983,0.5288854241371155,0.4086194634437561
1772537176055187500,3.9961875,0.3258475959300995,0.47485122084617615,0.08842626959085464
1772537176065235700,4.006235595703125,0.3050648272037506,0.4696921408176422,-0.1904226690530777
1772537176075283500,4.016283447265625,0.25394704937934875,0.4959122836589813,-0.4373514950275421
1772537176085332700,4.026332763671875,0.22035500407218933,0.5576385259628296,-0.5812394022941589
1772537176095380500,4.03638037109375,0.22972454130649567,0.5883937478065491,-0.6313228607177734
1772537176105429800,4.0464296875,0.25143036246299744,0.528471052646637,-0.6296879053115845
1772537176115477800,4.056477783203125,0.2545044422149658,0.3310557007789612,-0.6340203285217285
1772537176125526800,4.06652685546875,0.24893924593925476,0.08336865901947021,-0.7110443115234375
1772537176135574800,4.07657470703125,0.2188710868358612,-0.1550859957933426,-0.8523894548416138
1772537176145622800,4.086622802734375,0.1535879671573639,-0.4066993296146393,-1.0010614395141602
1772537176155671600,4.096671630859375,0.05643957480788231,-0.6435483694076538,-1.16124427318573
1772537176165719800,4.1067197265625,-0.03615507483482361,-0.8147068023681641,-1.318250298500061
1772537176175767600,4.116767578125,-0.08242163807153702,-0.7938992381095886,-1.40268075466156
1772537176185815800,4.12681591796875,-0.09603624790906906,-0.5717023611068726,-1.3734537363052368
1772537176195864600,4.136864501953125,-0.13977999985218048,-0.2716304361820221,-1.2156352996826172
1772537176205912600,4.14691259765625,-0.24667583405971527,-0.08229247480630875,-0.9230561256408691
1772537176215960800,4.1569609375,-0.338545024394989,-0.13934990763664246,-0.5829821825027466
1772537176226009600,4.167009521484375,-0.3590873181819916,-0.3842043876647949,-0.2751900255680084
1772537176236057900,4.177057861328125,-0.3439624309539795,-0.6850294470787048,-0.1369916796684265
1772537176246105600,4.187105712890625,-0.35024482011795044,-0.9212191104888916,-0.216215118765831
1772537176256153600,4.197153564453125,-0.3779646158218384,-0.9788118004798889,-0.4528108835220337
1772537176266202600,4.20720263671875,-0.4123537540435791,-0.8616713285446167,-0.7619354128837585
1772537176276250600,4.217250732421875,-0.4427603781223297,-0.57038813829422,-1.0160582065582275
1772537176286298600,4.227298583984375,-0.43053966760635376,-0.1257840245962143,-1.061050295829773
1772537176296347600,4.23734765625,-0.3844811022281647,0.34242552518844604,-0.8295301795005798
1772537176306395600,4.247395751953125,-0.317436546087265,0.6224984526634216,-0.3489103317260742
1772537176316443600,4.257443603515625,-0.2581000030040741,0.5620369911193848,0.3045939803123474
1772537176326491600,4.26749169921875,-0.252696692943573,0.14244449138641357,0.9713259339332581
1772537176336540700,4.277540771484375,-0.2824151813983917,-0.4652201533317566,1.4843722581863403
1772537176346588700,4.287588623046875,-0.31648552417755127,-1.051493763923645,1.7323393821716309
1772537176356636700,4.29763671875,-0.31961020827293396,-1.3140835762023926,1.7411272525787354
1772537176366685700,4.307685791015625,-0.23471955955028534,-1.1881242990493774,1.574240803718567
1772537176376733700,4.317733642578125,-0.0834972932934761,-0.8373886346817017,1.308754801750183
1772537176386781700,4.32778173828125,0.1041405200958252,-0.4145399332046509,1.070330023765564
1772537176396829700,4.33782958984375,0.26239192485809326,-0.07720663398504257,0.9339674115180969
1772537176406878700,4.347878662109375,0.33110707998275757,0.15020468831062317,0.8825188279151917
1772537176416926700,4.3579267578125,0.3185526728630066,0.23739391565322876,0.8945448994636536
1772537176426974700,4.367974609375,0.2579615116119385,0.256321519613266,0.933441162109375
1772537176437023700,4.378023681640625,0.1623620092868805,0.2591162621974945,0.9841248393058777
1772537176447071700,4.38807177734375,0.07340071350336075,0.2525443732738495,1.0300086736679077
1772537176457119700,4.39811962890625,0.0142945172265172,0.2505533993244171,1.0400781631469727
1772537176467167500,4.40816748046875,-0.046435676515102386,0.2735455334186554,1.0009030103683472
1772537176477216800,4.418216796875,-0.10242810100317001,0.35112953186035156,0.9287989735603333
1772537176487264500,4.428264404296875,-0.1185452863574028,0.452671080827713,0.860529899597168
1772537176497312800,4.438312744140625,-0.08996131271123886,0.6229836940765381,0.8013023138046265
1772537176507361500,4.448361572265625,-0.03785523772239685,0.8423323035240173,0.7474941611289978
1772537176517409800,4.458409912109375,0.021216871216893196,1.0586779117584229,0.6710841059684753
1772537176527457800,4.468457763671875,0.07380525022745132,1.197962760925293,0.5637997388839722
1772537176537505500,4.478505615234375,0.12509959936141968,1.2320129871368408,0.4425622522830963
1772537176547554800,4.488554931640625,0.16492131352424622,1.1778922080993652,0.3263232409954071
1772537176557602600,4.4986025390625,0.20966002345085144,1.066535234451294,0.20724186301231384
1772537176567650800,4.50865087890625,0.2633565366268158,0.9408820271492004,0.060086771845817566
1772537176577699600,4.518699462890625,0.29665857553482056,0.8071620464324951,-0.12606312334537506
1772537176587747800,4.528747802734375,0.3181907534599304,0.7295418381690979,-0.317140132188797
1772537176597795800,4.5387958984375,0.33790481090545654,0.7593982219696045,-0.4690902531147003
1772537176607843600,4.548843505859375,0.37522047758102417,0.8550776243209839,-0.5793430209159851
1772537176617892900,4.558892822265625,0.4564250707626343,0.9513333439826965,-0.6215775609016418
1772537176627940600,4.568940673828125,0.5656394362449646,1.0289509296417236,-0.6321494579315186
1772537176637988900,4.57898876953125,0.6540345549583435,0.9582607746124268,-0.6522675156593323
1772537176648037600,4.58903759765625,0.6596082448959351,0.6861943602561951,-0.6999335885047913
1772537176658085600,4.599085693359375,0.5568826794624329,0.2905157208442688,-0.7735944986343384
1772537176668133600,4.609133544921875,0.4171527624130249,-0.05621986463665962,-0.8620295524597168
1772537176678181600,4.619181640625,0.29554322361946106,-0.2423977255821228,-0.9969860315322876
1772537176688230700,4.629230712890625,0.158028244972229,-0.20590415596961975,-1.1507455110549927
1772537176698278700,4.639278564453125,-0.027952805161476135,0.006247243378311396,-1.2351397275924683
1772537176708327000,4.649326904296875,-0.238778755068779,0.26629638671875,-1.1464037895202637
1772537176718375700,4.659375732421875,-0.3882526755332947,0.4108746349811554,-0.8714683055877686
1772537176728423700,4.669423583984375,-0.4059043526649475,0.33259791135787964,-0.49779993295669556
1772537176738471700,4.6794716796875,-0.29926660656929016,-0.09944695979356766,-0.24130849540233612
1772537176748519700,4.689519775390625,-0.05427762120962143,-0.6396742463111877,-0.22582566738128662
1772537176758568700,4.699568603515625,0.25116991996765137,-1.0022732019424438,-0.505902886390686
1772537176768616700,4.70961669921875,0.49021443724632263,-0.9922488331794739,-0.9870330095291138
1772537176778664700,4.719664794921875,0.5893325209617615,-0.5557271242141724,-1.4854291677474976
1772537176788713700,4.729713623046875,0.4892035126686096,0.09370198845863342,-1.836778163909912
1772537176798761700,4.73976171875,0.23741841316223145,0.7452307939529419,-1.8601210117340088
1772537176808809700,4.749809814453125,-0.07403348386287689,1.1704657077789307,-1.492026686668396
1772537176818857700,4.759857666015625,-0.3401051163673401,1.1748322248458862,-0.800742506980896
1772537176828906800,4.76990673828125,-0.523622453212738,0.7654367089271545,0.06129851192235947
1772537176838954800,4.779954833984375,-0.6485084891319275,0.0981699749827385,0.9221959710121155
1772537176849002500,4.79000244140625,-0.7183661460876465,-0.5557599067687988,1.6101770401000977
1772537176859051800,4.8000517578125,-0.7198412418365479,-0.9551565647125244,2.0104973316192627
1772537176869099500,4.810099609375,-0.6812477707862854,-1.052910566329956,2.1003940105438232
1772537176879147800,4.820147705078125,-0.5905951261520386,-0.9147396087646484,1.9802703857421875
1772537176889195800,4.83019580078125,-0.4318973422050476,-0.6540891528129578,1.7228615283966064
1772537176899244800,4.840244873046875,-0.2293865829706192,-0.3495694398880005,1.384145736694336
1772537176909292800,4.850292724609375,-0.031004255637526512,0.04739947244524956,1.0633858442306519
1772537176919340500,4.860340576171875,0.11926833540201187,0.5051454901695251,0.7899628281593323
1772537176929389800,4.870389892578125,0.2089257836341858,0.8670123219490051,0.5587178468704224
1772537176939437600,4.8804375,0.2519795000553131,1.0417753458023071,0.3571179211139679
1772537176949485800,4.89048583984375,0.2256413847208023,0.9343895316123962,0.19024237990379333
1772537176959533600,4.900533447265625,0.09330331534147263,0.5292034149169922,0.06944885104894638
1772537176969582800,4.910582763671875,-0.0620868057012558,0.09938517957925797,-0.009675530716776848
1772537176979630600,4.920630615234375,-0.14387701451778412,-0.10156656801700592,-0.02786918170750141
1772537176989678600,4.9306787109375,-0.15573686361312866,-0.06509458273649216,-0.0449453704059124
1772537176999727600,4.9407275390625,-0.08139712363481522,0.14956152439117432,-0.07358740270137787
1772537177009775600,4.950775634765625,0.04897073656320572,0.4123968780040741,-0.10852407664060593
1772537177019823900,4.960823974609375,0.1916559785604477,0.6094159483909607,-0.1433664858341217
1772537177029871600,4.97087158203125,0.3183007538318634,0.6643868088722229,-0.14692740142345428
1772537177039921000,4.9809208984375,0.3866651654243469,0.6440234780311584,-0.09911912679672241
1772537177049968600,4.99096875,0.3990059792995453,0.6008725166320801,-0.006527407560497522
1772537177060016600,5.0010166015625,0.3804112672805786,0.5558552742004395,0.09549163281917572
1772537177070065000,5.01106494140625,0.3452005386352539,0.4528513550758362,0.1704028993844986
1772537177080113700,5.02111376953125,0.2946412265300751,0.3089245557785034,0.19635486602783203
1772537177090162000,5.031161865234375,0.2153322845697403,0.1773926317691803,0.1872180998325348
1772537177100209700,5.041209716796875,0.12309716641902924,0.06167987734079361,0.1616927534341812
1772537177110257200,5.051257080078125,0.054482150822877884,-0.001898301183246076,0.12247531861066818
1772537177120305400,5.061305419921875,0.043538689613342285,0.024287762120366096,0.07949189841747284
1772537177130353200,5.071353271484375,0.06661231815814972,0.0978860855102539,0.030233535915613174
1772537177140402400,5.08140234375,0.09654491394758224,0.13908997178077698,-0.05161152780056
1772537177150450200,5.0914501953125,0.0966050997376442,0.0592031367123127,-0.19845689833164215
1772537177160498200,5.101498291015625,0.06745041161775589,-0.08741506934165955,-0.3933297097682953
1772537177170546200,5.111546142578125,0.0006245112745091319,-0.22301550209522247,-0.5771719813346863
1772537177180595200,5.12159521484375,-0.07854301482439041,-0.3174871504306793,-0.7162896394729614
1772537177190643200,5.131643310546875,-0.11259738355875015,-0.3280372619628906,-0.7888062000274658
1772537177200691200,5.141691162109375,-0.12013812363147736,-0.24514158070087433,-0.7959983348846436
1772537177210740200,5.151740234375,-0.18131253123283386,-0.18231920897960663,-0.7949799299240112
1772537177220788200,5.161788330078125,-0.3135448694229126,-0.18967832624912262,-0.7850207686424255
1772537177230836200,5.171836181640625,-0.44381365180015564,-0.2577527165412903,-0.7473538517951965
1772537177240884200,5.18188427734375,-0.5487281084060669,-0.4474390149116516,-0.7238431572914124
1772537177250933200,5.191933349609375,-0.6223157644271851,-0.7069236040115356,-0.6823897361755371
1772537177260981200,5.201981201171875,-0.629115104675293,-0.9540343284606934,-0.6185452342033386
1772537177271029200,5.212029296875,-0.5576973557472229,-1.1332142353057861,-0.6053580641746521
1772537177281078300,5.222078369140625,-0.40045979619026184,-1.1450918912887573,-0.6665663123130798
1772537177291126300,5.232126220703125,-0.17284581065177917,-0.9850561618804932,-0.8357004523277283
1772537177301174300,5.24217431640625,0.09173471480607986,-0.6980035901069641,-1.0835635662078857
1772537177311222300,5.25222216796875,0.3449890911579132,-0.2925892472267151,-1.3553422689437866
1772537177321271300,5.262271240234375,0.5072445869445801,0.10979334264993668,-1.6148521900177002
1772537177331319300,5.2723193359375,0.5052450895309448,0.3725533187389374,-1.7887462377548218
1772537177341367300,5.2823671875,0.4010390341281891,0.627328634262085,-1.7787327766418457
1772537177351415000,5.2924150390625,0.36659902334213257,1.0454883575439453,-1.5902259349822998
1772537177361464300,5.30246435546875,0.42311158776283264,1.512362003326416,-1.2748674154281616
1772537177371512000,5.312511962890625,0.47795963287353516,1.8314201831817627,-0.8973103165626526
1772537177381560300,5.322560302734375,0.4620547294616699,1.7766567468643188,-0.5205726027488708
1772537177391608300,5.3326083984375,0.28903499245643616,1.3574094772338867,-0.11026152968406677
1772537177401657300,5.3426572265625,0.05176705867052078,0.7979762554168701,0.3416081964969635
1772537177411705300,5.352705322265625,-0.11655084788799286,0.2769298553466797,0.7232831120491028
1772537177421753000,5.362753173828125,-0.17483891546726227,-0.04971881955862045,0.9470280408859253
1772537177431802400,5.37280224609375,-0.12883999943733215,-0.08351060748100281,0.9892940521240234
1772537177441850000,5.38285009765625,-0.014788000844419003,0.10617516934871674,0.8669862151145935
1772537177451898400,5.3928984375,0.13810034096240997,0.4454765319824219,0.6259174346923828
1772537177461946400,5.4029462890625,0.323493629693985,0.8691316843032837,0.3430827856063843
1772537177471995400,5.412995361328125,0.5296164751052856,1.265326738357544,0.05440225452184677
1772537177482043400,5.42304345703125,0.7654092907905579,1.5234394073486328,-0.19235612452030182
1772537177492091100,5.433091064453125,0.9579262733459473,1.52521550655365,-0.3762202262878418
1772537177502140200,5.44314013671875,1.022972583770752,1.2629377841949463,-0.5081817507743835
1772537177512188200,5.453188232421875,0.9857956767082214,0.9098527431488037,-0.5377476215362549
1772537177522236400,5.463236328125,0.8774905204772949,0.6482815742492676,-0.44198858737945557
1772537177532285200,5.47328515625,0.7309088110923767,0.5024029612541199,-0.2882123589515686
1772537177542333200,5.483333251953125,0.5973488688468933,0.420734167098999,-0.10084298998117447
1772537177552381200,5.493381103515625,0.46472427248954773,0.319528728723526,0.10528088361024857
1772537177562429200,5.50342919921875,0.3529609739780426,0.1897648721933365,0.29961973428726196
1772537177572478200,5.513478271484375,0.2964702844619751,0.030598921701312065,0.45592358708381653
1772537177582526200,5.523526123046875,0.2717185914516449,-0.10354743152856827,0.5378330945968628
1772537177592574500,5.533574462890625,0.2652527093887329,-0.17175577580928802,0.5288404226303101
1772537177602622200,5.543622314453125,0.2714323103427887,-0.22194038331508636,0.40857604146003723
1772537177612671200,5.553671142578125,0.26328542828559875,-0.27014225721359253,0.16635702550411224
1772537177622719200,5.56371923828125,0.20948292315006256,-0.3174186944961548,-0.15369342267513275
1772537177632767200,5.573767333984375,0.12178369611501694,-0.377175509929657,-0.5139070153236389
1772537177642816300,5.583816162109375,0.0565602146089077,-0.4036758244037628,-0.8019148111343384
1772537177652864300,5.5938642578125,0.01630041003227234,-0.2972135543823242,-0.9403467178344727
1772537177662912300,5.603912353515625,0.034455977380275726,0.01727219671010971,-0.9067983627319336
1772537177672960300,5.613960205078125,0.147919163107872,0.4047520160675049,-0.7643312215805054
1772537177683009000,5.624009033203125,0.21712592244148254,0.5842607617378235,-0.6567475199699402
1772537177693057300,5.634057373046875,0.12791162729263306,0.4770887792110443,-0.6403661370277405
1772537177703105300,5.644105224609375,-0.0720643401145935,0.05319637432694435,-0.6896034479141235
1772537177713154300,5.654154296875,-0.2723945081233978,-0.5444476008415222,-0.7785357236862183
1772537177723202300,5.664202392578125,-0.4761148691177368,-1.075400948524475,-0.8303475379943848
1772537177733250000,5.67425,-0.7158017754554749,-1.3391753435134888,-0.7755564451217651
1772537177743298300,5.68429833984375,-0.9347604513168335,-1.3701481819152832,-0.604995608329773
1772537177753347000,5.69434716796875,-1.0502623319625854,-1.2594424486160278,-0.33004528284072876
1772537177763395300,5.704395263671875,-0.9900117516517639,-1.028186559677124,0.03204794600605965
1772537177773443300,5.714443359375,-0.7691704630851746,-0.7659847736358643,0.3367713689804077
1772537177783492400,5.724492431640625,-0.48931509256362915,-0.61738121509552,0.39512816071510315
1772537177793540400,5.734540283203125,-0.2610875368118286,-0.5867670774459839,0.15756192803382874
1772537177803588000,5.744588134765625,-0.18313705921173096,-0.5829119086265564,-0.2906576693058014
1772537177813636400,5.75463623046875,-0.23531557619571686,-0.5279713869094849,-0.7575766444206238
1772537177823685000,5.76468505859375,-0.35216444730758667,-0.36351749300956726,-1.04029381275177
1772537177833733400,5.7747333984375,-0.47581392526626587,-0.10354822874069214,-1.0400434732437134
1772537177843781000,5.784781005859375,-0.5503257513046265,0.16820737719535828,-0.7292030453681946
1772537177853830400,5.794830322265625,-0.5552965402603149,0.3673308789730072,-0.2001733034849167
1772537177863878100,5.804878173828125,-0.499487042427063,0.3845764398574829,0.38980555534362793
1772537177873926100,5.814926025390625,-0.4043200612068176,0.3563442528247833,0.8764992952346802
1772537177883974400,5.824974365234375,-0.2734203636646271,0.3073948323726654,1.2377322912216187
1772537177894023200,5.835023193359375,-0.14393560588359833,0.16970354318618774,1.5085399150848389
1772537177904071400,5.845071533203125,-0.042692068964242935,-0.0225007813423872,1.7194265127182007
1772537177914119200,5.855119140625,0.04806526377797127,-0.1363684982061386,1.892732858657837
1772537177924168400,5.86516845703125,0.14190760254859924,-0.058344800025224686,1.9915592670440674
1772537177934216200,5.87521630859375,0.25727707147598267,0.2743745744228363,1.9230523109436035
1772537177944264200,5.88526416015625,0.389909952878952,0.7739045023918152,1.6660118103027344
1772537177954312400,5.8953125,0.4691999852657318,1.2327868938446045,1.2853786945343018
1772537177964361200,5.905361328125,0.41041630506515503,1.430931568145752,0.892117440700531
1772537177974409200,5.9154091796875,0.226861372590065,1.2401667833328247,0.5811288952827454
1772537177984457200,5.925457275390625,0.013135243207216263,0.7800965905189514,0.45903363823890686
1772537177994506200,5.93550634765625,-0.13277243077754974,0.2691928446292877,0.5204330682754517
1772537178004554200,5.94555419921875,-0.13497726619243622,-0.049306031316518784,0.7207792401313782
1772537178014602200,5.955602294921875,-0.033306289464235306,-0.049971554428339005,1.003226637840271
1772537178024650200,5.965650146484375,0.10892355442047119,0.16335323452949524,1.2823599576950073
1772537178034699300,5.97569921875,0.28754496574401855,0.4779500663280487,1.4946922063827515
1772537178044747300,5.985747314453125,0.4675440192222595,0.7678984999656677,1.638710618019104
1772537178054795300,5.995795166015625,0.5975496768951416,0.9299830198287964,1.6853340864181519
1772537178064844000,6.005843994140625,0.6599129438400269,0.9065682291984558,1.6237117052078247
1772537178074892300,6.015892333984375,0.6436988115310669,0.7219299674034119,1.4330427646636963
1772537178084940300,6.025940185546875,0.55268394947052,0.4523797333240509,1.136911153793335
1772537178094988300,6.03598828125,0.4860130548477173,0.2584342062473297,0.7681890726089478
1772537178105037300,6.046037353515625,0.46459537744522095,0.2184726893901825,0.34630921483039856
1772537178115089200,6.056089111328125,0.482412189245224,0.28832101821899414,-0.11431325972080231
1772537178125137200,6.06613720703125,0.5692712068557739,0.5008116960525513,-0.5168737769126892
1772537178135186000,6.07618603515625,0.7070066928863525,0.7648018002510071,-0.8331824541091919
1772537178145234200,6.086234130859375,0.8587437272071838,1.0040985345840454,-1.0260467529296875
1772537178155282000,6.096281982421875,0.9677610397338867,1.1321712732315063,-1.0693891048431396
1772537178165330200,6.106330078125,1.0065630674362183,1.0634374618530273,-1.0022000074386597
1772537178175379000,6.11637890625,0.8810450434684753,0.6801422834396362,-0.9394039511680603
1772537178185427200,6.12642724609375,0.575024425983429,-0.04643940553069115,-0.9708638787269592
1772537178195475200,6.13647509765625,0.22423523664474487,-0.9350979328155518,-1.0706000328063965
1772537178205524000,6.14652392578125,-0.10644868016242981,-1.6048173904418945,-1.2120815515518188
1772537178215572200,6.156572265625,-0.40833476185798645,-1.7929034233093262,-1.4204893112182617
1772537178225620000,6.166619873046875,-0.6236305832862854,-1.4980568885803223,-1.578480839729309
1772537178235668200,6.176668212890625,-0.7249678373336792,-0.8357489705085754,-1.501056432723999
1772537178245717000,6.186717041015625,-0.7083308100700378,-0.08063945174217224,-1.1447019577026367
1772537178255765000,6.196764892578125,-0.5890139937400818,0.415615051984787,-0.6134697794914246
1772537178265813000,6.20681298828125,-0.4149828255176544,0.501958966255188,-0.11394894123077393
1772537178275861000,6.216861083984375,-0.29309579730033875,0.2625780999660492,0.2410738617181778
1772537178285910000,6.226909912109375,-0.3370603322982788,-0.1947910636663437,0.38434821367263794
1772537178295958000,6.2369580078125,-0.527586042881012,-0.591380774974823,0.32791900634765625
1772537178306006300,6.24700634765625,-0.7014065980911255,-0.6408782601356506,0.1675804704427719
1772537178316055000,6.257054931640625,-0.7823799848556519,-0.3731868863105774,-0.04346465319395065
1772537178326103000,6.26710302734375,-0.7475998997688293,0.14246021211147308,-0.21499459445476532
1772537178336151000,6.277151123046875,-0.5995398759841919,0.7316702008247375,-0.30312231183052063
1772537178346199000,6.287198974609375,-0.35208427906036377,1.196447491645813,-0.328680157661438
1772537178356248000,6.297248046875,-0.08999007940292358,1.4136391878128052,-0.28011366724967957
1772537178366296000,6.307296142578125,0.08933946490287781,1.2683035135269165,-0.16713093221187592
1772537178376344000,6.317343994140625,0.1382358968257904,0.7962667942047119,-0.05002375319600105
1772537178386393000,6.32739306640625,0.09905388206243515,0.24871128797531128,0.039318911731243134
1772537178396441000,6.337441162109375,0.048528652638196945,-0.1655474156141281,0.05861883983016014
1772537178406489000,6.347489013671875,0.03277871757745743,-0.3200128972530365,-0.0384637676179409
1772537178416537000,6.357537109375,0.03428926318883896,-0.25398460030555725,-0.2835795283317566
1772537178426586000,6.367586181640625,0.06106095761060715,-0.024463796988129616,-0.5917461514472961
1772537178436634000,6.377634033203125,0.11797484010457993,0.36097338795661926,-0.8276728987693787
1772537178446681900,6.387681884765625,0.2053305208683014,0.7362111806869507,-0.9148658514022827
1772537178456731100,6.397731201171875,0.2691158950328827,0.9223810434341431,-0.8624633550643921
1772537178466779000,6.40777880859375,0.3224467635154724,0.7896522879600525,-0.6940400004386902
1772537178476827100,6.4178271484375,0.38310956954956055,0.48574912548065186,-0.46662282943725586
1772537178486875100,6.427875244140625,0.3892177939414978,0.18368461728096008,-0.19532236456871033
1772537178496924200,6.437924072265625,0.32709023356437683,-0.0711950808763504,0.06561895459890366
1772537178506972200,6.44797216796875,0.20984163880348206,-0.24217934906482697,0.2846226692199707
1772537178517020000,6.45802001953125,0.1130266860127449,-0.28648555278778076,0.4784888029098511
1772537178527069200,6.468069091796875,0.10003338754177094,-0.21264275908470154,0.7046087980270386
1772537178537117000,6.478116943359375,0.14042821526527405,-0.09631907939910889,0.9458956718444824
1772537178547165200,6.488165283203125,0.21035590767860413,-0.020789168775081635,1.1328405141830444
1772537178557213200,6.498213134765625,0.2688133418560028,-0.03462349250912666,1.2171826362609863
1772537178567262200,6.50826220703125,0.29908496141433716,-0.08221231400966644,1.1688190698623657
1772537178577310200,6.518310302734375,0.30139100551605225,-0.18460632860660553,0.9507759213447571
1772537178587358000,6.52835791015625,0.28618115186691284,-0.2977219521999359,0.5754736661911011
1772537178597407000,6.538406982421875,0.286728173494339,-0.3450671136379242,0.12860511243343353
1772537178607455000,6.548455078125,0.28259679675102234,-0.3152735233306885,-0.3172791600227356
1772537178617503200,6.558503173828125,0.26881495118141174,-0.23614035546779633,-0.7260448336601257
1772537178627551000,6.568551025390625,0.24573200941085815,-0.09938997030258179,-1.0862573385238647
1772537178637600300,6.578600341796875,0.18270163238048553,0.014184262603521347,-1.3919538259506226
1772537178647648000,6.58864794921875,0.09186121076345444,0.05120513215661049,-1.609645962715149
1772537178657696000,6.598696044921875,-0.027527764439582825,0.03014298900961876,-1.6761165857315063
1772537178667745000,6.6087451171875,-0.20867279171943665,-0.00908590666949749,-1.6072864532470703
1772537178677793000,6.61879296875,-0.42773962020874023,-0.09881286323070526,-1.4757698774337769
1772537178687841300,6.62884130859375,-0.64631187915802,-0.3105725049972534,-1.332149863243103
1772537178697889000,6.638888916015625,-0.8636018633842468,-0.7641900777816772,-1.2166398763656616
1772537178707938000,6.64893798828125,-1.069876790046692,-1.2721617221832275,-1.1786679029464722
1772537178717986000,6.658986083984375,-1.2636915445327759,-1.6279730796813965,-1.2255216836929321
1772537178728034000,6.669033935546875,-1.362181544303894,-1.6474047899246216,-1.3257700204849243
1772537178738083000,6.6790830078125,-1.3152167797088623,-1.2992782592773438,-1.3933144807815552
1772537178748131000,6.689131103515625,-1.1537703275680542,-0.7941559553146362,-1.3563135862350464
1772537178758179000,6.699178955078125,-0.889439582824707,-0.4130259156227112,-1.2235608100891113
1772537178768227000,6.70922705078125,-0.5457552075386047,-0.21833206713199615,-1.045989751815796
1772537178778275800,6.71927587890625,-0.18734033405780792,-0.1554894596338272,-0.8540807962417603
1772537178788324000,6.729323974609375,0.06490283459424973,-0.1642930656671524,-0.6572327613830566
1772537178798372000,6.7393720703125,0.15517467260360718,-0.19169379770755768,-0.4989842474460602
1772537178808420000,6.749420166015625,0.13993233442306519,-0.2342069000005722,-0.4096626043319702
1772537178818469000,6.75946923828125,0.034216027706861496,-0.26989245414733887,-0.3575328290462494
1772537178828516900,6.769516845703125,-0.16255109012126923,-0.2493927776813507,-0.25579315423965454
1772537178838565000,6.779565185546875,-0.38096198439598083,-0.1335199773311615,-0.08655113726854324
1772537178848614000,6.78961376953125,-0.5322375297546387,0.04183027148246765,0.1123180165886879
1772537178858662100,6.799662109375,-0.5516999363899231,0.13843457400798798,0.2918206751346588
1772537178868710100,6.809710205078125,-0.4814598262310028,0.110038623213768,0.39571139216423035
1772537178878758100,6.819758056640625,-0.3772977590560913,0.011348527856171131,0.41713863611221313
1772537178888807200,6.82980712890625,-0.25481152534484863,-0.06441307812929153,0.3330293595790863
1772537178898855000,6.83985498046875,-0.18862344324588776,-0.10069917887449265,0.17340001463890076
1772537178908903200,6.849903076171875,-0.18683698773384094,-0.19039790332317352,-0.02333941124379635
1772537178918952000,6.859951904296875,-0.21235407888889313,-0.3663889169692993,-0.2142438441514969
1772537178929000200,6.870000244140625,-0.22419634461402893,-0.518612802028656,-0.354268878698349
1772537178939048000,6.8800478515625,-0.20480027794837952,-0.46634188294410706,-0.4257582426071167
1772537178949096000,6.890095947265625,-0.08940311521291733,-0.35327017307281494,-0.4802060127258301
1772537178959145000,6.90014501953125,-0.006744189187884331,-0.3530299663543701,-0.38152045011520386
1772537178969193000,6.91019287109375,0.014482003636658192,-0.14683765172958374,-0.03310548886656761
1772537178979241200,6.9202412109375,0.10375196486711502,0.06475050002336502,0.3561650216579437
1772537178989289000,6.9302890625,0.21086136996746063,0.14459766447544098,0.673880398273468
1772537178999338200,6.940338134765625,0.2785530686378479,0.12380343675613403,0.9187799096107483
1772537179009386000,6.950385986328125,0.3093447983264923,0.05895466357469559,1.0881491899490356
1772537179019434000,6.96043408203125,0.3305318355560303,-0.021952969953417778,1.1297882795333862
1772537179029483000,6.97048291015625,0.3340376317501068,-0.10403931885957718,1.0205914974212646
1772537179039531000,6.980531005859375,0.2956894338130951,-0.07260043174028397,0.8229332566261292
1772537179049579300,6.990579345703125,0.27850353717803955,0.01798991858959198,0.6165934205055237
1772537179059627000,7.000626953125,0.29007336497306824,0.12583942711353302,0.46695441007614136
1772537179069676300,7.01067626953125,0.34209102392196655,0.34911778569221497,0.4307146370410919
1772537179079724000,7.02072412109375,0.4434994161128998,0.6748895049095154,0.4848353862762451
1772537179089772000,7.03077197265625,0.5573951005935669,0.9887866973876953,0.573374330997467
1772537179099821000,7.040821044921875,0.6411097049713135,1.2144291400909424,0.6373740434646606
1772537179109868800,7.050868896484375,0.6998385190963745,1.3211846351623535,0.6506012082099915
1772537179119916800,7.060916748046875,0.7074410319328308,1.265721082687378,0.6125331521034241
1772537179129964800,7.07096484375,0.6362057328224182,1.0200364589691162,0.519136905670166
1772537179140013800,7.081013916015625,0.501646876335144,0.6973572373390198,0.37803012132644653
1772537179150061800,7.091061767578125,0.3439011871814728,0.3712414503097534,0.15289580821990967
1772537179160109800,7.10110986328125,0.17639607191085815,0.11191295087337494,-0.16905319690704346
1772537179170158800,7.111158935546875,-0.00824115239083767,-0.012465724721550941,-0.5699188709259033
1772537179180206800,7.121206787109375,-0.1717243492603302,-0.006901581771671772,-0.9978103041648865
1772537179190254800,7.1312548828125,-0.27793681621551514,0.11659345775842667,-1.363154411315918
1772537179200302800,7.141302734375,-0.3126649558544159,0.23574115335941315,-1.6057626008987427
1772537179210351600,7.1513515625,-0.3262569308280945,0.249237522482872,-1.7954730987548828
1772537179220399900,7.16139990234375,-0.3691607415676117,0.14731168746948242,-1.9753499031066895
1772537179230447900,7.17144775390625,-0.4184150993824005,-0.06106388568878174,-2.158406972885132
1772537179240497000,7.181496826171875,-0.48447054624557495,-0.252583771944046,-2.3063395023345947
1772537179250545000,7.191544921875,-0.5763197541236877,-0.3079381287097931,-2.345348834991455
1772537179260593000,7.201593017578125,-0.6741262078285217,-0.18852676451206207,-2.1446120738983154
1772537179270641000,7.211640869140625,-0.7805839776992798,0.004001133143901825,-1.6259934902191162
1772537179280689700,7.221689697265625,-0.8718611598014832,0.1872124969959259,-0.8512285947799683
1772537179290738000,7.231738037109375,-0.8903634548187256,0.15874198079109192,-0.07288140058517456
1772537179300785700,7.24178564453125,-0.8326953649520874,-0.06393610686063766,0.43038520216941833
1772537179310834000,7.251833984375,-0.7804715633392334,-0.4742322862148285,0.5421948432922363
1772537179320882700,7.261882568359375,-0.8364142179489136,-0.9719976186752319,0.21499672532081604
1772537179330930700,7.2719306640625,-0.9531317353248596,-1.2578271627426147,-0.40517333149909973
1772537179340979000,7.28197900390625,-0.955848217010498,-1.1378976106643677,-1.0564414262771606
1772537179351027700,7.29202783203125,-0.8406840562820435,-0.5550986528396606,-1.521148920059204
1772537179361076000,7.302075927734375,-0.6052510142326355,0.31384366750717163,-1.6499028205871582
1772537179371123700,7.312123779296875,-0.2786550521850586,1.0668468475341797,-1.3990426063537598
1772537179381172000,7.322171875,0.024213993921875954,1.403647780418396,-0.8702762722969055
1772537179391220700,7.332220703125,0.2311120480298996,1.2849664688110352,-0.19527868926525116
1772537179401268700,7.342268798828125,0.2851718068122864,0.8303014636039734,0.44629520177841187
1772537179411317000,7.35231689453125,0.14745017886161804,0.21831876039505005,0.919622004032135
1772537179421365800,7.36236572265625,-0.11800307035446167,-0.3664776086807251,1.1922115087509155
1772537179431414000,7.3724140625,-0.39520564675331116,-0.7249540090560913,1.2485463619232178
1772537179441461800,7.382461669921875,-0.5867202281951904,-0.7939990758895874,1.1409446001052856
1772537179451509800,7.392509765625,-0.672897458076477,-0.6449270844459534,0.960037350654602
1772537179461558800,7.402558837890625,-0.6221575736999512,-0.38619059324264526,0.8030897974967957
1772537179471606800,7.412606689453125,-0.45428335666656494,-0.13070714473724365,0.637424111366272
1772537179481654800,7.42265478515625,-0.22821372747421265,0.12926025688648224,0.4578775465488434
1772537179491702800,7.432702880859375,-0.003032008884474635,0.4190649092197418,0.30108848214149475
1772537179501751800,7.442751708984375,0.1660241186618805,0.6725221872329712,0.19470557570457458
1772537179511799800,7.4527998046875,0.2798321843147278,0.8424244523048401,0.20104043185710907
1772537179521847800,7.462847900390625,0.3918050527572632,0.8577101826667786,0.3675402104854584
1772537179531896800,7.472896728515625,0.49209117889404297,0.728265643119812,0.645929753780365
1772537179541944800,7.48294482421875,0.5675734281539917,0.4943617880344391,0.9847964644432068
1772537179551992800,7.492992919921875,0.6082148551940918,0.21856003999710083,1.3414920568466187
1772537179562040800,7.503040771484375,0.6223490238189697,0.0380733497440815,1.662684440612793
1772537179572089900,7.51308984375,0.6204115748405457,0.022130869328975677,1.9196972846984863
1772537179582137900,7.523137939453125,0.575557291507721,0.1566774994134903,2.1000137329101562
1772537179592185900,7.533185791015625,0.4835379123687744,0.29381856322288513,2.149188756942749
1772537179602235000,7.54323486328125,0.3523945212364197,0.4072157144546509,2.072479248046875
1772537179612283000,7.553282958984375,0.24694347381591797,0.47211721539497375,1.88400137424469
1772537179622331000,7.563330810546875,0.23707060515880585,0.50710529088974,1.6281120777130127
1772537179632379000,7.57337890625,0.3001076281070709,0.5631459355354309,1.3374253511428833
1772537179642428000,7.583427978515625,0.3971809148788452,0.6048172116279602,0.9816510081291199
1772537179652476000,7.593475830078125,0.48193681240081787,0.6303473114967346,0.5490828156471252
1772537179662523600,7.603523681640625,0.5074514746665955,0.6757848262786865,0.08176330476999283
1772537179672573000,7.613572998046875,0.5116441249847412,0.6959628462791443,-0.3441365957260132
1772537179682620700,7.62362060546875,0.537969172000885,0.6762453317642212,-0.678424060344696
1772537179692669000,7.6336689453125,0.5855135321617126,0.5520695447921753,-0.9334118366241455
1772537179702717000,7.643717041015625,0.6219910979270935,0.34275496006011963,-1.0792475938796997
1772537179712766000,7.653765869140625,0.6737738847732544,0.04225877299904823,-1.06674063205719
1772537179722814000,7.66381396484375,0.6489604115486145,-0.1746802031993866,-0.9379786252975464
1772537179732861700,7.67386181640625,0.48886263370513916,-0.20061779022216797,-0.7416272163391113
1772537179742911000,7.683910888671875,0.21198655664920807,-0.2729167640209198,-0.5713385939598083
1772537179752958700,7.693958740234375,-0.14519260823726654,-0.4874820411205292,-0.4800558090209961
1772537179763007000,7.704007080078125,-0.5385598540306091,-0.9206081628799438,-0.5299104452133179
1772537179773054700,7.7140546875,-0.9366691708564758,-1.4873994588851929,-0.7440272569656372
1772537179783104000,7.72410400390625,-1.2956148386001587,-1.899538516998291,-0.9384010434150696
1772537179793151700,7.73415185546875,-1.5638843774795532,-1.9763741493225098,-0.9219717383384705
1772537179803199700,7.74419970703125,-1.6743080615997314,-1.6659332513809204,-0.6679599285125732
1772537179813248800,7.754248779296875,-1.5631476640701294,-1.2483471632003784,-0.34719815850257874
1772537179823296800,7.764296875,-1.3331009149551392,-0.9418261051177979,-0.13117240369319916
1772537179833345000,7.774344970703125,-1.1206296682357788,-0.7443916201591492,-0.08589386940002441
1772537179843392800,7.784392822265625,-0.9984009861946106,-0.7465509176254272,-0.28021034598350525
1772537179853441800,7.79444189453125,-0.9769665002822876,-0.8055992722511292,-0.6011761426925659
1772537179863489800,7.80448974609375,-0.9781026244163513,-0.7917442321777344,-0.8210490942001343
1772537179873537800,7.814537841796875,-0.9682279229164124,-0.6422122120857239,-0.8112310767173767
1772537179883586000,7.8245859375,-0.905430018901825,-0.32707133889198303,-0.5439008474349976
1772537179893634800,7.834634765625,-0.7497842311859131,0.06295233219861984,-0.07000358402729034
1772537179903682800,7.844682861328125,-0.5643965601921082,0.2544647753238678,0.49498337507247925
1772537179913730800,7.854730712890625,-0.40344786643981934,0.18925487995147705,1.0271297693252563
1772537179923779800,7.86477978515625,-0.27300116419792175,0.007637413218617439,1.4349713325500488
1772537179933827800,7.874827880859375,-0.1961018592119217,-0.13004721701145172,1.6726787090301514
1772537179943875800,7.884875732421875,-0.17504078149795532,-0.09494595229625702,1.766019344329834
1772537179953923800,7.894923828125,-0.2139117568731308,0.14656519889831543,1.748608112335205
1772537179963972900,7.904972900390625,-0.29316583275794983,0.4317745864391327,1.6537854671478271
1772537179974020600,7.9150205078125,-0.364056795835495,0.6566159725189209,1.4863147735595703
1772537179984068900,7.92506884765625,-0.3820352554321289,0.7901705503463745,1.2393267154693604
1772537179994116900,7.935116943359375,-0.28248947858810425,0.8231250047683716,0.929931640625
1772537180004166000,7.945165771484375,-0.09079355001449585,0.7947032451629639,0.6626413464546204
1772537180014214000,7.9552138671875,0.13350878655910492,0.7404817938804626,0.5131834149360657
1772537180024261600,7.96526171875,0.3342032730579376,0.7100011110305786,0.5040831565856934
1772537180034311000,7.975310791015625,0.48584845662117004,0.7212396860122681,0.6114319562911987
1772537180044358700,7.985358642578125,0.5726464986801147,0.7585161924362183,0.7760065197944641
1772537180054407000,7.995406982421875,0.5947467088699341,0.8369777202606201,0.9144536256790161
1772537180064455000,8.005454833984375,0.5728201270103455,0.8745823502540588,1.0038713216781616
1772537180074504000,8.01550390625,0.5053073763847351,0.7585766911506653,1.068448781967163
1772537180084552000,8.025552001953125,0.3862318694591522,0.43562230467796326,1.1075551509857178
1772537180094599700,8.035599609375,0.20513983070850372,-0.02490348555147648,1.0944803953170776
1772537180104648700,8.045648681640625,-0.05044080317020416,-0.3550070822238922,1.1643580198287964
1772537180114697500,8.055697509765626,-0.17106229066848755,-0.5290542840957642,1.2606538534164429
1772537180124745700,8.065745849609375,-0.35610565543174744,-0.6558753252029419,1.2784241437911987
1772537180134793500,8.07579345703125,-0.4978681206703186,-0.6565456390380859,1.2781535387039185
1772537180144842800,8.0858427734375,-0.4851571023464203,-0.5390040874481201,1.2223142385482788
1772537180154890500,8.095890380859375,-0.3520379364490509,-0.4670681059360504,0.9949564337730408
1772537180164938800,8.105938720703126,-0.1376263052225113,-0.3817761242389679,0.6347439289093018
1772537180174987500,8.115987548828125,0.10771740972995758,-0.3448426127433777,0.15912280976772308
1772537180185035500,8.126035400390625,0.3320455849170685,-0.38415059447288513,-0.435158908367157
1772537180195083500,8.13608349609375,0.4947415590286255,-0.3902178108692169,-1.083457589149475
1772537180205131500,8.146131591796875,0.5698938369750977,-0.3879903554916382,-1.7313013076782227
1772537180215180500,8.1561806640625,0.4960789978504181,-0.42180317640304565,-2.3173179626464844
1772537180225228500,8.166228515625,0.37091708183288574,-0.4474124014377594,-2.6868956089019775
1772537180235276500,8.176276611328126,0.27001070976257324,-0.03681420534849167,-2.511847972869873
1772537180245325600,8.18632568359375,0.15614593029022217,0.3485020697116852,-2.0423097610473633
1772537180255373600,8.19637353515625,-0.0331725999712944,0.5085146427154541,-1.4884772300720215
1772537180265421600,8.206421630859374,-0.2725212574005127,0.38693732023239136,-1.0218676328659058
1772537180275469600,8.216469482421875,-0.5177454352378845,-0.05156199261546135,-0.7334864735603333
1772537180285518600,8.2265185546875,-0.7777929902076721,-0.7057366371154785,-0.6669594049453735
1772537180295566600,8.236566650390625,-1.043438196182251,-1.1924597024917603,-0.7710298895835876
1772537180305614600,8.246614501953125,-1.2424280643463135,-1.2452030181884766,-0.9354534149169922
1772537180315662600,8.25666259765625,-1.3040906190872192,-0.9978252053260803,-1.0808396339416504
1772537180325711600,8.266711669921875,-1.260265588760376,-0.6999421119689941,-1.1526185274124146
1772537180335759600,8.276759521484376,-1.0533102750778198,-0.2028748095035553,-1.1734532117843628
1772537180345807600,8.2868076171875,-0.7138829827308655,0.03994901478290558,-1.1410273313522339
1772537180355856600,8.296856689453126,-0.4270296096801758,0.04152613878250122,-1.1698163747787476
1772537180365904600,8.306904541015625,-0.22900521755218506,0.015225824899971485,-1.1309974193572998
1772537180375952400,8.316952392578125,-0.10200519114732742,-0.007393734063953161,-0.9662368893623352
1772537180386000600,8.327000732421874,-0.08645819127559662,0.0423453263938427,-0.7141934633255005
1772537180396049400,8.33704931640625,-0.16287493705749512,0.09487245231866837,-0.41926437616348267
1772537180406097700,8.34709765625,-0.30544352531433105,0.15343402326107025,-0.11469142884016037
1772537180416145700,8.357145751953125,-0.43307846784591675,0.2074301540851593,0.18968258798122406
1772537180426194700,8.367194580078126,-0.49611467123031616,0.23923255503177643,0.46045202016830444
1772537180436242700,8.37724267578125,-0.5152247548103333,0.26696884632110596,0.6891466975212097
1772537180446290400,8.38729052734375,-0.49473223090171814,0.17949599027633667,0.8694019913673401
1772537180456338700,8.397338623046876,-0.43490299582481384,-0.07317834347486496,0.9832212328910828
1772537180466387500,8.407387451171875,-0.34974947571754456,-0.2870064675807953,1.0057859420776367
1772537180476435700,8.417435791015626,-0.19722998142242432,-0.40855979919433594,0.8978642225265503
1772537180486483500,8.4274833984375,0.030398119240999222,-0.4560658037662506,0.6699661016464233
1772537180496531500,8.437531494140625,0.2681105434894562,-0.3942956328392029,0.33255159854888916
1772537180506580500,8.44758056640625,0.44317877292633057,-0.20280131697654724,-0.05553596466779709
1772537180516628500,8.45762841796875,0.522952675819397,0.08713969588279724,-0.4357839524745941
1772537180526676700,8.4676767578125,0.5155576467514038,0.3475574254989624,-0.7753870487213135
1772537180536725500,8.4777255859375,0.4632438123226166,0.48216745257377625,-0.976781964302063
1772537180546773800,8.487773681640626,0.3986637592315674,0.5532024502754211,-0.9638475179672241
1772537180556821500,8.497821533203124,0.3526832163333893,0.5338242650032043,-0.7465003132820129
1772537180566869500,8.507869384765625,0.35830169916152954,0.43233489990234375,-0.35010582208633423
1772537180576918500,8.51791845703125,0.3775358498096466,0.17274780571460724,0.14322108030319214
1772537180586966500,8.527966552734375,0.37874144315719604,-0.10359057039022446,0.604245662689209
1772537180597014800,8.538014892578126,0.3695061504840851,-0.3002631664276123,0.957061231136322
1772537180607063600,8.5480634765625,0.38547179102897644,-0.3415139317512512,1.170454978942871
1772537180617111800,8.55811181640625,0.4056556224822998,-0.23781388998031616,1.234338641166687
1772537180627159600,8.56815966796875,0.39774736762046814,-0.0013614079216495156,1.1745195388793945
1772537180637207600,8.57820751953125,0.3681631088256836,0.2974497973918915,1.0519254207611084
1772537180647256600,8.588256591796876,0.34027713537216187,0.5980029702186584,0.9297710657119751
1772537180657304600,8.5983046875,0.32706040143966675,0.8437693119049072,0.82390296459198
1772537180667352600,8.6083525390625,0.29329100251197815,0.9601387977600098,0.7235550284385681
1772537180677401600,8.618401611328125,0.23048673570156097,0.8757206201553345,0.6747786998748779
1772537180687449300,8.628449462890625,0.14799559116363525,0.6770461201667786,0.6714886426925659
1772537180697497600,8.63849755859375,0.045648444443941116,0.4357629120349884,0.6362006664276123
1772537180707545600,8.648545654296875,-0.06070223078131676,0.2203720510005951,0.5657787322998047
1772537180717594600,8.6585947265625,-0.12938489019870758,0.07281721383333206,0.47450658679008484
1772537180727642600,8.668642578125,-0.13766784965991974,-0.00908643938601017,0.3568108379840851
1772537180737690600,8.678690673828125,-0.09465274214744568,-0.005848035216331482,0.15032106637954712
1772537180747738600,8.688738525390624,-0.028555745258927345,0.0753868967294693,-0.1561533808708191
1772537180757787400,8.698787353515625,0.029568545520305634,0.13417138159275055,-0.5502029657363892
1772537180767835600,8.708835693359376,0.050277285277843475,0.11037977039813995,-1.011889934539795
1772537180777883600,8.718883544921875,0.054725829511880875,0.08340407907962799,-1.4140650033950806
1772537180787932700,8.7289326171875,0.03916497901082039,0.05805424973368645,-1.6476327180862427
1772537180797980700,8.738980712890625,-0.03664536401629448,-0.15447106957435608,-1.6371692419052124
1772537180808028400,8.7490283203125,-0.12438959628343582,-0.5212370753288269,-1.404780387878418
1772537180818076700,8.75907666015625,-0.06027692183852196,-0.8484530448913574,-1.0873734951019287
1772537180828125400,8.76912548828125,0.15110695362091064,-1.2392804622650146,-1.0274691581726074
1772537180838173700,8.779173583984376,0.41664010286331177,-1.7624621391296387,-1.5558735132217407
1772537180848221400,8.789221435546875,0.42278027534484863,-1.240671992301941,-1.9284132719039917
1772537180858270700,8.799270751953125,0.349260538816452,-0.5875436663627625,-2.0568299293518066
1772537180868318500,8.809318359375,0.3702569007873535,-0.04261723533272743,-1.984346866607666
1772537180878366500,8.819366455078125,0.4243645966053009,0.2925831377506256,-1.7317728996276855
1772537180888414700,8.829414794921876,0.4558700621128082,0.28072142601013184,-1.3946095705032349
1772537180898463500,8.83946337890625,0.4668726325035095,0.06307563930749893,-1.0815097093582153
1772537180908511700,8.84951171875,0.3452514111995697,-0.15059243142604828,-0.8967776894569397
1772537180918559500,8.8595595703125,0.09332089126110077,-0.21628569066524506,-0.7871992588043213
1772537180928608800,8.86960888671875,-0.14334064722061157,-0.13089916110038757,-0.6510970592498779
1772537180938656500,8.879656494140624,-0.2723156809806824,0.06295100599527359,-0.4567480981349945
1772537180948704500,8.88970458984375,-0.313138484954834,0.2815163731575012,-0.17738303542137146
1772537180958752500,8.89975244140625,-0.2763309180736542,0.4263816773891449,0.154178649187088
1772537180968801500,8.909801513671875,-0.20615370571613312,0.45707061886787415,0.45905253291130066
1772537180978849500,8.919849609375,-0.1427009552717209,0.42918625473976135,0.6454628705978394
1772537180988897500,8.9298974609375,-0.08459770679473877,0.38352635502815247,0.7011791467666626
1772537180998945500,8.939945556640625,-0.04078631103038788,0.31710657477378845,0.6650190353393555
1772537181008994600,8.94999462890625,-0.00034727618913166225,0.2429327517747879,0.6318114995956421
1772537181019042600,8.96004248046875,0.03693244978785515,0.17214566469192505,0.617235004901886
1772537181029090600,8.970090576171875,0.08325360715389252,0.1430138796567917,0.6217780709266663
1772537181039139600,8.9801396484375,0.14050278067588806,0.13954457640647888,0.5899090766906738
1772537181049187600,8.9901875,0.184157595038414,0.10765162855386734,0.516814112663269
1772537181059235600,9.000235595703124,0.24324913322925568,0.08664381504058838,0.42224472761154175
1772537181069283600,9.01028369140625,0.32763272523880005,0.08529146015644073,0.32873180508613586
1772537181079332600,9.02033251953125,0.39409562945365906,0.17805548012256622,0.2832394242286682
1772537181089380600,9.030380615234375,0.3722244203090668,0.33844277262687683,0.33340752124786377
1772537181099428600,9.0404287109375,0.349488228559494,0.3003512918949127,0.4920395016670227
1772537181109477600,9.0504775390625,0.3387221395969391,0.07462923228740692,0.7018095254898071
1772537181119525600,9.060525634765625,0.3264300525188446,-0.07317061722278595,0.8752657175064087
1772537181129573600,9.07057373046875,0.24751286208629608,-0.013440441340208054,1.0791312456130981
1772537181139621600,9.08062158203125,0.18403907120227814,0.035040274262428284,1.2920634746551514
1772537181149670700,9.090670654296876,0.1346944272518158,-0.011691809631884098,1.4746417999267578
1772537181159718400,9.100718505859374,0.07436531037092209,-0.10825696587562561,1.5781735181808472
1772537181169766700,9.1107666015625,0.04831426963210106,-0.11903957277536392,1.5745426416397095
1772537181179814700,9.120814697265626,0.049263954162597656,-0.12237677723169327,1.49958336353302
1772537181189863700,9.13086376953125,0.07330191135406494,-0.11078803241252899,1.3658082485198975
1772537181199911700,9.14091162109375,0.1520201563835144,-0.0004498079069890082,1.2314536571502686
