time,seconds_elapsed,z,y,x
1772462707677949400,0.081949462890625,0.01895662940442562,-0.11451591189820319,0.06973941625636071
1772462707687997700,0.091997802734375,-0.05046937352120876,-0.11014570659049785,0.07044986608065665
1772462707698046500,0.10204638671875,-0.10104279193878173,-0.09056870766486973,0.0622539924044162
1772462707708094700,0.1120947265625,-0.03669569971263408,-0.08773930205837822,0.04996109520550817
1772462707718142500,0.122142578125,0.04246259267628193,-0.08765082005732693,0.05278554150909185
1772462707728191500,0.13219140625,0.029146599507331845,-0.08712130715735256,0.06095114791123196
1772462707738239500,0.142239501953125,-0.034895372292399404,-0.09059094689614139,0.06900412425175309
1772462707748287500,0.15228759765625,-0.04746493100821972,-0.09320828065453096,0.05627754834331572
1772462707758336500,0.16233642578125,-0.01035363623201847,-0.08915519673828966,0.058744194185175
1772462707768384500,0.172384521484375,0.0328869550794363,-0.09301574462396092,0.06286478124652058
1772462707778432500,0.1824326171875,-0.009010989451408385,-0.10406345493420958,0.06260994796892627
1772462707788481500,0.1924814453125,-0.07545125456452369,-0.09751404242389834,0.0570139363264665
1772462707798529500,0.202529541015625,-0.04597206210196018,-0.09261363009647465,0.06391474695717915
1772462707808577500,0.21257763671875,0.00490472317636013,-0.09744560769703238,0.07170476151257753
1772462707818625500,0.22262548828125,0.013881810358166694,-0.10227163048083894,0.06179094146993011
1772462707828674600,0.232674560546875,-0.03370119407176971,-0.09369476726353168,0.05617392357205972
1772462707838722600,0.24272265625,-0.06587269435822964,-0.0934270471049007,0.06293391922628506
1772462707848770600,0.2527705078125,-0.0295101721227169,-0.08564809279963374,0.06954878905508667
1772462707858819600,0.262819580078125,0.01881985128223896,-0.08721424613781273,0.06972209979537874
1772462707868867600,0.27286767578125,-0.010061959809064864,-0.09500785002293996,0.05558867103001103
1772462707878915600,0.28291552734375,-0.06258651229441166,-0.10032870711898431,0.05865901838606223
1772462707888964400,0.29296435546875,-0.04538052594959736,-0.09601626901365816,0.0646947548863478
1772462707899012600,0.3030126953125,-0.011719663888216018,-0.09365406079380773,0.0685444708507508
1772462707909060400,0.313060302734375,-0.0012485387563705443,-0.08875806891317478,0.07063647469393909
1772462707919109600,0.323109619140625,-0.03372106781601906,-0.09412990727778524,0.06534328192295506
1772462707929157400,0.333157470703125,-0.056169046467542644,-0.09273122859415597,0.06643341524722055
1772462707939205600,0.34320556640625,-0.02504734749495983,-0.08275024333312175,0.050294163084775204
1772462707949254400,0.35325439453125,-0.003951952496170997,-0.08598791921325027,0.05315205500023439
1772462707959302400,0.363302490234375,-0.030587445965409278,-0.09510490805609151,0.050302163728140295
1772462707969350700,0.3733505859375,-0.040914194190502164,-0.10268429380180313,0.05994885726720094
1772462707979399400,0.3833994140625,-0.03657821081280708,-0.10047950463336892,0.06294160934239626
1772462707989447700,0.39344775390625,-0.00710544809103012,-0.09763432606901042,0.060294108774606135
1772462707999495400,0.403495361328125,-0.0050134442478418344,-0.09297549481196328,0.06541019141301513
1772462708009543400,0.41354345703125,-0.04705810377299785,-0.08598987370831891,0.05492923900689929
1772462708019592400,0.423592529296875,-0.03793079446554184,-0.08590467050974257,0.053418779645022
1772462708029640400,0.433640380859375,-0.023564415460824967,-0.08451828505210578,0.05153219871344045
1772462708039688700,0.443688720703125,-0.0018687164813280105,-0.09127112031318246,0.052234757492225614
1772462708049737500,0.453737548828125,-0.036135727742314334,-0.09955947631215677,0.06526835352322086
1772462708059785700,0.46378564453125,-0.038982349345088,-0.09597443916592746,0.07199568901685997
1772462708069833500,0.47383349609375,-0.03345101870298386,-0.09810499405437148,0.06624320817105472
1772462708079885600,0.483885498046875,-0.019086393263936043,-0.09865234400513581,0.05920350052630528
1772462708089933300,0.493933349609375,-0.012058686584234236,-0.08962797448234631,0.06349255775604397
1772462708099981300,0.503981201171875,-0.035708442240953445,-0.08914750662217848,0.0663534453461878
1772462708110030300,0.5140302734375,-0.051127545168995855,-0.09611963805658742,0.0482674795627594
1772462708120078300,0.524078369140625,-0.02285188327729702,-0.08545784919084981,0.05118605215689167
1772462708130126600,0.534126708984375,-0.009687281277775763,-0.0827071074442938,0.06122614719402045
1772462708140175400,0.54417529296875,-0.02525660633146763,-0.09035563116976991,0.06349725219747052
1772462708150223400,0.554223388671875,-0.051448447686433786,-0.09694276360827497,0.060599539728276426
1772462708160271400,0.564271240234375,-0.03873509658575058,-0.09642313278149812,0.06141299326932057
1772462708170320400,0.5743203125,-0.01644610788822174,-0.0900726860425435,0.06279153334721922
1772462708180368400,0.584368408203125,-0.017653730112314223,-0.08297309230356477,0.06609510493725537
1772462708190416400,0.59441650390625,-0.018254034093022346,-0.08628646376840769,0.05858628194341436
1772462708200465400,0.60446533203125,-0.03696399526000023,-0.08836860380470753,0.055981688935589045
1772462708210513400,0.614513427734375,-0.03323416108191013,-0.09157603981019928,0.04848612728212028
1772462708220561200,0.62456103515625,-0.009749825119972228,-0.08284733789889141,0.05578960042959079
1772462708230609400,0.634609375,-0.022472528570890424,-0.0834374401459936,0.05658566444441676
1772462708240658200,0.644658203125,-0.03729308108389377,-0.0860665648068767,0.05291135984584689
1772462708250706400,0.65470654296875,-0.02846972315907478,-0.08632076789680868,0.05392073781779035
1772462708260754400,0.66475439453125,-0.017855390164256094,-0.08142979011801071,0.05726588352723047
1772462708270803500,0.674803466796875,-0.013372691792249678,-0.07735229327972047,0.04745040929252282
1772462708280851500,0.6848515625,-0.02071077959537506,-0.07797090923525393,0.04652638978278264
1772462708290899200,0.694899169921875,-0.03687573245465755,-0.08475614892859011,0.05205927306115627
1772462708300948500,0.704948486328125,-0.018329437416791914,-0.07734732484365812,0.05754345835959539
1772462708310996200,0.714996337890625,-0.031205285602807997,-0.08283140967739745,0.06339539925819263
1772462708321044500,0.72504443359375,-0.0174456403195858,-0.07904757115659304,0.06029785336796194
1772462708331093200,0.73509326171875,-0.022243395990133284,-0.08564286863524466,0.05737199251651764
1772462708341141500,0.7451416015625,-0.024794249516725538,-0.08271471536201425,0.05486779114324599
1772462708351189200,0.755189208984375,-0.015822423031926155,-0.08030462201298214,0.05924182324269786
1772462708361238500,0.765238525390625,-0.03393441830575466,-0.08354205129793844,0.04976025713747367
1772462708371286300,0.775286376953125,-0.03558627716600895,-0.08329713662615977,0.04253700961936265
1772462708381334300,0.785334228515625,-0.019731120908260343,-0.07889884686828591,0.05323565989676863
1772462708391383300,0.79538330078125,-0.01225333237349987,-0.0770546346405521,0.052223688108939674
1772462708401431300,0.805431396484375,-0.019596096351742743,-0.07948401721194386,0.05450953402379528
1772462708411479600,0.8154794921875,-0.03396481344401836,-0.07740840738113038,0.0661047495484352
1772462708421528300,0.8255283203125,-0.02813654568195343,-0.08020303393518552,0.046990061771776524
1772462708431576300,0.835576416015625,-0.012730302235484122,-0.07577979239914566,0.04227384690484032
1772462708441624300,0.845624267578125,-0.018571429479122162,-0.08551058402508496,0.04715944525562227
1772462708451673300,0.85567333984375,-0.03189092977941036,-0.07421294494122266,0.048028611039277164
1772462708461721300,0.865721435546875,-0.048204351198673244,-0.07684642611681483,0.044341465225443244
1772462708471769300,0.875769287109375,-0.02277121925652027,-0.07657178759363013,0.05596356875700876
1772462708481817600,0.885817626953125,-0.01125379994213581,-0.07583143582141492,0.04681916218427941
1772462708491866400,0.895866455078125,-0.026377719315886495,-0.06454320845329202,0.04747400936381891
1772462708501914400,0.905914306640625,-0.03461012561023235,-0.060798660763259973,0.04460992516959086
1772462708511962400,0.91596240234375,-0.023838556227087974,-0.0692359008807456,0.05131621787520125
1772462708522011400,0.926011474609375,-0.008880641070008277,-0.07813478542692028,0.056037108917254955
1772462708532059400,0.936059326171875,-0.010530746364593505,-0.08387428806014359,0.05891889316495508
1772462708542107400,0.946107421875,-0.033279169267415996,-0.0810764923014678,0.06331530149299651
1772462708552156400,0.956156494140625,-0.03598141396343708,-0.07922806055634282,0.05506302145440131
1772462708562204400,0.966204345703125,-0.0202776488751173,-0.07880734179308638,0.04769819177482277
1772462708572252200,0.976252197265625,-0.016241525226831435,-0.07204225897178984,0.05293936209762468
1772462708582301400,0.986301513671875,-0.026268413722515104,-0.06580051503800786,0.045878045409265905
1772462708592349200,0.99634912109375,-0.026873978400230408,-0.06234400420885067,0.048458928747940805
1772462708602397400,1.0063974609375,-0.042294834893941875,-0.05984300400624051,0.04112392795104533
1772462708612446200,1.0164462890625,-0.03332067032158375,-0.05891307534552179,0.04621513187652453
1772462708622494500,1.026494384765625,-0.008037760505080222,-0.06816741769928485,0.04452047505415976
1772462708632542500,1.03654248046875,-0.01552548591196537,-0.06824691267628222,0.0514812357111834
1772462708642591500,1.046591552734375,-0.026899697363376617,-0.07479105535643175,0.05565432014474645
1772462708652639500,1.056639404296875,-0.040970892813801764,-0.07466146502685733,0.054564606945589185
1772462708662687200,1.066687255859375,-0.025263620594143867,-0.07177637914379592,0.05080258753094822
1772462708672736500,1.076736572265625,0.002112462109327316,-0.06752628851784392,0.039591238491050895
1772462708682784300,1.0867841796875,-0.013752046498656273,-0.06744356953729876,0.0457737265182659
1772462708692832500,1.09683251953125,-0.027075053930282592,-0.07173753127101809,0.05051397984791547
1772462708702881300,1.10688134765625,-0.01869943977296352,-0.06260884285722859,0.04530486689750105
1772462708712929300,1.11692919921875,-0.013617606464028358,-0.06635429472955874,0.04300824386030435
1772462708722977300,1.126977294921875,-0.027988077121973036,-0.06950820131637156,0.04087404484320432
1772462708733026300,1.1370263671875,-0.03502513615190982,-0.06709871988869272,0.04899488052185624
1772462708743074300,1.14707421875,-0.027849545434117315,-0.062412827094784004,0.045475090631563214
1772462708753122300,1.157122314453125,-0.019922259566187858,-0.07034273417806253,0.04461096634920686
1772462708763170600,1.167170654296875,-0.024414310288429258,-0.06492112468786071,0.04645860350988805
1772462708773219300,1.17721923828125,-0.03474105851352215,-0.06655944364652969,0.045985067714005706
1772462708783267300,1.187267333984375,-0.024866730231046675,-0.05888918301328085,0.04296595735484734
1772462708793315300,1.1973154296875,-0.04477262318432331,-0.06636547371069901,0.05271881468212232
1772462708803364400,1.2073642578125,-0.01978840405344963,-0.06677840645972173,0.053302825115155425
1772462708813412400,1.217412353515625,-0.006027589726448059,-0.06545730935721658,0.04769936081860214
1772462708823460400,1.22746044921875,-0.031166707158088683,-0.06586965301777235,0.04533966421624645
1772462708833509400,1.23750927734375,-0.04673252508044243,-0.07083703420076053,0.0385030048629269
1772462708843557400,1.247557373046875,-0.0320721315652132,-0.06093949400605633,0.04209821634329855
1772462708853605400,1.25760546875,-0.017263269490003584,-0.06348865789906122,0.04025788570623844
1772462708863654400,1.267654296875,-0.029687282255291936,-0.06490608238235582,0.04867114672651514
1772462708873702400,1.277702392578125,-0.02969020486474037,-0.07298225236879662,0.049770741998869925
1772462708883750400,1.28775048828125,-0.03358545873761177,-0.058383251918293536,0.05559113698173314
1772462708893799400,1.29779931640625,-0.02416238135397434,-0.05625292535871267,0.045576011989079415
1772462708903847400,1.307847412109375,-0.02132861923277378,-0.06381968908486887,0.03657927025873214
1772462708913895400,1.3178955078125,-0.029410218879580497,-0.06602746936141048,0.03703896019235253
1772462708923944400,1.3279443359375,-0.04243278205990791,-0.06798637117710896,0.039576643710117786
1772462708933992400,1.337992431640625,-0.03345686392188072,-0.0607708046419546,0.04354498108550906
1772462708944040200,1.348040283203125,-0.021041618984937668,-0.06094594201315194,0.050294912003446365
1772462708954089500,1.35808935546875,-0.005334931287169456,-0.059527887342195024,0.041154944143816825
1772462708964137200,1.36813720703125,-0.03511690608859062,-0.06443402159092948,0.03813537712693214
1772462708974185500,1.378185546875,-0.03571954815685749,-0.06143420958728529,0.04816021979600191
1772462708984234200,1.388234130859375,-0.01402618726491928,-0.05312809873591177,0.048357002743426705
1772462708994282500,1.398282470703125,-0.0026566519886255264,-0.06312146855448372,0.046344347746763374
1772462709004330500,1.40833056640625,-0.03707446989715099,-0.07179159954581409,0.040938031723815944
1772462709014379300,1.418379150390625,-0.04411152892708778,-0.06348120524496771,0.041712486695032566
1772462709024427500,1.428427490234375,-0.021368951243162154,-0.062135667820950036,0.04945117292199284
1772462709034475300,1.438475341796875,-0.010000585010647774,-0.05918828469086438,0.03704856827091425
1772462709044524500,1.448524658203125,-0.018982932889461516,-0.06590882968411314,0.03767703890018165
1772462709054572300,1.458572265625,-0.030961539974808692,-0.057006460839486676,0.04699700296921655
1772462709064620300,1.468620361328125,-0.02931903346478939,-0.05831158405472524,0.04283343528266996
1772462709074669600,1.478669677734375,-0.03037175738811493,-0.05425806631364394,0.03864381983941421
1772462709084717600,1.488717529296875,-0.022446809607744214,-0.05860669911035802,0.044593174964189526
1772462709094765600,1.498765625,-0.020804303097724915,-0.06940891479351557,0.04629064479814842
1772462709104814600,1.508814697265625,-0.029788989064097403,-0.059674374007643194,0.04306211120570078
1772462709114862600,1.518862548828125,-0.009740472769737243,-0.05539101586632896,0.04297275242181495
1772462709124910600,1.52891064453125,-0.022162731969356534,-0.05307576576047577,0.04591192941255867
1772462709134958600,1.53895849609375,-0.02605681679844856,-0.045759465097473,0.03771192755047232
1772462709145007600,1.549007568359375,-0.048503626406192775,-0.051116475785709915,0.040813254566676914
1772462709155055600,1.5590556640625,-0.02426350364089012,-0.06190837100425269,0.03243338435934856
1772462709165103600,1.569103515625,-0.01573942092359066,-0.061433757496136235,0.034011355999484655
1772462709175152600,1.579152587890625,-0.003324760508537292,-0.059098551447642964,0.047171939411014316
1772462709185200600,1.58920068359375,-0.03175473617911339,-0.05960278377588838,0.04667043789597228
1772462709195248600,1.59924853515625,-0.036844168272614476,-0.06007389015266672,0.04092738246563822
1772462709205297700,1.609297607421875,-0.016195932519435883,-0.053993209398956965,0.04670019371341914
1772462709215345700,1.619345703125,-0.02023965495228767,-0.05377509596913587,0.036252650386560704
1772462709225393400,1.629393310546875,-0.030568741264939307,-0.05750447348949965,0.03776203203620389
1772462709235442700,1.639442626953125,-0.04149637799263,-0.05140818874128163,0.04392435405822471
1772462709245490400,1.649490478515625,-0.031626725885272024,-0.055839709481899626,0.047747602140810336
1772462709255538700,1.65953857421875,-0.025201076751947403,-0.055462400602106936,0.043250254188943654
1772462709265587500,1.66958740234375,-0.024007483053207396,-0.06361976433228701,0.048098023013677445
1772462709275635700,1.6796357421875,-0.022514029625058173,-0.06071655370406806,0.04562039912007749
1772462709285683700,1.68968359375,-0.025364742881059645,-0.06540290772228036,0.0456485109697096
1772462709295732500,1.699732421875,-0.023874212062358856,-0.05511934105178807,0.0490600912451744
1772462709305780700,1.70978076171875,-0.030012276425957676,-0.05553914193301461,0.0408749398923479
1772462709315828500,1.719828369140625,-0.038244682720303534,-0.056169795386213806,0.04263131857300177
1772462709325877800,1.729877685546875,-0.017003741770982742,-0.05362138497845735,0.03788827049806714
1772462709335925500,1.739925537109375,-0.018351649248600006,-0.05248907931316644,0.03132531351959333
1772462709345973800,1.749973876953125,-0.03900982187390327,-0.05355420606033876,0.04270520579311996
1772462709356022500,1.7600224609375,-0.013726327535510062,-0.05290775224980898,0.04491931991232559
1772462709366070500,1.770070556640625,-0.018368600383400917,-0.050113838081806895,0.037810894412919877
1772462709376118800,1.780118896484375,-0.029599603971838948,-0.05045886126034893,0.03753132855286821
1772462709386167600,1.79016748046875,-0.03229717249274253,-0.057929251939943055,0.03425764064444229
1772462709396215600,1.800215576171875,-0.027815058642625807,-0.048862431514915074,0.03922529125548899
1772462709406263600,1.810263671875,-0.023180969101190566,-0.045695770477806215,0.042965920822229234
1772462709416312600,1.8203125,-0.017651392024755477,-0.04923057984071783,0.04410073353843763
1772462709426360600,1.830360595703125,-0.030976153022050857,-0.04458371758267749,0.04432288838913664
1772462709436408600,1.84040869140625,-0.037567806372046465,-0.048040338009689,0.03178239137101918
1772462709446457600,1.85045751953125,-0.035627778220176695,-0.04730744345814455,0.04355553901214152
1772462709456505600,1.860505615234375,-0.02994505640864372,-0.0462428281676257,0.042551768797077234
1772462709466553600,1.8705537109375,-0.022767712125182152,-0.05021003759843297,0.03401583124520257
1772462709476602600,1.8806025390625,-0.0323509485065937,-0.046311308560264296,0.03349529623612761
1772462709486650600,1.890650634765625,-0.029516601863503453,-0.046426555270655076,0.029279706101398913
1772462709496698600,1.90069873046875,-0.021588146951794625,-0.048885506429825906,0.029672961468994615
1772462709506747600,1.91074755859375,-0.018450433447957038,-0.05122462603503372,0.0353594644065015
1772462709516795600,1.920795654296875,-0.027880525094270706,-0.053264264936745166,0.036323067007958884
1772462709526843600,1.93084375,-0.02145136882960796,-0.05210727692134678,0.04245095703741535
1772462709536892700,1.940892578125,-0.020708441507816314,-0.05718476741530466,0.03824523070957511
1772462709546940700,1.950940673828125,-0.01681961737573147,-0.05535920965569093,0.03668168945359066
1772462709556988700,1.96098876953125,-0.03657704176902771,-0.050251118527492505,0.03591313450019806
1772462709567037700,1.97103759765625,-0.03014554741680622,-0.05310878211408853,0.029397578593716025
1772462709577085700,1.981085693359375,-0.013090952241420746,-0.04659790694930125,0.02434018560629338
1772462709587133700,1.9911337890625,-0.027907413101196286,-0.0432872160653118,0.03760530710453167
1772462709597182500,2.001182373046875,-0.028659108251333235,-0.040916641875915226,0.04059413192328065
1772462709607230700,2.011230712890625,-0.029109190106391906,-0.04958255791643169,0.04295402945503592
1772462709617278500,2.021278564453125,-0.031655951979756354,-0.05088341594850644,0.0256604561583139
1772462709627327700,2.03132763671875,-0.03151040602922439,-0.04808197149459738,0.0252280743567273
1772462709637375500,2.04137548828125,-0.018643910193443296,-0.04983288398226723,0.0322121793567203
1772462709647423500,2.051423583984375,-0.020440730482339856,-0.05466344137729611,0.039246370576135815
1772462709657472500,2.061472412109375,-0.028371523481607437,-0.050482333467481655,0.0354199076231569
1772462709667520500,2.0715205078125,-0.039599604460597036,-0.046516745171602814,0.03961266487156972
1772462709677568800,2.08156884765625,-0.029126141241192817,-0.04937024403973482,0.03402198699135333
1772462709687617500,2.091617431640625,-0.026283611291646955,-0.047547229863656684,0.03745207103788852
1772462709697665800,2.101665771484375,-0.028975334593653677,-0.048827241470525036,0.03860544232409447
1772462709707713500,2.111713623046875,-0.02314239065647125,-0.04390993737380486,0.03852897955439984
1772462709717762800,2.1217626953125,-0.017611060014367103,-0.05218543389120604,0.03371041855784133
1772462709727810600,2.131810546875,-0.02404781506359577,-0.04122033753022551,0.0327627076452598
1772462709737858600,2.141858642578125,-0.03033843964040279,-0.04872150694057345,0.032700054205209016
1772462709747907600,2.151907470703125,-0.0261509248226881,-0.05138878535449039,0.03699716687723994
1772462709757955600,2.16195556640625,-0.02974281183481216,-0.047319649919169024,0.03207406779397279
1772462709768003600,2.172003662109375,-0.03184066089689731,-0.05082488612772431,0.03709907461544498
1772462709778052600,2.182052490234375,-0.027055180186033246,-0.0457718039892381,0.040609512155503034
1772462709788100600,2.1921005859375,-0.029449381846189497,-0.050207270252611486,0.029245146244671193
1772462709798148600,2.202148681640625,-0.025562311279773712,-0.047959176231990565,0.03241679855072871
1772462709808197400,2.212197265625,-0.03200081989467144,-0.04666601288260426,0.02692835720228031
1772462709818245600,2.22224560546875,-0.03634264849126339,-0.045740102809877135,0.03721285545453429
1772462709828293600,2.232293701171875,-0.029463994893431662,-0.04480340191507712,0.03378185809254646
1772462709838342700,2.2423427734375,-0.007473696881532668,-0.039884357952419666,0.03460502931000665
1772462709848390700,2.252390625,-0.01540916605591774,-0.05037539792770985,0.03687770521603524
1772462709858438700,2.262438720703125,-0.03696107265055179,-0.05004456310472451,0.037793797147646545
1772462709868487700,2.27248779296875,-0.03786298992633819,-0.05203623467886354,0.035709264224860815
1772462709878535400,2.282535400390625,-0.02784019308388233,-0.04775663026405964,0.030717392488010226
1772462709888583700,2.292583740234375,-0.011831307569146155,-0.04874810725313145,0.028992742386180905
1772462709898632400,2.302632568359375,-0.024555180063843725,-0.03406551560582593,0.034229090403392906
1772462709908680700,2.3126806640625,-0.03936871831417083,-0.0426604579025181,0.02680432896381244
1772462709918728700,2.322728759765625,-0.02799918303787708,-0.05024301285285037,0.036880207700375464
1772462709928777700,2.33277783203125,-0.016782207974791526,-0.04275714147633407,0.03996969814831391
1772462709938825700,2.34282568359375,-0.014841010779142379,-0.045425620900071226,0.03461058226795867
1772462709948873500,2.35287353515625,-0.03204875068962574,-0.04073960024199914,0.02750222983378917
1772462709958921700,2.362921630859375,-0.02830897963941097,-0.051071216438454574,0.025843849901203066
1772462709968970500,2.372970458984375,-0.02262567330598831,-0.0434023120786529,0.03459666334046051
1772462709979018800,2.383018798828125,-0.02008475665152073,-0.049683387942402624,0.031520452499203384
1772462709989066500,2.39306640625,-0.010210428369045257,-0.043009559034556145,0.03956804027855396
1772462709999115800,2.40311572265625,-0.025773908203840255,-0.044316618478554295,0.035326329321879894
1772462710009163500,2.41316357421875,-0.03610299451649189,-0.04263043722358998,0.03760826624659821
1772462710019211500,2.42321142578125,-0.0266781635671854,-0.0389678276293911,0.04012160077439621
1772462710029260500,2.433260498046875,-0.01874970865547657,-0.042765000555804,0.03378954820865765
1772462710039308500,2.44330859375,-0.02369067218899727,-0.04849117334999609,0.029267230212315917
1772462710049356800,2.453356689453125,-0.031627894929051395,-0.03982749493233859,0.03304680354995653
1772462710059405600,2.463405517578125,-0.02489654084742069,-0.039602495104004626,0.027291308763157576
1772462710069453800,2.473453857421875,-0.02833937477767467,-0.04614384760544635,0.03625248598977923
1772462710079497500,2.48349755859375,-0.030288170757889747,-0.04401590479919687,0.04170843157442286
1772462710089546500,2.49354638671875,-0.025503274568915366,-0.04377821445264853,0.034894495509564874
1772462710099594500,2.503594482421875,-0.03194061414003372,-0.04179903246732428,0.03178805392682552
1772462710109643500,2.5136435546875,-0.02640577636659145,-0.04001833219616674,0.03205318940272554
1772462710119691500,2.52369140625,-0.026859365352988242,-0.040286189352115614,0.02802219858728349
1772462710129739500,2.533739501953125,-0.034193946024775504,-0.04235274822679348,0.02918468476170674
1772462710139787500,2.54378759765625,-0.026267244678735733,-0.03737119695455767,0.02619472743179649
1772462710149836500,2.55383642578125,-0.023576105898618697,-0.03911020437530242,0.03870526770306751
1772462710159884500,2.563884521484375,-0.026719664621353147,-0.038660825773142275,0.030183450008090584
1772462710169932500,2.5739326171875,-0.033006197544932364,-0.04723875756952911,0.026698585300706325
1772462710179981600,2.583981689453125,-0.02029343096613884,-0.040599986275332046,0.02724146000575274
1772462710190029600,2.594029541015625,-0.014458148941397667,-0.03597452756492421,0.02136871378114447
1772462710200077600,2.60407763671875,-0.030022797819972035,-0.03597686565248295,0.03217055043838918
1772462710210126600,2.614126708984375,-0.026434417939186095,-0.04987171815531328,0.034898532363865524
1772462710220174600,2.624174560546875,-0.028383213919401167,-0.04292705468314234,0.034480343484412874
1772462710230222300,2.634222412109375,-0.030485154634714125,-0.03917275278407614,0.03346760451160371
1772462710240271600,2.644271728515625,-0.034227848294377326,-0.03866830126012209,0.031155290714930742
1772462710250319400,2.6543193359375,-0.031233342653512953,-0.04358889785904903,0.03442201915960759
1772462710260367600,2.66436767578125,-0.020610826352238654,-0.044385948254563844,0.03856116479095072
1772462710270416400,2.67441650390625,-0.010437807384133338,-0.03958766286105383,0.03237308727316558
1772462710280464600,2.684464599609375,-0.01987199068367481,-0.042167801847634835,0.02240308006387204
1772462710290512600,2.6945126953125,-0.038430560681223865,-0.03586120338356122,0.026662198813073336
1772462710300561400,2.7045615234375,-0.031548984473943706,-0.04632897208111826,0.028869627463165667
1772462710310609700,2.714609619140625,-0.022125322568416594,-0.044780249368352815,0.039667390733491625
1772462710320657400,2.724657470703125,-0.022874679630994797,-0.049298137784749264,0.031571232838369906
1772462710330706700,2.734706787109375,-0.03245090174973011,-0.044504542266088534,0.034473840678390114
1772462710340754400,2.74475439453125,-0.04158464079797268,-0.0359560009609675,0.03368736647581681
1772462710350802400,2.754802490234375,-0.019890110862255096,-0.043015984208765436,0.027427739825472235
1772462710360851500,2.7648515625,-0.018847908332943916,-0.043516887502186,0.028945962368696926
1772462710370899500,2.7748994140625,-0.024386837759613988,-0.03275424577759113,0.02888151883035898
1772462710380947700,2.78494775390625,-0.04084989678263664,-0.03651088576421607,0.0271578185766004
1772462710390996500,2.79499658203125,-0.02125321590900421,-0.03357099182084203,0.030853750485088673
1772462710401044500,2.80504443359375,-0.018110826230049133,-0.039170930719748136,0.029230587996356187
1772462710411092500,2.815092529296875,-0.032626258316636084,-0.04585663729505613,0.028046876370813698
1772462710421141500,2.8251416015625,-0.03726677759885788,-0.03925628918195143,0.03755967786451801
1772462710431189500,2.835189453125,-0.031133389410376546,-0.03386513876209501,0.02587258280534297
1772462710441237500,2.845237548828125,-0.028293197548389434,-0.03627423659728374,0.016615308708976952
1772462710451286500,2.85528662109375,-0.03637596623897552,-0.03634429245907813,0.028814097883645442
1772462710461334500,2.86533447265625,-0.01916881085038185,-0.039817891420354135,0.027014628979936242
1772462710471382500,2.875382568359375,-0.014531798699498175,-0.036328647365374486,0.030108503342047333
1772462710481431600,2.885431640625,-0.030098201143741607,-0.02994147621206939,0.02637450444549322
1772462710491479600,2.8954794921875,-0.03533493275344372,-0.036534997292165645,0.019355309865809977
1772462710501527600,2.905527587890625,-0.02306757185459137,-0.038496145863877604,0.032154439553804696
1772462710511576600,2.91557666015625,-0.007508183673024177,-0.040459280896699056,0.03475832017557695
1772462710521624600,2.92562451171875,-0.020382862815260885,-0.040376991174416614,0.032175774602778255
1772462710531672600,2.935672607421875,-0.014400281274318694,-0.04010401488535571,0.02731090851277113
1772462710541721600,2.9457216796875,-0.023232407027482985,-0.04556744965671096,0.03680284988153726
1772462710551769600,2.95576953125,-0.024581483548879624,-0.04042172536528669,0.03048058805745095
1772462710561817600,2.965817626953125,-0.027428689673542974,-0.04437701146285981,0.01911291594468057
1772462710571866600,2.97586669921875,-0.028628713113069533,-0.03118204172453843,0.02263802133090794
1772462710581914400,2.985914306640625,-0.033120763835310936,-0.036765540945297104,0.025353399503137915
1772462710591962600,2.995962646484375,-0.031326866155862804,-0.04239193859286606,0.03470215127523988
1772462710602011400,3.006011474609375,-0.030281741017103195,-0.03977605243946891,0.033433117720112204
1772462710612059600,3.0160595703125,-0.024750410374999046,-0.03538409652425907,0.029240579667408017
1772462710622107400,3.026107421875,-0.021612112349271774,-0.03220417871335521,0.03207761145792901
1772462710632156700,3.03615673828125,-0.02460895607769489,-0.03517844985036645,0.026280487752798943
1772462710642204400,3.046204345703125,-0.033739772516489026,-0.03922746494626626,0.027251013285387305
1772462710652252400,3.05625244140625,-0.031500469157099725,-0.04199894808675162,0.030406116315443068
1772462710662301400,3.066301513671875,-0.022376666980981827,-0.03195821829538326,0.033878906992543485
1772462710672349400,3.076349365234375,-0.022227613899111747,-0.0421288169775391,0.03448819799730554
1772462710682397700,3.086397705078125,-0.041535540959239,-0.042785536453756504,0.025223836573027073
1772462710692446500,3.096446533203125,-0.03899462430477142,-0.031893856955436055,0.024532146248128262
1772462710702494700,3.10649462890625,-0.021488193708658218,-0.03063633117501158,0.027616430797986685
1772462710712542500,3.11654248046875,-0.02029109287858009,-0.04146038879721891,0.0162186740742065
1772462710722591700,3.126591796875,-0.020444822135567663,-0.03848961565839126,0.027139168675057588
1772462710732639500,3.136639404296875,-0.03526011395156383,-0.03633012236983049,0.033833332551456985
1772462710742687500,3.1466875,-0.033170448195934295,-0.041274017645954154,0.0285343310941942
1772462710752736500,3.156736572265625,-0.022997429227828978,-0.04414047189378179,0.03178010808238759
1772462710762784500,3.166784423828125,-0.0237502934217453,-0.03851589174396358,0.03805708772633225
1772462710772832500,3.17683251953125,-0.03961772463917732,-0.034245548347849396,0.030037100339960304
1772462710782881500,3.186881591796875,-0.03542962529957294,-0.03631459144055843,0.021323267204221338
1772462710792929500,3.196929443359375,-0.03318681480884552,-0.02789128395030275,0.0274204150355421
1772462710802977500,3.2069775390625,-0.022266776865720747,-0.02920823460065294,0.03358189680734649
1772462710813026300,3.2170263671875,-0.027208909443020818,-0.03691218287437223,0.021351945309434083
1772462710823074600,3.227074462890625,-0.03394493969976902,-0.04039508395353332,0.027738541074004024
1772462710833122600,3.23712255859375,-0.02271978133022785,-0.04128342936169356,0.027962358158826826
1772462710843171600,3.247171630859375,-0.02316986318528652,-0.034675601195031776,0.02931437555598095
1772462710853219600,3.257219482421875,-0.03679214582443237,-0.03441761241254862,0.02671146304858848
1772462710863267300,3.267267333984375,-0.03155716778039932,-0.03654100690784398,0.021528945844154802
1772462710873316600,3.277316650390625,-0.022429858472943303,-0.024143493990413843,0.013016115173231809
1772462710883364400,3.2873642578125,-0.031109424012899397,-0.02905564698798116,0.018874157019052654
1772462710893412600,3.29741259765625,-0.04532324280440807,-0.029575515276775693,0.014014533359743654
1772462710903461400,3.30746142578125,-0.030060791742801664,-0.03313200674853287,0.021182945418078452
1772462710913509600,3.317509521484375,-0.029313188245892522,-0.04106467661105562,0.03896545300921425
1772462710923557600,3.3275576171875,-0.021385902377963065,-0.04059471187859308,0.027516258359141645
1772462710933606700,3.337606689453125,-0.027225276055932043,-0.040120664626057255,0.026329642390459776
1772462710943654700,3.347654541015625,-0.038003275179862975,-0.03785918140090071,0.02349626386174932
1772462710953702400,3.357702392578125,-0.03980067999064922,-0.03509722414058633,0.024937694841716436
1772462710963751700,3.367751708984375,-0.029772622451186177,-0.03137308905092068,0.02595554838106036
1772462710973799400,3.37779931640625,-0.028131869506835935,-0.029346259398432446,0.01985043643899262
1772462710983847700,3.38784765625,-0.034417817908525467,-0.03058473341851495,0.021772545341681687
1772462710993896400,3.397896484375,-0.02828501424193382,-0.02262203374390956,0.027626550333201882
1772462711003944700,3.40794482421875,-0.028285598763823507,-0.02865405761688016,0.023865188505686818
1772462711013992400,3.417992431640625,-0.01930734253823757,-0.036114305928372774,0.021220373085327444
1772462711024041700,3.428041748046875,-0.026193010398745536,-0.03812502012969926,0.01849777972102165
1772462711034089500,3.43808935546875,-0.03472176929116249,-0.04239780664464924,0.03050747606437653
1772462711044137500,3.448137451171875,-0.02230535531044006,-0.03637238147582393,0.04120300280293449
1772462711054186500,3.4581865234375,-0.025295184776186943,-0.03945783963603899,0.025020916145760564
1772462711064234500,3.468234375,-0.023498364487290382,-0.03391122922641225,0.027760095318686215
1772462711074283000,3.478282958984375,-0.035170682102441786,-0.03328030177857726,0.016635310317389667
1772462711084332000,3.48833203125,-0.03337678442299366,-0.03136194660239853,0.026587544407974926
1772462711094379800,3.4983798828125,-0.015719547179341316,-0.031695082980324515,0.02297138147111982
1772462711104427800,3.508427734375,-0.028738018706440924,-0.038441602665046225,0.03150384842427447
1772462711114476800,3.518476806640625,-0.03712123164832592,-0.03770576267116703,0.029713457876164466
1772462711124524800,3.52852490234375,-0.03427987074255943,-0.03238263141964562,0.024258206411264836
1772462711134573000,3.538572998046875,-0.037274376383423805,-0.03463420517214108,0.018636877664458006
1772462711144621800,3.548621826171875,-0.016477087548375128,-0.042557477018656205,0.027526816285774112
1772462711154670000,3.558670166015625,-0.025153730478882787,-0.03156320479554124,0.015973631538264452
1772462711164717800,3.5687177734375,-0.042213586351275444,-0.02970232456079684,0.027611224899906663
1772462711174767000,3.57876708984375,-0.035631285351514816,-0.03234947806871496,0.027406824901606886
1772462711184814800,3.58881494140625,-0.02291325807571411,-0.031273916692496274,0.02094267038879916
1772462711194862800,3.59886279296875,-0.0063052376240491865,-0.03129527457435615,0.02684942848086357
1772462711204911900,3.608911865234375,-0.03862871360182762,-0.029111235933005807,0.019444339856132864
1772462711214959900,3.6189599609375,-0.04595744905471801,-0.02391982303606346,0.017650898834411052
1772462711225008000,3.629008056640625,-0.03204290547072887,-0.03471497422419488,0.02644532292569056
1772462711235057000,3.639056884765625,-0.009297405177354811,-0.041418545249756425,0.022142145839054137
1772462711245105000,3.64910498046875,-0.01917231798171997,-0.03238099201840814,0.03428527757003903
1772462711255153000,3.65915283203125,-0.04116787669062614,-0.030827401334280146,0.014880539071932434
1772462711265202000,3.669201904296875,-0.036681671187281606,-0.031162830133992247,0.019438019713200628
1772462711275250000,3.67925,-0.01633504872918129,-0.024553508696565404,0.029769498912338165
1772462711285298000,3.6892978515625,-0.012442717465758323,-0.025711866685142738,0.01922450482668355
1772462711295347000,3.699346923828125,-0.030848142728209495,-0.03481926114915404,0.020538510034698993
1772462711305395000,3.70939501953125,-0.035487492966651914,-0.03337410384214017,0.033224808731675146
1772462711315442700,3.719442626953125,-0.019326631760597228,-0.03355704092730302,0.021739099729806182
1772462711325492000,3.729491943359375,-0.014239537754654884,-0.03722293389055412,0.0193416284003295
1772462711335539700,3.739539794921875,-0.02351765370965004,-0.03320295309289358,0.028330734813492745
1772462711345588000,3.749587890625,-0.02771218279004097,-0.040016003241762514,0.02163247928386554
1772462711355636700,3.75963671875,-0.037142274436354636,-0.03222311174268834,0.015979714219179004
1772462711365685000,3.76968505859375,-0.019188100072741507,-0.03160997567987069,0.020835575018823146
1772462711375733000,3.77973291015625,-0.017841946160793303,-0.03215880520166829,0.02397840308919549
1772462711385782000,3.789781982421875,-0.025924130329489706,-0.03425505596171133,0.028080011455435303
1772462711395830000,3.799830078125,-0.03744564129710197,-0.03900220025645103,0.027816593012586235
1772462711405877800,3.809877685546875,-0.016947043147683142,-0.036616611161013134,0.015188362912088632
1772462711415927000,3.819927001953125,-0.015903087052702904,-0.035398526908410714,0.02793758904375136
1772462711425974800,3.829974853515625,-0.011118190863728523,-0.03706829131811391,0.018857242416869847
1772462711436023000,3.84002294921875,-0.04014730147123337,-0.04181200611332897,0.017088570510223507
1772462711446071800,3.85007177734375,-0.030721301478147504,-0.04286153799914755,0.019586652669962495
1772462711456120000,3.8601201171875,-0.011418635115027427,-0.03583676762862596,0.017778762997779994
1772462711466167800,3.870167724609375,-0.019949732095003128,-0.03373306421448942,0.014608151871338486
1772462711476216800,3.880216796875,-0.0236935947984457,-0.03436983231464401,0.01711052661370486
1772462711486264800,3.890264892578125,-0.03686111940741539,-0.03844646606983151,0.018799630478117613
1772462711496312800,3.900312744140625,-0.037166239833831785,-0.03348086128539871,0.02882014403194189
1772462711506361900,3.91036181640625,-0.01936053403019905,-0.03467120358112734,0.021828622910473494
1772462711516409900,3.920409912109375,-0.018465046495199203,-0.02556261267387308,0.013097509846370666
1772462711526458000,3.9304580078125,-0.023998130702972412,-0.036188202281645494,0.03225932470038533
1772462711536507000,3.9405068359375,-0.02983049011826515,-0.025982710382621736,0.02113992826025933
1772462711546555000,3.950554931640625,-0.0208528184145689,-0.03309885339760221,0.02338520470270887
1772462711556603000,3.960602783203125,-0.03402092754542827,-0.024717074360977857,0.015605200084671377
1772462711566652000,3.97065185546875,-0.03057809361517429,-0.030735544632631354,0.019423771992139516
1772462711576700000,3.980699951171875,-0.02983049011826515,-0.029698333372268824,0.027374603132437912
1772462711586748000,3.990747802734375,-0.027738486275076864,-0.04211632282214705,0.02611587177561596
1772462711596797000,4.000796875,-0.026092472633719443,-0.03684456099825911,0.026866671876609325
1772462711606845000,4.010844970703125,-0.03612053017318249,-0.03460980594982393,0.018886030119936913
1772462711616893000,4.020892822265625,-0.02968845129907131,-0.032008921002736314,0.023002014071401206
1772462711626942000,4.03094189453125,-0.03088847473859787,-0.028479221639782188,0.01898665921650827
1772462711636990000,4.040989990234375,-0.022359131324291227,-0.022546347292349674,0.02325823558848351
1772462711647038000,4.051037841796875,-0.024007483053207396,-0.027853427024791017,0.02380370410941541
1772462711657087000,4.0610869140625,-0.032090251743793485,-0.03275821869981009,0.024023119013756512
1772462711667135000,4.071135009765625,-0.03253682646751404,-0.028559260039473882,0.020707692589145153
1772462711677183000,4.081182861328125,-0.024607202512025833,-0.025998551839147694,0.026255974366050212
1772462711687232000,4.09123193359375,-0.01907119569480419,-0.028333278397028334,0.023101346260029822
1772462711697280000,4.101280029296875,-0.021019407153129575,-0.03363732135558967,0.025255455553997306
1772462711707327700,4.11132763671875,-0.028203765699267386,-0.03976198281492106,0.021600038318987935
1772462711717377000,4.121376953125,-0.018474983367323873,-0.024526456292858347,0.019578524162434042
1772462711727424800,4.1314248046875,-0.012640285864472389,-0.028287749621714462,0.027215119988098738
1772462711737473000,4.14147314453125,-0.025510288831591604,-0.030639678476145488,0.02927462806748226
1772462711747521800,4.151521728515625,-0.03104571112692356,-0.025272260558325797,0.02452611836614087
1772462711757569800,4.16156982421875,-0.02909457705914974,-0.030668667108612133,0.02385466711167246
1772462711767618000,4.1716181640625,-0.031339141115546226,-0.01944792918586172,0.03002814984852448
1772462711777666800,4.181666748046875,-0.032685295027494427,-0.025764290992124003,0.022902572284918276
1772462711787715000,4.191715087890625,-0.033736265385150906,-0.02715901045326609,0.025490926543995738
1772462711797762800,4.2017626953125,-0.019224340429902075,-0.02571974859749898,0.018812672622781246
1772462711807812000,4.21181201171875,-0.02282090361714363,-0.032734239602601155,0.01761509686866775
1772462711817859800,4.22185986328125,-0.02387012040913105,-0.03174120084410533,0.01784158083461225
1772462711827907800,4.231907958984375,-0.03210428026914596,-0.025976929095806553,0.03352004708489403
1772462711837956900,4.241956787109375,-0.031956396231055256,-0.028053543573617935,0.019848518476542083
1772462711848004900,4.2520048828125,-0.02058452286720276,-0.030292467907094396,0.01937012384245172
1772462711858052900,4.262052978515625,-0.03555003680884838,-0.03126302083914634,0.025760391135141253
1772462711868102000,4.272101806640625,-0.02852349917292595,-0.03444906699673738,0.019261384504660962
1772462711878150000,4.28214990234375,-0.021493454405665396,-0.028915959956077857,0.02008667461397126
1772462711888198000,4.292197998046875,-0.028674890342354774,-0.022407852137112057,0.02614692450100556
1772462711898247000,4.302246826171875,-0.03227028448581695,-0.03350183557476848,0.028527536027226595
1772462711908295000,4.312294921875,-0.028680735561251638,-0.024214084141748023,0.02336929474752396
1772462711918343000,4.322343017578125,-0.025987843215465545,-0.028583134105405767,0.02245373253887519
1772462711928392000,4.332391845703125,-0.022851298755407333,-0.026949002698087133,0.010296937608718871
1772462711938440000,4.34243994140625,-0.0300374108672142,-0.02810866216118447,0.012615206222143023
1772462711948488000,4.352488037109375,-0.033333529803156854,-0.03263792135496624,0.028148290918674317
1772462711958537000,4.362536865234375,-0.02420388240814209,-0.0270632219285937,0.026387071666121482
1772462711968585000,4.3725849609375,-0.031388825476169585,-0.03223346873992122,0.019004925525560976
1772462711978633000,4.382633056640625,-0.024959084689617154,-0.03300791457798332,0.02872618213817477
1772462711988681700,4.392681640625,-0.027359131568670272,-0.03327868064364884,0.028069435262493787
1772462711998730000,4.40272998046875,-0.030055531045794486,-0.03505084598190151,0.024976985672488808
1772462712008778000,4.412778076171875,-0.019431261178851127,-0.02413789536668919,0.023211565168853848
1772462712018827000,4.422826904296875,-0.017934300619363783,-0.03290210241621826,0.01322917340202257
1772462712028874800,4.432874755859375,-0.023322423398494718,-0.025495753416162913,0.013126242750510572
1772462712038923000,4.442923095703125,-0.023026655322313308,-0.019385431009437886,0.021564619945734737
1772462712048971800,4.4529716796875,-0.03275543765425682,-0.027410770424362272,0.02323825224637985
1772462712059019800,4.463019775390625,-0.02632569686770439,-0.0237178889894858,0.02398717091754079
1772462712069068000,4.473068115234375,-0.025725977408885953,-0.027399659941880962,0.02718271555583924
1772462712079117800,4.483117919921875,-0.028124855244159697,-0.027859591904096304,0.02372223637104034
1772462712089165600,4.49316552734375,-0.02992109101116657,-0.023858329506637528,0.017541355779021977
1772462712099213800,4.5032138671875,-0.01734919420778751,-0.02783461272646673,0.020744152142014353
1772462712109262600,4.5132626953125,-0.03111877636313438,-0.0345295483544236,0.026800493038911372
1772462712119310800,4.523310791015625,-0.03141922061443329,-0.025909964806819334,0.01764972979063168
1772462712129358800,4.53335888671875,-0.02364391043782234,-0.03228951434267219,0.018487696718424557
1772462712139407600,4.54340771484375,-0.030384616869688033,-0.035559640320832836,0.020374752574041484
1772462712149456000,4.553455810546875,-0.033975919359922405,-0.03263527274015359,0.01526098975688219
1772462712159503600,4.563503662109375,-0.03367605963051319,-0.0318341763571836,0.024311379636917263
1772462712169553000,4.573552978515625,-0.030238486397266385,-0.0314302808645647,0.021948102837987243
1772462712179600600,4.5836005859375,-0.02679799055457115,-0.03492980885154102,0.022044000960513947
1772462712189648600,4.593648681640625,-0.03068973729610443,-0.028428272337256928,0.023516813459433614
1772462712199697700,4.60369775390625,-0.026349077743291854,-0.02955059546465054,0.013650778081268071
1772462712209745700,4.61374560546875,-0.028148820641636846,-0.0398558807766065,0.016960578482691197
1772462712219794000,4.6237939453125,-0.021266659912467,-0.03206458301299717,0.028892277686391025
1772462712229842700,4.6338427734375,-0.029051322439312934,-0.029897997829946687,0.022340956346783784
1772462712239890700,4.643890625,-0.015285831937193869,-0.03058242273041978,0.026150870023760944
1772462712249938700,4.653938720703125,-0.027409400451183317,-0.026117072785436173,0.015415303535759449
1772462712259987700,4.66398779296875,-0.028905776488780975,-0.03144704476969782,0.017687705447152254
1772462712270035700,4.67403564453125,-0.027262685456871986,-0.02632375607236754,0.01684131775088608
1772462712280083700,4.684083740234375,-0.03055237465202808,-0.026360768181085584,0.012514887652825563
1772462712290132700,4.6941328125,-0.03175181356966495,-0.024517254639673046,0.012297664705570786
1772462712300180700,4.7041806640625,-0.03444470591545105,-0.023994057316053658,0.026403328681178388
1772462712310228700,4.714228759765625,-0.030556466305255887,-0.029006775478110647,0.0306787409780547
1772462712320277800,4.72427783203125,-0.01514554668366909,-0.02948728443747386,0.028669830574747174
1772462712330325800,4.73432568359375,-0.02038403185904026,-0.03287136935123708,0.02889556562202051
1772462712340373800,4.744373779296875,-0.03684709088206291,-0.031904451414686626,0.021480010402202605
1772462712350422800,4.7544228515625,-0.033553894555568696,-0.020777506422344594,0.012549666705261916
1772462712360470800,4.764470703125,-0.03445464278757572,-0.027797774147684685,0.01159587311176583
1772462712370518800,4.774518798828125,-0.026073767933249472,-0.03141203282182105,0.026044706235546618
1772462712380567800,4.78456787109375,-0.022032383587956426,-0.011992325083445757,0.01859051777208224
1772462712390615800,4.79461572265625,-0.029364041650295256,-0.015933683120366186,0.020588340525794772
1772462712400663800,4.804663818359375,-0.03250876941680908,-0.025691344486922025,0.014847860645037144
1772462712410712800,4.814712890625,-0.02517711135447025,-0.023030760675272904,0.02244710186868906
1772462712420760600,4.824760498046875,-0.026076690542697904,-0.02889583505007904,0.020761852195486426
1772462712430808800,4.834808837890625,-0.025027473750710485,-0.02967044985149987,0.020522070356551556
1772462712440857600,4.844857666015625,-0.02846855411529541,-0.03171831315886229,0.020414061671122908
1772462712450905900,4.85490576171875,-0.029368133303523062,-0.02574668683677446,0.021390414156299085
1772462712460953600,4.86495361328125,-0.027426351585984228,-0.0360881988061592,0.022942447637580334
1772462712471003000,4.8750029296875,-0.02084580415189266,-0.022388540081866085,0.019103965453244744
1772462712481050600,4.885050537109375,-0.025188217270374298,-0.02235233625732362,0.01197661605766043
1772462712491098600,4.8950986328125,-0.030579262658953665,-0.025974043018976226,0.01530203415332362
1772462712501147600,4.905147705078125,-0.02339548863470554,-0.021113816571468488,0.013268993955757468
1772462712511195600,4.915195556640625,-0.0256412217348814,-0.029040846711071207,0.0147321253108792
1772462712521244000,4.925243896484375,-0.02578793672919273,-0.02023860463951714,0.01885819226494059
1772462712531292700,4.935292724609375,-0.02189969711899757,-0.030235043198009952,0.025566731726564467
1772462712541341000,4.9453408203125,-0.03372048329412937,-0.02773206566744484,0.020531258310005067
1772462712551388700,4.955388671875,-0.02279343108832836,-0.025906649471726266,0.019732417816203086
1772462712561438000,4.96543798828125,-0.03431435753405094,-0.021465178159251808,0.023307719019707292
1772462712571485700,4.975485595703125,-0.03715630296170711,-0.02435255189752206,0.017385124037694186
1772462712581533700,4.98553369140625,-0.02055003607571125,-0.030915344479214398,0.01666760515179485
1772462712591582700,4.995582763671875,-0.01621346817612648,-0.021580995691800487,0.017231394780706615
1772462712601630700,5.005630615234375,-0.028482582640647885,-0.027458162363199517,0.01684305305024609
1772462712611678700,5.0156787109375,-0.03341770095527172,-0.023461576140858233,0.01935067022331059
1772462712621727700,5.025727783203125,-0.02862929763495922,-0.02470997789991088,0.02098176029017195
1772462712631775700,5.035775634765625,-0.019498481196165082,-0.028691256955265997,0.031266276808734984
1772462712641823700,5.04582373046875,-0.022943068692088127,-0.028281854170467705,0.02596217905124649
1772462712651872500,5.05587255859375,-0.035815994268655775,-0.029081918506976216,0.01387152642617002
1772462712661920800,5.065920654296875,-0.021900866162776946,-0.03056282298080623,0.016218765405751765
1772462712671968800,5.07596875,-0.029684359645843504,-0.02510292274025269,0.02183412106949836
1772462712682017800,5.086017822265625,-0.029233693268895147,-0.02857540289009921,0.010864289167895912
1772462712692065800,5.096065673828125,-0.03985913217961788,-0.02274329920313321,0.016068999937828628
1772462712702113500,5.106113525390625,-0.03925824367702007,-0.02722418007738888,0.01609965080441907
1772462712712162800,5.116162841796875,-0.026239772149920463,-0.0329422654632479,0.017253825808223336
1772462712722210600,5.12621044921875,-0.01890869860947132,-0.032154512619040905,0.01945498911431059
1772462712732258800,5.1362587890625,-0.031328619721531864,-0.02062713816622272,0.0190219862582162
1772462712742307600,5.1463076171875,-0.03596796995997429,-0.022700939632439986,0.02348912173490971
1772462712752355800,5.15635595703125,-0.03926233533024788,-0.023735251116240395,0.010992646521609277
1772462712762403800,5.16640380859375,-0.022503508231043814,-0.019045714193675668,0.005589234841801226
1772462712772452900,5.176452880859375,-0.023998130702972412,-0.02656204464053735,0.011531630502827465
1772462712782500900,5.1865009765625,-0.029386838003993034,-0.03078775431048125,0.013279259621445088
1772462712792548600,5.196548583984375,-0.03043137862086296,-0.019973304766835644,0.015809289555717258
1772462712802598000,5.206597900390625,-0.022200141370296477,-0.022033269503945484,0.022747820114623753
1772462712812645600,5.216645751953125,-0.017112462842464447,-0.018666386886732653,0.01813639906272292
1772462712822694000,5.22669384765625,-0.02968552868962288,-0.027871154477726666,0.019951704856380818
1772462712832742700,5.23674267578125,-0.028790625676512718,-0.02646818321147002,0.013679127392917871
1772462712842791000,5.246791015625,-0.02848725881576538,-0.013609350092336535,0.02479001173302531
1772462712852838700,5.256838623046875,-0.02235211706161499,-0.025000631409557536,0.03062322966484353
1772462712862888000,5.266887939453125,-0.023399580287933347,-0.029684807170415297,0.02463060165392235
1772462712872935700,5.276935791015625,-0.02310147412419319,-0.021440061984304336,0.020988902417011557
1772462712882983700,5.286983642578125,-0.02669336113631725,-0.020078116848180068,0.018882340325508267
1772462712893032700,5.29703271484375,-0.02265606844425201,-0.020568348050536586,0.019996018922142682
1772462712903080700,5.307080810546875,-0.02459901920557022,-0.024448870145156978,0.02243813311094418
1772462712913129000,5.31712890625,-0.0344774391412735,-0.020520316790882495,0.02166987041849643
1772462712923177700,5.327177734375,-0.028642157116532323,-0.025566357267228886,0.019263010206166654
1772462712933225700,5.337225830078125,-0.018319500544667244,-0.021823289148230104,0.024113445912022143
1772462712943273700,5.347273681640625,-0.024457564908266068,-0.020779214322241023,0.025379483792465178
1772462712953322800,5.35732275390625,-0.026403438279032704,-0.020896876752004027,0.01699453555122018
1772462712963370800,5.367370849609375,-0.03688333123922348,-0.0309573843894992,0.018138919813372192
1772462712973419800,5.377419677734375,-0.025214520755410193,-0.03066419186289422,0.024306739994417875
1772462712983467800,5.3874677734375,-0.016985621592402456,-0.02816410954231396,0.021709490042831747
1772462712993515800,5.397515869140625,-0.014892448705434798,-0.02157572586163878,0.01690665633836761
1772462713003563500,5.4075634765625,-0.03300093684792518,-0.022357816150039435,0.022348756060749292
1772462713013612800,5.41761279296875,-0.032850714722275735,-0.024919894323544575,0.021567506022565065
1772462713023660500,5.42766064453125,-0.02148234848976135,-0.01962438173131086,0.017651866948790847
1772462713033708800,5.437708740234375,-0.018042437168955802,-0.027549777036253362,0.019231409491505473
1772462713043757600,5.447757568359375,-0.022678280276060104,-0.03669701488688588,0.022524423154909164
1772462713053805800,5.457805908203125,-0.02552665544450283,-0.030767378242732957,0.020752463312633335
1772462713063854600,5.4678544921875,-0.027622166419029235,-0.028150245413742957,0.02388374707568437
1772462713073902800,5.47790283203125,-0.02448094578385353,-0.03600576295340434,0.011154029362089932
1772462713083949800,5.48794970703125,-0.020890227815508842,-0.029579383167717604,0.010679379321355372
1772462713093998600,5.49799853515625,-0.02223579720556736,-0.021380486417328936,0.009657160134147852
1772462713104046800,5.508046875,-0.03421089715957641,-0.015079349579662085,0.015347973920591175
1772462713114094800,5.5180947265625,-0.03286649681329727,-0.02396788169518113,0.009199863087013363
1772462713124143900,5.528143798828125,-0.03286825037896633,-0.020422354575432837,0.028619616491161286
1772462713134191900,5.53819189453125,-0.027032968354225157,-0.029050719651114193,0.015397932275850325
1772462713144239900,5.548239990234375,-0.03661035951673984,-0.021467059589084236,0.01635126921162009
1772462713154289000,5.558288818359375,-0.030025135907530785,-0.021930969040095803,0.011894709927868098
1772462713164336600,5.568336669921875,-0.01880465371310711,-0.028486108038295058,0.024998667781334367
1772462713174385000,5.578385009765625,-0.02120353154838085,-0.032140383628988634,0.028024518408533185
1772462713184433700,5.58843359375,-0.00758650960624218,-0.023844812437938526,0.022953023830521852
1772462713194482000,5.59848193359375,-0.029579730227589605,-0.02656960689248517,0.01952944259000942
1772462713204529700,5.60852978515625,-0.03825754220187664,-0.02458985865158029,0.01884118633121252
1772462713214579000,5.618578857421875,-0.022695231410861015,-0.01658203662703745,0.02171802040915936
1772462713224626700,5.628626708984375,-0.014914660537242889,-0.021525192117644473,0.01002277857614681
1772462713234674700,5.6386748046875,-0.02957914570569992,-0.026633831235114484,0.016150321545731275
1772462713244723700,5.6487236328125,-0.031525603598356246,-0.03246040023043752,0.017785923390928656
1772462713254771700,5.658771728515625,-0.030331425377726554,-0.01880858096955344,0.015206793617922812
1772462713264820000,5.668820068359375,-0.024943887120485304,-0.02842026712731458,0.02153175885574892
1772462713274868700,5.67886865234375,-0.032876433685421945,-0.026636507249390706,0.020011618350073694
1772462713284917000,5.6889169921875,-0.017165069812536238,-0.02128241460402496,0.019381576818227768
1772462713294964700,5.69896484375,-0.019260580787062644,-0.0215891789982561,0.012029040364641695
1772462713305014000,5.709013916015625,-0.03258066560924053,-0.023849214618420225,0.019774941783677787
1772462713315061800,5.719061767578125,-0.03273322582244873,-0.019351263878354803,0.018313162135425953
1772462713325109800,5.72910986328125,-0.036628479695320126,-0.026804365496430546,0.025789251903444527
1772462713335158800,5.73915869140625,-0.023008535143733022,-0.021888061480130998,0.009324749842006713
1772462713345206800,5.749206787109375,-0.025557635104656216,-0.020183029394224283,0.011591416132356971
1772462713355254800,5.7592548828125,-0.02032207253873348,-0.024036809612391515,0.017060823986772448
1772462713365303800,5.7693037109375,-0.025860417443513868,-0.02332139135203324,0.01610038145678118
1772462713375351600,5.7793515625,-0.02451660161912441,-0.026950212841061874,0.0119848541630432
1772462713385399800,5.78939990234375,-0.027512860825657844,-0.02391792333992198,0.01993172151427716
1772462713395448600,5.799448486328125,-0.0203343474984169,-0.01985789822624065,0.01725013601379469
1772462713405496800,5.809496826171875,-0.020335516542196272,-0.018729935375927015,0.014989753333758562
1772462713415544800,5.819544921875,-0.035003508841991424,-0.019249182610213755,0.019928177850320934
1772462713425593900,5.82959375,-0.027822657427191734,-0.02764743785760365,0.012508037786930798
1772462713435641900,5.839641845703125,-0.012712766578793526,-0.03191670354148373,0.018851525062136353
1772462713445689600,5.849689697265625,-0.03111877636313438,-0.02806502394885756,0.021096271781623363
1772462713455739000,5.85973876953125,-0.0445855761796236,-0.03097871943847276,0.01616621323460713
1772462713465786600,5.86978662109375,-0.036059739896655084,-0.02968892622310668,0.01891428810004145
1772462713475835000,5.8798349609375,-0.01795242079794407,-0.030633796724630517,0.022820227763708678
1772462713485883600,5.889883544921875,-0.017502923464775083,-0.02246176971485838,0.016690164043474943
1772462713495932000,5.899931884765625,-0.02813128498494625,-0.016508971390826625,0.012192560363281518
1772462713505980000,5.90997998046875,-0.029178748211264607,-0.023490583039633927,0.01908023751778528
1772462713516029000,5.92002880859375,-0.024689035576581954,-0.01600746987578459,0.024046956547070293
1772462713526076700,5.93007666015625,-0.027536826223134993,-0.014983990313252434,0.011904336272738873
1772462713536124700,5.940124755859375,-0.028735096096992492,-0.026359316009515896,0.012052366441302
1772462713546173700,5.950173583984375,-0.028287352329492567,-0.01904868246889673,0.01832925475370139
1772462713556221700,5.9602216796875,-0.02604161922931671,-0.017431173402816056,0.02285431269640103
1772462713566270000,5.97027001953125,-0.029331308424472808,-0.028501954061398282,0.01714819174297154
1772462713576318700,5.980318603515625,-0.03157937961220741,-0.019743194938544182,0.019143658142816274
1772462713586367000,5.990366943359375,-0.024696634361147878,-0.021384523271629586,0.021058131728321314
1772462713596414700,6.000414794921875,-0.03023439474403858,-0.027298469156306234,0.01432148041706532
1772462713606463700,6.010463623046875,-0.02888940987586975,-0.018853671353450042,0.015007234191522001
1772462713616511700,6.02051171875,-0.03502396710813045,-0.026193695385335013,0.018365422045625746
1772462713626559700,6.030559814453125,-0.028889994397759435,-0.02314460087986663,0.01850660234829411
1772462713636608800,6.04060888671875,-0.03188157742917538,-0.021385975443199274,0.01702730530966073
1772462713646656800,6.05065673828125,-0.04041325893104076,-0.022597415325883774,0.018780341255757955
1772462713656705000,6.060705078125,-0.028595395365357396,-0.023091975643485783,0.01898943569548428
1772462713666753800,6.07075390625,-0.025604396855831144,-0.01979866971913725,0.016072598400712013
1772462713676801800,6.0808017578125,-0.04295826723873615,-0.018692306779278443,0.023889409631490707
1772462713686849800,6.090849853515625,-0.022453239348530767,-0.01977460385696031,0.016213906567543745
1772462713696898800,6.10089892578125,-0.023056465938687324,-0.01925899161817506,0.01261511489059776
1772462713706946800,6.11094677734375,-0.03533434823155403,-0.015392041391180828,0.008638046219479292
1772462713716994800,6.120994873046875,-0.02575754159092903,-0.010874618765665218,0.0131341885949485
1772462713727043800,6.1310439453125,-0.026057401320338246,-0.02335793310329318,0.013435801890026777
1772462713737091800,6.141091796875,-0.030700258690118786,-0.02025496211927384,0.014971267828997223
1772462713747139600,6.1511396484375,-0.032201310902833936,-0.023689859338244423,0.021883732364885507
1772462713757188900,6.16118896484375,-0.02128068843781948,-0.027864021484041584,0.02536688003921881
1772462713767236600,6.171236572265625,-0.01529459976553917,-0.02574392405753024,0.012521299127303064
1772462713777284900,6.181284912109375,-0.019335399588942526,-0.0166512294057291,0.012929660732485353
1772462713787333600,6.191333740234375,-0.034897710379958154,-0.015940359456324948,0.01606790395928547
1772462713797382000,6.2013818359375,-0.036246786901354786,-0.02031617252090946,0.00938097354127094
1772462713807430000,6.211429931640625,-0.003776595929265022,-0.01708805905357003,0.01371138569470495
1772462713817479000,6.22147900390625,-0.020687398719787597,-0.02749288661670871,0.010219050066918135
1772462713827527000,6.23152685546875,-0.04717617719471454,-0.03581115369675681,0.017216544271446765
1772462713837574700,6.24157470703125,-0.049721770024299616,-0.013650969877513125,0.009373612218722701
1772462713847624000,6.2516240234375,-0.014860884523391724,-0.017292897443287075,0.013883856184780597
1772462713857671700,6.261671630859375,0.009679682493209838,-0.019030635355552657,0.011352182282693683
1772462713867720000,6.271719970703125,-0.028778935238718984,-0.025960644681286064,0.01724872950799763
1772462713877768700,6.281768798828125,-0.04928162504136562,-0.02335172255821526,0.019682861319743096
1772462713887816700,6.291816650390625,-0.04165244533717632,-0.022426597936777398,0.013019658837188034
1772462713897864700,6.30186474609375,-0.0009533552020788192,-0.029698726097913457,0.019996274650469423
1772462713907913700,6.311913818359375,0.008775427129864692,-0.02437739407783374,0.015119407595414667
1772462713917961700,6.321961669921875,-0.04209726649522781,-0.02808810343034565,0.027208233589585868
1772462713928009700,6.332009765625,-0.06798398742377758,-0.01844869814859703,0.012081939595658332
1772462713938058800,6.342058837890625,-0.02384440144598484,-0.011357086786674336,0.018852730638533828
1772462713948106800,6.352106689453125,0.005787935751676559,-0.012500658198073505,0.022609087497368452
1772462713958155800,6.36215576171875,-0.03641454468369484,-0.01781698524947278,0.009546338437125086
1772462713968203800,6.372203857421875,-0.07741349454820155,-0.020623366173403337,0.018607341042719782
1772462713978251800,6.382251708984375,-0.03236965320706367,-0.008651782483886927,0.03231551186703145
1772462713988299800,6.3922998046875,0.013117255726456641,-0.016888746222341433,0.020237426462583242
1772462713998348800,6.402348876953125,-0.01651449694931507,-0.025288161380356177,0.015326638871617615
1772462714008396800,6.412396728515625,-0.02250584631860256,-0.023249714355310425,0.0051147309315390885
1772462714018444800,6.42244482421875,-0.07652034510076046,-0.021248402736568823,0.00899940861146897
1772462714028493800,6.432493896484375,-0.037915596896409984,-0.012404358216747641,0.021212518572434783
1772462714038541800,6.442541748046875,-0.02040624369084835,-0.016670628225943073,0.013753087678272276
1772462714048589800,6.45258984375,-0.011879822885990142,-0.025106776931462807,0.011540087803918868
1772462714058638800,6.462638916015625,-0.025197569620609282,-0.02623564396407455,0.02008437305903062
1772462714068686800,6.472686767578125,-0.05183481665551662,-0.023951195421861485,0.019444960910640657
1772462714078735400,6.4827353515625,-0.0234060100287199,-0.015051730920374392,0.013239201605692506
1772462714088784400,6.492784423828125,0.0003822773158550262,-0.02032240133229643,0.0050523332198150455
1772462714098832400,6.502832275390625,-0.023262217643857,-0.02990760134193115,0.017998451896756886
1772462714108881400,6.51288134765625,-0.03852466870546341,-0.022800527549395336,0.015446118799131364
1772462714118929400,6.522929443359375,-0.03942366337180137,-0.013807128553604706,0.016751703238673508
1772462714128977400,6.532977294921875,-0.014582652103900908,-0.01604581085848622,0.013055807862803338
1772462714139026400,6.5430263671875,-0.009349427625536918,-0.025146378289489076,0.007284220457728952
1772462714149074400,6.553074462890625,-0.03748012808859348,-0.020486213591881096,0.018259915844537317
1772462714159122400,6.563122314453125,-0.04555588251650333,-0.0179722214769572,0.023202340682782232
1772462714169171500,6.57317138671875,-0.014581483060121535,-0.015766372862597928,0.012442626134213059
1772462714179219500,6.583219482421875,-0.010391630154848099,-0.02550599624896422,0.010801471331063657
1772462714189267500,6.593267333984375,-0.034787235742807385,-0.031150998132303355,0.010333159699570387
1772462714199316200,6.603316162109375,-0.02985270195007324,-0.022240692576393484,0.02029715729318559
1772462714209364500,6.613364501953125,-0.013245266020298003,-0.026320153042906892,0.016106372806150467
1772462714219412200,6.623412109375,0.015476970595121382,-0.021851327932626008,0.016706183596514164
1772462714229461500,6.63346142578125,0.06484919652938842,-0.034431298444606365,0.021878526466805485
1772462714239509200,6.64350927734375,0.0664928720831871,-0.04917265737471171,0.028692462531663476
1772462714249557200,6.65355712890625,-0.17576573222875594,-0.028433473668759687,0.013082494940329342
1772462714259606300,6.663606201171875,-0.36100481072366236,0.015945209161378444,0.010488003201410174
1772462714269654300,6.673654296875,-0.07101297985613346,0.04844801462828181,-0.003448441687133163
1772462714279702500,6.68370263671875,0.3018722382754087,0.015881688071647658,-0.00860279224300757
1772462714289751300,6.693751220703125,0.14504910692572592,-0.024922323742648585,0.019996420780941843
1772462714299799600,6.703799560546875,-0.25088556288182734,-0.046068380349595095,0.0329784144888632
1772462714309847300,6.713847412109375,-0.23636779270768163,-0.06284340053177438,0.02440251025278121
1772462714319896600,6.723896484375,0.15088205086290835,-0.04166486642733216,0.007865819737967104
1772462714329944300,6.7339443359375,0.24993396124541759,-0.023335812603030352,0.0013477248145267367
1772462714339992300,6.743992431640625,-0.07657295207083224,0.003307544512255117,0.028681776740867644
1772462714350041300,6.754041259765625,-0.30132337222099304,-0.007577540848497301,0.03904958762871101
1772462714360089300,6.76408935546875,-0.09571838204562663,-0.017818757081450892,0.00905860971910879
1772462714370137300,6.774137451171875,0.14384557635486125,-0.01484651807132177,-0.015341964304912834
1772462714380186400,6.784186279296875,0.08009878810942173,-0.01875569087169133,0.005455251464899629
1772462714390234400,6.794234375,-0.12924538859426973,-0.012349988547852263,0.04191555325277149
1772462714400282400,6.804282470703125,-0.14316110122203826,-0.006244803540548309,0.024724399150907992
1772462714410331100,6.8143310546875,0.04029109385609626,-0.007009741764748468,0.005878609709814191
1772462714420379400,6.82437939453125,0.08592413326203822,-0.02719755693194456,-0.011107395475078373
1772462714430427400,6.834427490234375,-0.04381225371956825,-0.03540800712280907,-0.0014039119811728596
1772462714440476400,6.844476318359375,-0.13150105856657027,-0.03979706326145679,0.0350479325056076
1772462714450524400,6.8545244140625,-0.04306581926643848,-0.03803811816438101,0.05762090750997886
1772462714460572400,6.864572509765625,0.06377250720858574,-0.03691431089937687,0.024613230394013225
1772462714470621400,6.874621337890625,0.017386603608727454,-0.03337355128629133,0.004448503841459751
1772462714480669200,6.884669189453125,-0.09498597611784934,-0.018348315647197886,0.002668324160110205
1772462714490717400,6.894717529296875,-0.0872018981128931,0.00422402916951105,0.007863280721008777
1772462714500766200,6.90476611328125,0.005867430728673934,-0.0010145747368689626,0.0186013862259686
1772462714510814500,6.914814453125,0.04551847311556339,-0.02118100005616434,-0.003953340735659003
1772462714520862500,6.924862548828125,-0.026607436418533324,-0.033410266567487266,0.0027687705935910342
1772462714530911500,6.934911376953125,-0.08586275846362114,-0.040043548835814,0.022957115483749655
1772462714540959200,6.944959228515625,-0.033334114325046536,-0.03327758923168294,0.029017840294819325
1772462714551007200,6.95500732421875,0.014995909079909324,-0.02754900071811862,0.0200936888766475
1772462714561056300,6.96505615234375,-0.005654664760828018,-0.02597660943539813,-0.0025000914537347853
1772462714571104300,6.975104248046875,-0.046803252229094504,-0.015473627860564738,0.011440024962928145
1772462714581152500,6.985152587890625,-0.0466553681910038,-0.008467009634664282,0.029635752997454252
1772462714591201300,6.995201171875,-0.00924655177295208,-0.006383143432158976,0.01972624380374327
1772462714601249500,7.00524951171875,-0.0013180968612432479,-0.021514862519875166,0.014888064791262149
1772462714611297300,7.01529736328125,-0.027357962524890898,-0.028166758157126603,0.013770367606636136
1772462714621346600,7.0253466796875,-0.06207447111904621,-0.02503604978281073,0.026003789703268557
1772462714631394300,7.035394287109375,-0.03858078280687332,-0.02665599740114994,0.02724471140876412
1772462714641442300,7.0454423828125,-0.005962707796692848,-0.02324926683073863,0.0012878478534519673
1772462714651491300,7.0554912109375,-0.012098434072732926,-0.023905410918220876,0.01095284423418343
1772462714661539300,7.065539306640625,-0.026316344517469406,-0.01160296043967828,0.020215981815755367
1772462714671587600,7.075587646484375,-0.03080956428349018,-0.019421927094925195,0.02428741423944011
1772462714681636400,7.08563623046875,-0.017343348988890648,-0.01727758114314638,0.014632117268815636
1772462714691684600,7.0956845703125,-0.022284897044301033,-0.021999641228979454,0.008384655980300158
1772462714701733400,7.1057333984375,-0.041138650596141815,-0.016065127480309457,0.012590345775522292
1772462714711781400,7.115781494140625,-0.052961774858832356,-0.02001881527584046,0.016130484334100036
1772462714721829400,7.125829345703125,-0.03679623747766018,-0.0252363581278827,0.010189239450544119
1772462714731877400,7.13587744140625,-0.013453940334916113,-0.035780237968685104,0.0017940255436114966
1772462714741926400,7.145926513671875,-0.013754384586215019,-0.02197790432120673,0.014617686884663998
1772462714751974400,7.155974365234375,-0.04487725260257721,-0.01710040707848966,0.019011136070638895
1772462714762023400,7.1660234375,-0.04068681517541408,-0.011591507463902233,0.02326389814428985
1772462714772071400,7.176071533203125,-0.029612463453412053,-0.016933361682202667,0.010486998554412276
1772462714782119200,7.186119140625,-0.008966565787792206,-0.026008776405639946,-0.0008169058734551071
1772462714792168400,7.19616845703125,-0.017347440642118454,-0.011414305999781936,0.017529226949810982
1772462714802216200,7.20621630859375,-0.044730537608265876,-0.018454771696357057,0.02352163576502353
1772462714812264400,7.216264404296875,-0.02662204946577549,-0.02247802672991529,0.010160890138894318
1772462714822313200,7.226313232421875,-0.001482347512245178,-0.021612094082962722,0.01106004920201376
1772462714832361500,7.236361572265625,-0.006272504398226738,-0.02146026452211663,0.012246628638077527
1772462714842409500,7.246409423828125,-0.04846680152714252,-0.01648209251705557,0.020922303454205392
1772462714852458500,7.25645849609375,-0.05459843614995479,-0.016436198415560647,0.003558569264411926
1772462714862506500,7.266506591796875,-0.012252163329720496,-0.01758870205208659,0.0029352497342973946
1772462714872554200,7.27655419921875,0.007351531806588173,-0.02087949635894038,0.014942242663912475
1772462714882603500,7.286603515625,-0.016291794109344483,-0.012085364528605714,0.018339648283552376
1772462714892651300,7.2966513671875,-0.05205751949548721,-0.01370960472957231,0.022209986910875886
1772462714902699500,7.306699462890625,-0.04532382732629776,-0.027470656518591565,0.014439334643073379
1772462714912748300,7.316748291015625,-0.022578327032923697,-0.029878000788111238,0.016403218594565987
1772462714922796300,7.32679638671875,-0.028112580284476277,-0.022957024152204394,0.012590820699557661
1772462714932844300,7.33684423828125,-0.03499357196986675,-0.023674378641322255,0.00985602544080466
1772462714942893300,7.346893310546875,-0.04336918612718582,-0.01574785995837301,0.016591215447336435
1772462714952941300,7.35694140625,-0.011944704815745354,-0.02011154419374652,0.010313687814120202
1772462714962989300,7.3669892578125,-0.014189853394031523,-0.01949130253670737,0.01523629370704293
1772462714973038300,7.377038330078125,-0.03544073121547699,-0.01563802464203909,0.007499452377296984
1772462714983086300,7.38708642578125,-0.040078912410140034,-0.01967465974697843,0.007675539596565068
1772462714993134300,7.39713427734375,-0.037982816913723946,-0.019838472006563097,0.0015828487446531653
1772462715003183400,7.407183349609375,-0.0219768540084362,-0.021351022860826924,0.01779352217549458
1772462715013231400,7.4172314453125,-0.020630700096487996,-0.022526423315750433,0.014180756772123276
1772462715023279400,7.427279296875,-0.031110008534789083,-0.030125408811075612,0.009643551733903586
1772462715033328400,7.437328369140625,-0.03724164315760135,-0.023838528827624394,0.013165223054029047
1772462715043376400,7.44737646484375,-0.034247722038626666,-0.023621652940241617,-0.00029277240149676797
1772462715053424400,7.45742431640625,-0.024669746354222297,-0.022693824905063956,0.014578359521273523
1772462715063473400,7.467473388671875,-0.02197568496465683,-0.009338623103732242,0.008630502233840525
1772462715073521400,7.477521484375,-0.03769114049077034,-0.016012821904337032,0.0010315350048243999
1772462715083569200,7.487569091796875,-0.03110416331589222,-0.013571374435815959,0.013517817617673426
1772462715093618000,7.497617919921875,-0.02586392457485199,-0.024548722923593592,0.01889762922618538
1772462715103666200,7.507666259765625,-0.00865267753303051,-0.026605673719709736,0.01922793889278546
1772462715113714000,7.5177138671875,-0.020326748713850974,-0.029687830244563517,0.020492241473868487
1772462715123763200,7.52776318359375,-0.03289396934211254,-0.02265740188481286,0.01580192823316902
1772462715133811000,7.53781103515625,-0.032897476473450656,-0.007263323800172656,0.014906915622204541
1772462715143859000,7.54785888671875,-0.013743278670310973,-0.021855757512571287,0.013907547587621956
1772462715153908000,7.557907958984375,-0.024219664499163625,-0.015299312473274767,0.008150043506827204
1772462715163956000,7.5679560546875,-0.03723872054815292,-0.02492907314384356,0.008704882644303143
1772462715174004000,7.57800390625,-0.03170446729660034,-0.015633786858338862,0.013025083930976688
1772462715184053000,7.588052978515625,-0.02242693586349487,-0.010815700785815716,0.022763565673027186
1772462715194101000,7.59810107421875,-0.019585574957728384,-0.01323072603829205,0.013005557246599346
1772462715204149000,7.60814892578125,-0.030512042641639706,-0.024973624671623108,0.02119722967175767
1772462715214197800,7.61819775390625,-0.03425707438886166,-0.027903531510522588,0.016444938844442366
1772462715224246000,7.62824609375,-0.029919921967387197,-0.025114375716028734,0.014528620361723005
1772462715234294000,7.6382939453125,-0.017647884893417357,-0.02026984002799727,0.013218852937407792
1772462715244343000,7.648343017578125,-0.015703765088319777,-0.019413478926988317,0.017216507738828657
1772462715254391000,7.65839111328125,-0.0288742123067379,-0.011013543179165572,0.008745744377654045
1772462715264440000,7.668440185546875,-0.036056817287206645,-0.011668490823404864,0.008779993707127868
1772462715274488000,7.678488037109375,-0.03501110762655735,-0.007975865116855128,0.006205759304948151
1772462715284535800,7.688535888671875,-0.020649989318847654,-0.01730046882838942,0.010717829901911318
1772462715294584000,7.698583984375,-0.021848259192705152,-0.017576564089721067,0.020560758399125186
1772462715304632800,7.7086328125,-0.01885550711750984,-0.017111586059629917,0.02087705780668184
1772462715314681000,7.71868115234375,-0.03172492556273937,-0.020731877182330934,0.015654756581131368
1772462715324729900,7.728729736328125,-0.03202361624836921,-0.015560886018909512,0.015353599943779408
1772462715334778000,7.738778076171875,-0.030679800423979758,-0.01115603865608573,0.00998314068550244
1772462715344825900,7.748825927734375,-0.03606909224689007,-0.015014184522116556,-0.0008766549703665077
1772462715354875100,7.758875244140625,-0.024845687443017957,-0.01336229826239869,-0.0009915683206170797
1772462715364923000,7.7689228515625,-0.030233225700259207,-0.016518990461342035,0.014252013643737882
1772462715374971000,7.778970947265625,-0.023052958807349203,-0.015531760389124974,0.008350497982371597
1772462715385020000,7.78902001953125,-0.023355741146206855,-0.02384164323331788,0.014681253640167414
1772462715395068000,7.79906787109375,-0.02021276694536209,-0.024867424350790677,0.026541842102725057
1772462715405116200,7.8091162109375,-0.031736031478643414,-0.025403686651960015,0.024267503962572663
1772462715415165000,7.8191650390625,-0.0347299525976181,-0.025284179324982687,0.01931651222538203
1772462715425213200,7.829213134765625,-0.020965046617388725,-0.015881496275402605,0.0129100609828718
1772462715435261000,7.839260986328125,-0.03413549383580684,-0.008257759931311011,0.01517559476206079
1772462715445310000,7.84931005859375,-0.018571429479122162,-0.018208651448180898,0.012825780232902616
1772462715455358000,7.85935791015625,-0.016624387064576147,-0.009194027001271024,0.012888652868662028
1772462715465406000,7.869406005859375,-0.024252982246875762,-0.015756563854636623,0.008114223274774849
1772462715475455000,7.879455078125,-0.037273791861534115,-0.016617135339882225,0.016868534551374614
1772462715485503000,7.8895029296875,-0.022909166422486305,-0.018871124811749903,0.011153536171745509
1772462715495551200,7.89955126953125,-0.024854455271363256,-0.015774492236971853,0.016428316503204404
1772462715505600000,7.90960009765625,-0.018122516667842863,-0.013422522283345461,0.01940077470904216
1772462715515648000,7.91964794921875,-0.0371305839985609,-0.01233972288216464,0.024187570594158023
1772462715525696000,7.929696044921875,-0.020821254232525826,-0.0189647670451086,0.018745708333794027
1772462715535745000,7.9397451171875,-0.01558686071038246,-0.015276799247367306,0.011142959978803992
1772462715545793000,7.94979296875,-0.027560207098722457,-0.008149239789228886,0.010794822394568472
1772462715555841000,7.959841064453125,-0.024718261671066284,-0.011837974771950394,0.010218648208118974
1772462715565890000,7.96989013671875,-0.020231471645832062,-0.013151386324921622,0.010644253209047019
1772462715575938000,7.97993798828125,-0.021279519394040106,-0.018850118556339293,0.019056728778034448
1772462715585985800,7.98998583984375,-0.018885902255773544,-0.016877192781865596,0.013305709236953407
1772462715596035000,8.00003515625,-0.03669453066885471,-0.023587905934266743,0.009958207173645496
1772462715606082800,8.010082763671875,-0.034604280391335486,-0.022145662103546782,0.012948401965573429
1772462715616131000,8.020131103515626,-0.02847147672474384,-0.013844373557763173,0.004608498442452401
1772462715626179800,8.030179931640625,-0.023985271221399304,-0.0051963082677684725,0.00628574747228995
1772462715636228000,8.04022802734375,-0.021295886006951332,-0.013003502286830917,0.01650618577869609
1772462715646276000,8.050276123046874,-0.02563420747220516,-0.011338829610776155,0.013915986622404307
1772462715656325000,8.0603251953125,-0.036707974672317505,-0.0158115911106579,0.005361453967913985
1772462715666373000,8.070373046875,-0.026386487144231793,-0.013661052880110219,0.008806041463837027
1772462715676420900,8.0804208984375,-0.03147358115017414,-0.010102054357435554,0.016699662524182347
1772462715686470100,8.09047021484375,-0.025939327898621557,-0.016407054519467053,0.014565755768027155
1772462715696518000,8.100517822265624,-0.028480829074978828,-0.017155580464983358,0.01888648677766323
1772462715706566100,8.110566162109375,-0.024589666855335233,-0.012996360159991309,0.015148030901700258
1772462715716615000,8.120614990234374,-0.0346165553510189,-0.013412603677529842,0.013930270876083522
1772462715726663000,8.130662841796875,-0.031925416570901866,-0.011996882527554407,0.015605547144543378
1772462715736711000,8.1407109375,-0.006933014133572578,-0.019611485717119646,0.01900423140581697
1772462715746760000,8.150760009765625,-0.014715338572859763,-0.0156146346332971,0.01796038490869105
1772462715756808000,8.160807861328125,-0.03057517100572586,-0.017723525679204613,0.016810813014768063
1772462715766856000,8.17085595703125,-0.03491641508042812,-0.01823960370887071,0.009396518170274794
1772462715776905000,8.180905029296875,-0.026386487144231793,-0.023515078160073605,0.01928337714076042
1772462715786953000,8.190952880859374,-0.018601240095496175,-0.015466029075998812,0.012139277539774776
1772462715797002000,8.201001953125,-0.025035657057166098,-0.01611264728331007,0.008430869742203504
1772462715807050000,8.211050048828126,-0.03910217633247375,-0.014515267689805477,0.01706464164536446
1772462715817098000,8.221097900390625,-0.03266951293647289,-0.01106558389365673,0.012270356573536992
1772462715827147000,8.23114697265625,-0.020400398471951485,-0.01180092156403698,0.016475717575196176
1772462715837195000,8.241195068359374,-0.02339548863470554,-0.011940467032045125,0.015548738923389463
1772462715847243000,8.251242919921875,-0.03372048329412937,-0.009879497647937387,0.019570450453832745
1772462715857292000,8.2612919921875,-0.03791208976507187,-0.014731504256371408,0.015403960157837718
1772462715867340000,8.271340087890625,-0.015016367346048354,-0.006688081195484846,0.01608310152841732
1772462715877388000,8.281387939453126,-0.02668868496119976,-0.00490239422195591,0.01231761151505634
1772462715887437000,8.29143701171875,-0.04195172054469585,-0.012052065047202631,0.009633213002979755
1772462715897485000,8.301485107421875,-0.03012859628200531,-0.019860144982254132,0.0067849656987003975
1772462715907533000,8.311532958984374,-0.024144845697283743,-0.013592855615261941,0.0038879290829412637
1772462715917582000,8.32158203125,-0.030126842716336248,-0.018655162239819764,0.006403510366752743
1772462715927629800,8.3316298828125,-0.039704818400740624,-0.022759811946516856,0.01591508801775053
1772462715937678000,8.341677978515625,-0.02743278132677078,-0.011429731897776945,0.016281948568765074
1772462715947726800,8.351726806640626,-0.018305472019314765,-0.023116845223261042,0.014441800594795495
1772462715957774800,8.36177490234375,-0.024293314257264137,-0.016495335591118782,0.009339527286030352
1772462715967823000,8.371822998046875,-0.03207505417466163,-0.01408906903383322,0.014604169815964995
1772462715977872000,8.381871826171874,-0.0412047015696764,-0.008326185525022447,0.02205589232770726
1772462715987920100,8.391920166015625,-0.031628479450941084,-0.008749059712747111,0.014849687275942413
1772462715997968000,8.4019677734375,-0.00888181011378765,-0.016461625117762013,0.010703216854669153
1772462716008017200,8.41201708984375,-0.020856910067796705,-0.013637525874050333,0.011641356221307068
1772462716018065000,8.42206494140625,-0.029539982739090916,-0.02128594913482666,0.01768436271259561
1772462716028113000,8.43211279296875,-0.04121230035424232,-0.015114073833171277,0.017328078354522585
1772462716038162000,8.442161865234375,-0.034929859083890916,-0.02491334585174918,0.015560210165474563
1772462716048210000,8.4522099609375,-0.01622340504825115,-0.018792963275313376,0.006204115337133408
1772462716058258200,8.462258056640625,-0.022359131324291227,-0.021232246186211706,0.008313947097957134
1772462716068307000,8.472306884765626,-0.03597966039776802,-0.008479001466557383,0.014925729920528829
1772462716078355200,8.482355224609375,-0.03239128051698208,-0.015564895473746582,0.02363229306526482
1772462716088402000,8.49240185546875,-0.027155133429169653,-0.011021397692058234,0.007451704245433211
1772462716098451200,8.502451171875,-0.03209726600646973,-0.014138241937803104,0.01214802710181102
1772462716108499000,8.5124990234375,-0.021923662516474724,-0.015555588789284229,0.009708433663658797
1772462716118547200,8.522547119140626,-0.025965631383657452,-0.01793836487312801,0.009050810005143285
1772462716128596000,8.532595947265625,-0.028808745855093,-0.013610025945771485,0.012343659271765499
1772462716138644200,8.542644287109376,-0.02551788761615753,-0.013115639158105477,0.004338650258816778
1772462716148692200,8.552692138671874,-0.026119360640645024,-0.016468484116811306,0.01751929007768631
1772462716158741200,8.5627412109375,-0.023580197551846503,-0.013477531273057683,0.011074114259984344
1772462716168789200,8.572789306640624,-0.02522854928076267,-0.013736328339716419,0.010542637731786817
1772462716178837000,8.5828369140625,-0.036755320945382114,-0.008231913104001433,0.01192037409208715
1772462716188886300,8.59288623046875,-0.03361526935398578,-0.01548912682379596,0.006758790077827871
1772462716198934000,8.60293408203125,-0.026730770537257195,-0.013121877102646977,0.013241247432306409
1772462716208983300,8.6129833984375,-0.011466565909981727,-0.013134051597630604,0.012073664957657456
1772462716219031000,8.623031005859374,-0.03959901993870735,-0.013030435959529131,0.012893237712234258
1772462716229079000,8.6330791015625,-0.03660217621028423,-0.015931281100725753,0.01286908965166658
1772462716239128000,8.643128173828124,-0.018796470406651496,-0.014751250136457382,0.008032572873309255
1772462716249176000,8.653176025390625,-0.0195458274692297,-0.013964337542466818,0.014588296393398195
1772462716259224000,8.66322412109375,-0.03555705107152462,-0.012399490245385095,0.009373648751340806
1772462716269273000,8.673273193359375,-0.03585749532282352,-0.019060646901326254,0.0059035797542892395
1772462716279321000,8.683321044921875,-0.02702770765721798,-0.020925573123525828,0.011909396040346474
1772462716289369000,8.693369140625,-0.024935119292140005,-0.014360579451592638,0.010074106904584913
1772462716299418000,8.703418212890625,-0.025979075387120246,-0.010238047028332947,0.007694883617851883
1772462716309466000,8.713466064453126,-0.02792085710465908,-0.014693875659722834,0.013805731180962174
1772462716319514000,8.72351416015625,-0.024180501532554625,-0.017812446071673184,0.01898574590105563
1772462716329563100,8.733563232421876,-0.02252981171607971,-0.017078852833807466,0.007323803549446165
1772462716339611100,8.743611083984375,-0.024175825357437133,-0.010691709079965948,0.005063987124990671
1772462716349659100,8.7536591796875,-0.025826515173912046,-0.008960875832522287,0.01150412144139409
1772462716359708200,8.763708251953124,-0.01954524294734001,-0.014873479143483564,0.01490636763293296
1772462716369756200,8.773756103515625,-0.023587796336412427,-0.006542626576498151,0.017487141373753547
1772462716379804200,8.78380419921875,-0.030175358033180236,-0.014764109618030487,0.015126841983199118
1772462716389853000,8.79385302734375,-0.02687982361912727,-0.019524428488174452,0.00981653368063271
1772462716399901200,8.803901123046876,-0.016557751569151877,-0.01470505464086309,0.00393218834977597
1772462716409949200,8.81394921875,-0.031226328390836715,-0.012670297410245984,0.0014340331248007714
1772462716419998200,8.823998291015625,-0.031073768177628514,-0.01002097934470512,0.009599639526940882
1772462716430046200,8.834046142578124,-0.036755320945382114,-0.012517052210448309,0.012572225596942007
1772462716440094200,8.84409423828125,-0.03301438085138798,-0.015257546557625755,0.014515797412768006
1772462716450143000,8.85414306640625,-0.01999532480239868,-0.01729720829222351,0.006618431759066879
1772462716460191000,8.86419091796875,-0.028972411984205245,-0.015567836349504068,0.00738972665881738
1772462716470239200,8.8742392578125,-0.02328793660700321,-0.01487108625699766,0.01831873335968703
1772462716480288000,8.8842880859375,-0.02687982361912727,-0.015157227988308295,0.002889346499647945
1772462716490336300,8.894336181640625,-0.027333412605524063,-0.013402675938559695,0.004352952778805047
1772462716500384000,8.904384033203126,-0.0241945300579071,-0.010051885939622297,0.014829996194783597
1772462716510433300,8.914433349609375,-0.025096447333693504,-0.017626376314507797,0.017693112274631856
1772462716520481000,8.92448095703125,-0.034524200892448426,-0.020998592693964018,0.007763290945254265
1772462716530529000,8.934529052734375,-0.029136662635207176,-0.014937767418194562,0.011046495600696652
1772462716540578000,8.944578125,-0.03003916443288326,-0.017047790975263342,0.00849120336100459
1772462716550626000,8.9546259765625,-0.02225976260304451,-0.015251162482611835,0.013819887570478022
1772462716560674300,8.96467431640625,-0.02690261997282505,-0.017981628626119343,0.011465214203111827
1772462716570723000,8.97472314453125,-0.03812719382047653,-0.005793817503191531,0.015264204627275466
1772462716580771300,8.984771240234375,-0.028099720802903173,-0.0050833037468139075,0.009219115776754916
1772462716590820000,8.994820068359376,-0.034387422770261765,-0.004196967632649466,0.008520173727162182
1772462716600868400,9.004868408203125,-0.026010055047273634,-0.011256759084202348,0.010222228404693305
1772462716610916000,9.014916015625,-0.032145781323313714,-0.012815459768287837,0.004777644464280456
1772462716620965000,9.024965087890624,-0.020924130085110664,-0.020897552605438977,0.004483776084240526
1772462716631013000,9.03501318359375,-0.012697569009661673,-0.019373539642244576,0.012154895234014838
1772462716641061000,9.04506103515625,-0.02990764700770378,-0.01856960284821689,0.017801047894824295
1772462716651110100,9.055110107421875,-0.04098199872970581,-0.01811181261073798,0.01206646803189069
1772462716661158100,9.065158203125,-0.02167757880091667,-0.008158601272618398,0.004012669707462191
1772462716671206100,9.0752060546875,-0.025120412731170653,-0.012117741561401635,0.013861827016063033
1772462716681255200,9.085255126953125,-0.017945991057157516,-0.014281796860648318,0.016750059270858764
1772462716691303000,9.095302978515624,-0.001647182685136795,-0.015659670218266544,0.009930351052340119
1772462716701351200,9.10535107421875,-0.02903670939207077,-0.0155395327036269,0.016044066425971684
1772462716711400000,9.11539990234375,-0.046104164049029346,-0.010785680106887593,0.017617745483480392
1772462716721448200,9.1254482421875,-0.05748422071933746,-0.01589490374624729,0.009610069589409976
1772462716731496200,9.13549609375,-0.003167524120211601,-0.015076171241886913,0.005380706657655537
1772462716741545200,9.145545166015625,-0.009001052579283714,-0.0028596728805918245,0.003036536417994648
1772462716751593200,9.15559326171875,-0.0440063149869442,-0.0008909300908911973,0.005093030556384473
1772462716761641000,9.165640869140624,-0.07182897241413592,-0.01345540163964033,0.011391801907029002
1772462716771690200,9.175690185546875,-0.022889877200126647,-0.019835065339924768,0.016571524366177617
