time,seconds_elapsed,z,y,x
1772572086892928000,0.123927978515625,-0.20402899384498596,-0.2669481039047241,-0.051312681287527084
1772572086910742300,0.1417421875,-0.17211128771305084,-0.1238529309630394,-0.0780380368232727
1772572086928573000,0.159572998046875,-0.2632829248905182,-0.1670716404914856,-0.2793181240558624
1772572086946410200,0.17741015625,-0.38957929611206055,-0.20173825323581696,-0.46379944682121277
1772572086964244500,0.195244384765625,-0.44318273663520813,-0.18020524084568024,-0.5597052574157715
1772572086982078200,0.213078125,-0.4456261992454529,-0.17638733983039856,-0.5968153476715088
1772572086999913200,0.230913330078125,-0.4482223689556122,-0.10552696883678436,-0.5681046843528748
1772572087017735400,0.2487353515625,-0.4222606122493744,0.12217304855585098,-0.432034432888031
1772572087035582500,0.26658251953125,-0.26771169900894165,0.4147774875164032,-0.21807889640331268
1772572087053416700,0.284416748046875,-0.1014036312699318,0.6218608021736145,-0.06368270516395569
1772572087071251000,0.3022509765625,0.001832595793530345,0.6527095437049866,-0.03741549700498581
1772572087089085200,0.320085205078125,0.06811147183179855,0.4888449013233185,-0.05360342562198639
1772572087106920000,0.337919921875,0.05054909735918045,0.16768251359462738,-0.038637228310108185
1772572087124740400,0.355740234375,-0.01878410577774048,-0.10384709388017654,0.04917465150356293
1772572087142589000,0.3735888671875,-0.06291911751031876,-0.19792033731937408,0.16554448008537292
1772572087160421000,0.391421142578125,-0.05849034711718559,-0.18051068484783173,0.2174680233001709
1772572087178256400,0.40925634765625,-0.05467243865132332,-0.10170906037092209,0.18860463798046112
1772572087196095000,0.427094970703125,-0.04092797264456749,0.03527746722102165,0.09636399149894714
1772572087213921800,0.444921875,0.0019853119738399982,0.20662516355514526,-0.007635815534740686
1772572087231765500,0.462765625,0.041691552847623825,0.3271183371543884,-0.07437284290790558
1772572087249595000,0.480594970703125,0.05192354694008827,0.3220787048339844,-0.09743300825357437
1772572087267429400,0.498429443359375,0.010842857882380486,0.23548854887485504,-0.07757988572120667
1772572087285264000,0.516263916015625,-0.025045474991202354,0.1540907621383667,-0.028405234217643738
1772572087303098400,0.534098388671875,0.018936822190880775,0.09972374886274338,0.006872233934700489
1772572087320932600,0.5519326171875,0.08338310569524765,0.08307767659425735,0.0032070425804704428
1772572087338767000,0.56976708984375,0.12522737681865692,0.04245513305068016,-0.059406645596027374
1772572087356601600,0.5876015625,0.19486601650714874,0.07040221989154816,-0.1443169116973877
1772572087374436400,0.605436279296875,0.3179553747177124,0.2269364446401596,-0.21303924918174744
1772572087392270800,0.623270751953125,0.44287729263305664,0.33567044138908386,-0.25641068816185
1772572087410105000,0.64110498046875,0.45784351229667664,0.2623666226863861,-0.2704605758190155
1772572087427939600,0.658939697265625,0.3455969989299774,0.018478672951459885,-0.2814561724662781
1772572087445774000,0.676774169921875,0.19746218621730804,-0.10231992602348328,-0.22449298202991486
1772572087463608300,0.6946083984375,0.08659014850854874,-0.09926560521125793,-0.07223481684923172
1772572087481442600,0.712442626953125,0.013439035043120384,-0.05955936014652252,0.1186605766415596
1772572087499277000,0.730277099609375,-0.010690141469240189,0.1137736514210701,0.30543261766433716
1772572087517111800,0.74811181640625,0.11835514008998871,0.5296201705932617,0.42409318685531616
1772572087534946300,0.7659462890625,0.3318525552749634,0.702800452709198,0.3937026560306549
1772572087552780500,0.783780517578125,0.4599815309047699,0.5018258094787598,0.2356412708759308
1772572087570614500,0.801614501953125,0.41493022441864014,0.11133018881082535,-0.04749477282166481
1772572087588445200,0.819445068359375,0.20173825323581696,-0.2243402600288391,-0.3090978264808655
1772572087606283500,0.837283447265625,0.05803219974040985,-0.29046642780303955,-0.4021020531654358
1772572087624117000,0.855116943359375,0.02474004216492176,-0.13271047174930573,-0.36224308609962463
1772572087641953500,0.87295361328125,0.1488984078168869,0.11957687139511108,-0.23182335495948792
1772572087659786800,0.890786865234375,0.35384368896484375,0.206777885556221,-0.11560624837875366
1772572087677618400,0.908618408203125,0.48059824109077454,0.17119498550891876,-0.018020525574684143
1772572087695459000,0.926458984375,0.5302310585975647,0.14538592100143433,0.11484266817569733
1772572087713287700,0.94428759765625,0.57436603307724,0.06017022579908371,0.19944749772548676
1772572087731127000,0.962126953125,0.6343835592269897,-0.13759739696979523,0.17623461782932281
1772572087748958700,0.979958740234375,0.631481945514679,-0.36590829491615295,0.10949759185314178
1772572087766800400,0.99780029296875,0.5480988621711731,-0.41691553592681885,0.08216137439012527
1772572087784627700,1.015627685546875,0.4729624092578888,-0.28848111629486084,0.05146539583802223
1772572087802459600,1.033459716796875,0.45692721009254456,-0.09896016865968704,0.058337632566690445
1772572087820299300,1.05129931640625,0.4970915913581848,0.044287730008363724,0.11468994617462158
1772572087838131000,1.069130859375,0.5494732856750488,0.11056660860776901,0.18738290667533875
1772572087855965400,1.08696533203125,0.5867360830307007,0.15500704944133759,0.23075434565544128
1772572087873800400,1.104800537109375,0.5746715068817139,0.17333301901817322,0.2028072625398636
1772572087891634200,1.12263427734375,0.49067750573158264,0.14263702929019928,0.11957687139511108
1772572087909469000,1.140468994140625,0.3911064863204956,0.05925392732024193,0.11209376901388168
1772572087927303200,1.15830322265625,0.3246748745441437,0.028099801391363144,0.2002110779285431
1772572087945138000,1.176137939453125,0.27229318022727966,0.06994406878948212,0.29596421122550964
1772572087962972400,1.193972412109375,0.2428189367055893,0.12278391420841217,0.3335324227809906
1772572087980806700,1.211806640625,0.21151208877563477,0.15454891324043274,0.29245173931121826
1772572087998641200,1.22964111328125,0.11071932315826416,0.07116580009460449,0.19532416760921478
1772572088016475600,1.2474755859375,-0.062460970133543015,-0.033597588539123535,0.1137736514210701
1772572088034310000,1.265309814453125,-0.2076941877603531,-0.12202033400535583,0.027641652151942253
1772572088052144400,1.283144287109375,-0.3094032406806946,-0.11621711403131485,-0.062460970133543015
1772572088069979000,1.300978759765625,-0.40103304386138916,-0.08292495459318161,-0.1469130963087082
1772572088087812900,1.318812744140625,-0.44745880365371704,-0.08170322328805923,-0.17776179313659668
1772572088105647400,1.3366474609375,-0.4917465150356293,-0.10781771689653397,-0.16325373947620392
1772572088123481900,1.35448193359375,-0.5061018466949463,0.055894169956445694,-0.05345070734620094
1772572088141316000,1.372316162109375,-0.4202753007411957,0.27259862422943115,0.07238753139972687
1772572088159150800,1.39015087890625,-0.3156646192073822,0.2539672255516052,0.02168571576476097
1772572088176985600,1.407985595703125,-0.21044307947158813,0.2099849283695221,-0.17547103762626648
1772572088194819800,1.42581982421875,-0.2687807083129883,-0.10170906037092209,-0.5346598029136658
1772572088212654600,1.443654541015625,-0.5091561675071716,-0.37308594584465027,-0.8199338912963867
1772572088230489300,1.4614892578125,-0.6849326491355896,-0.2509129047393799,-0.7710646390914917
1772572088248322300,1.479322265625,-0.7124215960502625,0.12018773704767227,-0.4593706727027893
1772572088266157300,1.4971572265625,-0.5859724879264832,0.27641651034355164,-0.13209961354732513
1772572088283990800,1.51499072265625,-0.4381431043148041,0.1635591685771942,0.043676864355802536
1772572088301827300,1.532827392578125,-0.3484986126422882,0.04306599870324135,0.10186178237199783
1772572088319648300,1.550648193359375,-0.2971859276294708,-0.05161811411380768,0.08231408894062042
1772572088337495600,1.56849560546875,-0.2692388594150543,-0.17302757501602173,0.027030786499381065
1772572088355317200,1.586317138671875,-0.2649627923965454,-0.2635883390903473,0.003817907767370343
1772572088373164300,1.604164306640625,-0.30115658044815063,-0.3387247920036316,-0.021380282938480377
1772572088390984200,1.621984130859375,-0.37690386176109314,-0.31062498688697815,-0.04382958263158798
1772572088408833000,1.6398330078125,-0.4538728892803192,-0.25076019763946533,-0.09178250283002853
1772572088426667500,1.65766748046875,-0.5175555944442749,-0.1875356286764145,-0.16279558837413788
1772572088444501800,1.675501708984375,-0.5520694851875305,-0.16111570596694946,-0.25014930963516235
1772572088462322000,1.693322021484375,-0.5621487498283386,-0.13668109476566315,-0.3423899710178375
1772572088480159000,1.711158935546875,-0.5636758804321289,-0.10995574295520782,-0.40591996908187866
1772572088497993500,1.728993408203125,-0.5523748993873596,-0.07987063378095627,-0.4291328489780426
1772572088515842300,1.74684228515625,-0.5123631954193115,-0.10705413669347763,-0.40912699699401855
1772572088533674000,1.764674072265625,-0.4225660264492035,-0.04306599870324135,-0.29565876722335815
1772572088551510000,1.782510009765625,-0.35353827476501465,0.048105638474226,-0.16294831037521362
1772572088569341200,1.800341064453125,-0.3202461004257202,0.09789115190505981,-0.06658431142568588
1772572088587177200,1.81817724609375,-0.299476683139801,0.13255776464939117,-0.02321287989616394
1772572088605011700,1.83601171875,-0.25106561183929443,0.14874568581581116,-0.007024950347840786
1772572088622846200,1.85384619140625,-0.1745547503232956,0.07742717117071152,0.010995574295520782
1772572088640680700,1.8716806640625,-0.11530081182718277,-0.047189339995384216,0.05192354694008827
1772572088658510000,1.889510009765625,-0.0685696229338646,-0.21594086289405823,0.11850785464048386
1772572088676349700,1.907349609375,-0.024892758578062057,-0.3718642294406891,0.16401731967926025
1772572088694184200,1.92518408203125,-0.0039706239476799965,-0.44135013222694397,0.20311269164085388
1772572088712018700,1.943018798828125,0.06811147183179855,-0.394008070230484,0.26374107599258423
1772572088729852700,1.960852783203125,0.23854288458824158,-0.1765400618314743,0.3828597962856293
1772572088747687400,1.9786875,0.38117989897727966,0.010231993161141872,0.42867469787597656
1772572088765503000,1.9965029296875,0.40943244099617004,0.024892758578062057,0.3058907687664032
1772572088783356200,2.014356201171875,0.32330042123794556,-0.17104226350784302,0.09483683109283447
1772572088801190700,2.032190673828125,0.13255776464939117,-0.38347065448760986,-0.06902777403593063
1772572088819007000,2.050007080078125,-0.026572637259960175,-0.4199698567390442,-0.10797043144702911
1772572088836859600,2.067859619140625,-0.09651670604944229,-0.21349740028381348,-0.01863138936460018
1772572088854694000,2.08569384765625,0.0024434609804302454,0.06062837690114975,0.18997909128665924
1772572088872528600,2.103528564453125,0.21807889640331268,0.29138273000717163,0.4248567819595337
1772572088890363000,2.12136279296875,0.4101960062980652,0.3856086730957031,0.6032294034957886
1772572088908198000,2.139197998046875,0.5135849714279175,0.38499781489372253,0.6702718734741211
1772572088926032000,2.157031982421875,0.5083925724029541,0.3168863356113434,0.5914703011512756
1772572088943866600,2.17486669921875,0.43676865100860596,0.22021691501140594,0.4303545653820038
1772572088961700600,2.19270068359375,0.39217549562454224,0.07635815441608429,0.27382034063339233
1772572088979535000,2.21053515625,0.4225660264492035,-0.12095131725072861,0.09483683109283447
1772572088997370000,2.2283701171875,0.4537201523780823,-0.24938572943210602,-0.1592831164598465
1772572089015201300,2.246201171875,0.39553526043891907,-0.3471241891384125,-0.42378777265548706
1772572089033041000,2.264041015625,0.24434609711170197,-0.35216382145881653,-0.603076696395874
1772572089050870500,2.28187060546875,0.059864792972803116,-0.22632557153701782,-0.6372851729393005
1772572089068710400,2.29971044921875,-0.08307767659425735,-0.023365596309304237,-0.52702397108078
1772572089086541600,2.31754150390625,-0.10094548016786575,0.1287398487329483,-0.355981707572937
1772572089104376300,2.335376220703125,-0.01191187184303999,0.230448916554451,-0.1794416606426239
1772572089122210800,2.3532109375,0.1010981947183609,0.2646573781967163,-0.028099801391363144
1772572089140045000,2.371045166015625,0.1696678251028061,0.20402899384498596,0.09254608303308487
1772572089157879600,2.388879638671875,0.1774563491344452,0.1508837193250656,0.1774563491344452
1772572089175714300,2.40671435546875,0.12308934330940247,0.1635591685771942,0.24037547409534454
1772572089193548800,2.424548828125,0.059406645596027374,0.19058994948863983,0.26893341541290283
1772572089211383300,2.44238330078125,-0.015118914656341076,0.24373523890972137,0.22159136831760406
1772572089229217500,2.460217529296875,-0.054825156927108765,0.3052799105644226,0.11850785464048386
1772572089247051800,2.4780517578125,-0.08506298810243607,0.3517056703567505,-0.045204028487205505
1772572089264886500,2.495886474609375,-0.11804971098899841,0.3683517575263977,-0.20952677726745605
1772572089282721000,2.513720947265625,-0.1635591685771942,0.34804046154022217,-0.2785545587539673
1772572089300555500,2.531555419921875,-0.22770002484321594,0.19654589891433716,-0.2591595947742462
1772572089318393000,2.54939306640625,-0.32391130924224854,-0.0734565481543541,-0.18310685455799103
1772572089336224500,2.567224609375,-0.45036038756370544,-0.31123584508895874,-0.059864792972803116
1772572089354057700,2.5850576171875,-0.52702397108078,-0.3300199508666992,0.10766500234603882
1772572089371894500,2.60289453125,-0.494189977645874,-0.2811507284641266,0.2295326143503189
1772572089389727500,2.6207275390625,-0.3810271918773651,-0.13454307615756989,0.2945897579193115
1772572089407562000,2.63856201171875,-0.2503020465373993,0.07162395119667053,0.3058907687664032
1772572089425396700,2.656396728515625,-0.13271047174930573,0.2093740701675415,0.18997909128665924
1772572089443231200,2.674231201171875,-0.15073099732398987,0.22281309962272644,-0.06520986557006836
1772572089461062400,2.6920625,-0.3361285924911499,0.12492194026708603,-0.3309362530708313
1772572089478900200,2.709900146484375,-0.5876523852348328,-0.006108652334660292,-0.42730024456977844
1772572089496737300,2.7277373046875,-0.6979135274887085,0.02229658141732216,-0.26190847158432007
1772572089514565000,2.745565185546875,-0.6449210047721863,0.09239336848258972,0.027641652151942253
1772572089532407600,2.763407470703125,-0.47311514616012573,0.05497787147760391,0.3165809214115143
1772572089550234600,2.781234619140625,-0.3220787048339844,-0.03680463135242462,0.5096143484115601
1772572089568075300,2.7990751953125,-0.24190263450145721,-0.04932736977934837,0.5807801485061646
1772572089585906700,2.81690673828125,-0.20066922903060913,-0.03497203439474106,0.5401576161384583
1772572089603741200,2.8347412109375,-0.14737124741077423,-0.08765916526317596,0.43508878350257874
1772572089621575700,2.85257568359375,-0.10506882518529892,-0.1837177276611328,0.2848159074783325
1772572089639410000,2.870409912109375,-0.1059851199388504,-0.22892175614833832,0.14767667651176453
1772572089657244700,2.88824462890625,-0.1290452778339386,-0.24572055041790009,0.11392636597156525
1772572089675079000,2.906078857421875,-0.13286319375038147,-0.2496911734342575,0.1440114825963974
1772572089692913700,2.92391357421875,-0.13790282607078552,-0.18020524084568024,0.14614951610565186
1772572089710748400,2.94174853515625,-0.15531249344348907,-0.01878410577774048,0.08933904021978378
1772572089728582100,2.95958203125,-0.16859880089759827,0.08384125679731369,-0.020005837082862854
1772572089746417000,2.9774169921875,-0.18035796284675598,0.10384709388017654,-0.11071932315826416
1772572089764252000,2.995251953125,-0.18020524084568024,0.09957103431224823,-0.10690141469240189
1772572089782090800,3.0130908203125,-0.1287398487329483,0.048258353024721146,-0.03298672288656235
1772572089799920000,3.030920166015625,-0.048105638474226,0.007788531947880983,0.04688390716910362
1772572089817755100,3.048755126953125,-0.009621127508580685,0.0708603709936142,0.11301007121801376
1772572089835589600,3.066589599609375,-0.006719517521560192,0.12049316614866257,0.1647808998823166
1772572089853423900,3.084423828125,0.0065668015740811825,0.1186605766415596,0.19792033731937408
1772572089871258400,3.10225830078125,0.04886921867728233,0.13866640627384186,0.2444988191127777
1772572089889092600,3.120092529296875,0.07941248267889023,0.16340644657611847,0.27259862422943115
1772572089906927600,3.137927734375,0.07788532227277756,0.10690141469240189,0.294437050819397
1772572089924761600,3.15576171875,0.06627888232469559,-0.0027488935738801956,0.2730567753314972
1772572089942596400,3.173596435546875,0.025503624230623245,-0.0884227454662323,0.17592918872833252
1772572089960430300,3.191430419921875,0.0009162978967651725,-0.08765916526317596,0.06398813426494598
1772572089978262000,3.209261962890625,0.05497787147760391,0.09193521738052368,0.03756821155548096
1772572089996102700,3.2271025390625,0.2519819140434265,0.4758640229701996,0.10048733651638031
1772572090024991200,3.2559912109375,0.45326200127601624,1.0184650421142578,0.1316414624452591
1772572090042914000,3.2739140625,0.4080579876899719,0.789237916469574,0.013133603148162365
1772572090060748300,3.291748291015625,0.20983220636844635,0.2643519341945648,-0.15836681425571442
1772572090078579700,3.309579833984375,-0.03741549700498581,-0.08078692853450775,-0.18600846827030182
1772572090096409900,3.327409912109375,-0.12538009881973267,-0.037110064178705215,0.003054326167330146
1772572090114239500,3.345239501953125,0.025045474991202354,0.19379699230194092,0.2796235680580139
1772572090132088800,3.3630888671875,0.3130684494972229,0.3917173445224762,0.4911356568336487
1772572090149917400,3.38091748046875,0.5123631954193115,0.34987306594848633,0.537408709526062
1772572090167758300,3.39875830078125,0.5777258276939392,0.1918116807937622,0.4818199574947357
1772572090185589800,3.41658984375,0.5535966157913208,0.03420845419168472,0.36163222789764404
1772572090203424000,3.434424072265625,0.4836525619029999,-0.10155634582042694,0.2278527319431305
1772572090221258500,3.452258544921875,0.4193589985370636,-0.23365595936775208,0.07177666574716568
1772572090239093000,3.470093017578125,0.39156460762023926,-0.35384368896484375,-0.06582073122262955
1772572090256927700,3.487927734375,0.347276896238327,-0.35842517018318176,-0.144622340798378
1772572090274762200,3.50576220703125,0.2545780837535858,-0.2799290120601654,-0.25213462114334106
1772572090292597000,3.523596923828125,0.14294247329235077,-0.07590000331401825,-0.4108068645000458
1772572090310431000,3.541430908203125,0.08170322328805923,0.21670444309711456,-0.5433646440505981
1772572090328265700,3.559265625,0.09193521738052368,0.4265366494655609,-0.5899431109428406
1772572090346100200,3.577100341796875,0.14385876059532166,0.4908302128314972,-0.5320636034011841
1772572090363936300,3.594936279296875,0.18325957655906677,0.4677700698375702,-0.41401392221450806
1772572090381768200,3.612768310546875,0.1869247704744339,0.30115658044815063,-0.31551191210746765
1772572090399603500,3.630603515625,0.15302173793315887,0.06902777403593063,-0.24419337511062622
1772572090417438200,3.648438232421875,0.0959058403968811,-0.07651086896657944,-0.19226983189582825
1772572090435272700,3.666272705078125,0.05604688450694084,-0.01038470957428217,-0.1391245573759079
1772572090453107200,3.684107177734375,0.05100724846124649,0.18356500566005707,-0.12446379661560059
1772572090470924300,3.70192431640625,0.055894169956445694,0.44257187843322754,-0.25702154636383057
1772572090488761600,3.71976171875,0.060322944074869156,0.5968153476715088,-0.5239696502685547
1772572090506610700,3.737610595703125,-0.002138028386980295,0.6052147150039673,-0.7695375084877014
1772572090524447500,3.755447509765625,-0.13072516024112701,0.5302310585975647,-0.8717046976089478
1772572090542279400,3.773279541015625,-0.26053401827812195,0.31230485439300537,-0.7956519722938538
1772572090560113400,3.791113525390625,-0.33292156457901,0.10445795953273773,-0.5638286471366882
1772572090577948400,3.808948486328125,-0.33689218759536743,-0.001527163083665073,-0.2652682363986969
1772572090595783000,3.826782958984375,-0.23487769067287445,-0.11774427443742752,0.028557950630784035
1772572090613617400,3.844617431640625,-0.05513058975338936,-0.16691893339157104,0.23029619455337524
1772572090631451600,3.86245166015625,0.1137736514210701,-0.1771509200334549,0.2880229651927948
1772572090649286100,3.8802861328125,0.1843285858631134,-0.24297164380550385,0.20693060755729675
1772572090667120600,3.89812060546875,0.13408492505550385,-0.28878653049468994,0.006719517521560192
1772572090684955000,3.915954833984375,-0.04337143152952194,-0.4349360466003418,-0.22357667982578278
1772572090702789600,3.93378955078125,-0.27091872692108154,-0.6018549799919128,-0.3442225754261017
1772572090720624000,3.9516240234375,-0.44287729263305664,-0.7519751191139221,-0.29016098380088806
1772572090738454800,3.969454833984375,-0.5254968404769897,-0.7061602473258972,-0.04108068719506264
1772572090756279800,3.98727978515625,-0.4447098970413208,-0.4421137273311615,0.32589662075042725
1772572090774127600,4.005127685546875,-0.25366178154945374,-0.08414668589830399,0.6411030888557434
1772572090791962400,4.02296240234375,-0.11285735666751862,0.02535090781748295,0.7486153841018677
1772572090809796600,4.040796630859375,-0.03375030308961868,0.0354301854968071,0.7189884185791016
1772572090827631000,4.058631103515625,-0.015882495790719986,0.07941248267889023,0.6162103414535522
1772572090845465900,4.0764658203125,-0.02871066704392433,0.10980302840471268,0.494189977645874
1772572090863300400,4.09430029296875,-0.05604688450694084,0.03191770985722542,0.35475999116897583
1772572090881134600,4.112134521484375,-0.08689557760953903,-0.0913243517279625,0.2370157092809677
1772572090898968800,4.12996875,-0.10537425428628922,-0.20586158335208893,0.17043140530586243
1772572090916803800,4.147803955078125,-0.1137736514210701,-0.2968805134296417,0.15454891324043274
1772572090934637800,4.165637939453125,-0.11209376901388168,-0.15332718193531036,0.1258382350206375
1772572090952472300,4.183472412109375,-0.07513642311096191,0.28038713335990906,0.001527163083665073
1772572090970306600,4.201306640625,-0.031612277030944824,0.5835290551185608,-0.10201449692249298
1772572090988141000,4.21914111328125,-0.05100724846124649,0.6163630485534668,-0.03787364438176155
1772572091005975600,4.2369755859375,-0.1339322030544281,0.42730024456977844,0.19532416760921478
1772572091023810000,4.25481005859375,-0.15454891324043274,0.14767667651176453,0.446389764547348
1772572091041644500,4.27264453125,-0.08475755155086517,-0.012980886735022068,0.594524621963501
1772572091059479000,4.29047900390625,0.03191770985722542,0.0012217304902151227,0.603687584400177
1772572091077313500,4.3083134765625,0.2025018334388733,0.14263702929019928,0.523511528968811
1772572091095148500,4.3261484375,0.3885102868080139,0.32971450686454773,0.413097620010376
1772572091112982800,4.343982666015625,0.49006664752960205,0.41431936621665955,0.3315471112728119
1772572091130816800,4.361816650390625,0.5427537560462952,0.45662176609039307,0.342695415019989
1772572091148651300,4.3796513671875,0.5852088928222656,0.3880521357059479,0.36010506749153137
1772572091166485800,4.39748583984375,0.5751296281814575,0.1837177276611328,0.30863967537879944
1772572091184320300,4.4153203125,0.5230533480644226,-0.1563815027475357,0.20128010213375092
1772572091202142700,4.433142822265625,0.5056437253952026,-0.3880521357059479,0.13255776464939117
1772572091219977700,4.450977783203125,0.5177083015441895,-0.242513507604599,0.0507018156349659
1772572091237824000,4.468823974609375,0.630871057510376,0.3419318199157715,-0.005192354787141085
1772572091255642000,4.48664208984375,0.7857254147529602,0.7683157324790955,-0.01160643994808197
1772572091273493000,4.504492919921875,0.912938117980957,0.7480044960975647,0.036193765699863434
1772572091291327500,4.522327392578125,0.9801332950592041,0.3410155177116394,0.08781187981367111
1772572091309162000,4.540161865234375,0.8776606321334839,-0.14569136500358582,0.09834930300712585
1772572091326996200,4.557996337890625,0.7429648637771606,-0.31230485439300537,0.12324206531047821
1772572091344831200,4.575831298828125,0.6345362663269043,-0.2961169183254242,0.16768251359462738
1772572091362665500,4.59366552734375,0.5722280144691467,-0.10293079167604446,0.23151792585849762
1772572091380499700,4.611499755859375,0.633009135723114,0.17837265133857727,0.3010038435459137
1772572091398334500,4.62933447265625,0.7782423496246338,0.3562871515750885,0.35781431198120117
1772572091416169500,4.64716943359375,0.8477282524108887,0.3400992155075073,0.38148534297943115
1772572091434002000,4.665001953125,0.8532260060310364,0.1843285858631134,0.3549126982688904
1772572091451836700,4.682836669921875,0.8142833709716797,0.11362093687057495,0.2541199326515198
1772572091469674000,4.700674072265625,0.7531968355178833,0.26419922709465027,0.11438451707363129
1772572091487506700,4.718506591796875,0.7397578358650208,0.46105054020881653,-0.06398813426494598
1772572091505341000,4.7363408203125,0.8022187948226929,0.5780312418937683,-0.2620611786842346
1772572091523175400,4.754175537109375,0.888961672782898,0.5419901609420776,-0.46990808844566345
1772572091541010200,4.77201025390625,0.9491318464279175,0.3810271918773651,-0.6522513628005981
1772572091558844400,4.789844482421875,0.9921978712081909,0.18677204847335815,-0.7391469478607178
1772572091576679200,4.80767919921875,1.0111347436904907,0.08414668589830399,-0.7502952218055725
1772572091594513400,4.825513427734375,1.043968677520752,0.1160643994808197,-0.7333437204360962
1772572091612348200,4.84334814453125,1.0790934562683105,0.3156646192073822,-0.6546948552131653
1772572091630182700,4.8611826171875,1.1542298793792725,0.3914119005203247,-0.5432119369506836
1772572091648017000,4.879016845703125,1.2318097352981567,0.3367394804954529,-0.4079052805900574
1772572091665851600,4.8968515625,1.2389874458312988,0.2981022298336029,-0.27748554944992065
1772572091683675600,4.914675537109375,1.1818715333938599,0.27488934993743896,-0.19547687470912933
1772572091701520100,4.93252001953125,1.126588225364685,0.24327708780765533,-0.11239920556545258
1772572091719344000,4.95034423828125,1.0697777271270752,0.2255619913339615,0.012217304669320583
1772572091737189600,4.968189697265625,1.0027352571487427,0.19226983189582825,0.1586722433567047
1772572091755011000,4.986010986328125,0.9282097220420837,0.15531249344348907,0.28725937008857727
1772572091772858600,5.003858642578125,0.8272642493247986,0.17180584371089935,0.3700316250324249
1772572091790692600,5.021692626953125,0.7041749358177185,0.1976149082183838,0.40485092997550964
1772572091808512300,5.03951220703125,0.5529857873916626,0.16890424489974976,0.3675881624221802
1772572091826360600,5.057360595703125,0.38209620118141174,0.11942415684461594,0.2756529450416565
1772572091844199400,5.075199462890625,0.24358251690864563,0.1014036312699318,0.21853704750537872
1772572091862030600,5.093030517578125,0.15745051205158234,0.14966198801994324,0.22678372263908386
1772572091879865000,5.110864990234375,0.11698069423437119,0.3240640163421631,0.2840523421764374
1772572091897696800,5.12869677734375,0.034666601568460464,0.4415028691291809,0.24892759323120117
1772572091915533300,5.146533203125,-0.06841690838336945,0.43020185828208923,0.032070424407720566
1772572091933373000,5.164373046875,-0.18295414745807648,0.3321579694747925,-0.26908615231513977
1772572091951203000,5.182203125,-0.25442537665367126,0.23411411046981812,-0.5259549617767334
1772572091969037000,5.200037109375,-0.2724458873271942,0.18677204847335815,-0.6433938145637512
1772572091986871800,5.217871826171875,-0.2583959996700287,0.2548835277557373,-0.5711590051651001
1772572092004706300,5.235706298828125,-0.13668109476566315,0.34086281061172485,-0.3404046595096588
1772572092022540800,5.253540771484375,0.060322944074869156,0.4584543704986572,-0.02733621932566166
1772572092040375300,5.271375244140625,0.25182920694351196,0.5922338366508484,0.28878653049468994
1772572092058209800,5.289209716796875,0.35735616087913513,0.6094908118247986,0.4688390791416168
1772572092076044300,5.307044189453125,0.43615779280662537,0.5212207436561584,0.5132794976234436
1772572092093879000,5.324879150390625,0.5083925724029541,0.3854559659957886,0.4538728892803192
1772572092111713300,5.34271337890625,0.5703954100608826,0.26679539680480957,0.35185837745666504
1772572092129547300,5.36054736328125,0.6394231915473938,0.15012013912200928,0.20097467303276062
1772572092147382000,5.378382080078125,0.7202101349830627,0.08216137439012527,0.030543262138962746
1772572092165216800,5.396216796875,0.7870998978614807,0.08460483700037003,-0.08597928285598755
1772572092183038500,5.41403857421875,0.8335255980491638,0.11468994617462158,-0.12568552792072296
1772572092200885500,5.431885498046875,0.8455902338027954,0.10903944820165634,-0.14019356667995453
1772572092218720000,5.449719970703125,0.8289441466331482,0.1316414624452591,-0.16523905098438263
1772572092236554800,5.4675546875,0.8443684577941895,0.1690569519996643,-0.18249599635601044
1772572092254389000,5.485388916015625,0.9465357065200806,0.10583240538835526,-0.18280142545700073
1772572092272223700,5.5032236328125,1.0196868181228638,0.031001411378383636,-0.18387043476104736
1772572092290057700,5.5210576171875,1.0338894128799438,0.07849618047475815,-0.14004085958003998
1772572092307893000,5.53889306640625,1.0343475341796875,0.11285735666751862,-0.07238753139972687
1772572092325727000,5.55672705078125,1.0125091075897217,0.1082758679986,0.01237002108246088
1772572092343561700,5.574561767578125,1.0126618146896362,0.14569136500358582,0.10934487730264664
1772572092361395500,5.5923955078125,1.047023057937622,0.22678372263908386,0.18020524084568024
1772572092379226600,5.6102265625,1.064738154411316,0.3029891550540924,0.20601430535316467
1772572092397068300,5.628068359375,1.0250319242477417,0.36819902062416077,0.18295414745807648
1772572092414896000,5.645896240234375,0.9414960741996765,0.44455718994140625,0.13454307615756989
1772572092432736800,5.66373681640625,0.8619308471679688,0.45402559638023376,0.08781187981367111
1772572092450564900,5.68156494140625,0.8306240439414978,0.4132503271102905,0.031612277030944824
1772572092468394500,5.69939453125,0.8655960559844971,0.4138612151145935,-0.03191770985722542
1772572092486228200,5.717228271484375,0.9231700897216797,0.39446622133255005,-0.04703662544488907
1772572092504067800,5.73506787109375,0.9897544384002686,0.39904773235321045,-0.010690141469240189
1772572092521910000,5.752909912109375,1.0893254280090332,0.5540547966957092,0.03955352306365967
1772572092539740200,5.770740234375,1.2244794368743896,0.8408560156822205,0.10690141469240189
1772572092557574700,5.78857470703125,1.2589932680130005,0.7686212062835693,0.07376197725534439
1772572092575409400,5.806409423828125,1.2008084058761597,0.46761733293533325,-0.04535674303770065
1772572092593244000,5.824243896484375,1.0867292881011963,0.23839016258716583,-0.2119702398777008
1772572092611078100,5.842078125,1.0001391172409058,0.1485929638147354,-0.36942076683044434
1772572092628912600,5.85991259765625,0.9604328870773315,0.29367345571517944,-0.44516804814338684
1772572092646747100,5.8777470703125,1.0299187898635864,0.5598580241203308,-0.39217549562454224
1772572092664582000,5.895581787109375,1.2316570281982422,0.845132052898407,-0.18341228365898132
1772572092682416400,5.91341650390625,1.430799126625061,0.9621127843856812,0.001679879380390048
1772572092700250400,5.93125048828125,1.5183055400848389,0.7828238010406494,0.05742133408784866
1772572092718085000,5.949085205078125,1.4534010887145996,0.49617528915405273,0.019853120669722557
1772572092735919400,5.96691943359375,1.2797627449035645,0.2889392673969269,-0.0529925599694252
1772572092753754000,5.984754150390625,1.1647672653198242,0.078343465924263,-0.09972374886274338
1772572092771588000,6.002588134765625,1.1372783184051514,-0.09376781433820724,-0.14508049190044403
1772572092789422600,6.020422607421875,1.0795515775680542,-0.08200865983963013,-0.20128010213375092
1772572092807257300,6.03825732421875,0.9870055317878723,0.05406157299876213,-0.2632829248905182
1772572092825091300,6.05609130859375,0.8949176073074341,0.24617868661880493,-0.29504790902137756
1772572092842926000,6.073926025390625,0.8266534209251404,0.3764457106590271,-0.25305092334747314
1772572092860760600,6.091760498046875,0.7615962624549866,0.337044894695282,-0.21395555138587952
1772572092878591700,6.109591796875,0.697149932384491,0.1996002197265625,-0.2353358417749405
1772572092896433000,6.127432861328125,0.6681338548660278,0.1498146951198578,-0.25595253705978394
1772572092914263800,6.145263916015625,0.6687447428703308,0.10277807712554932,-0.27718010544776917
1772572092932098600,6.1630986328125,0.6684392690658569,0.06291911751031876,-0.304210901260376
1772572092949932800,6.180932861328125,0.636521577835083,0.05696318298578262,-0.2922990322113037
1772572092967767300,6.198767333984375,0.5798638463020325,0.07651086896657944,-0.20097467303276062
1772572092985601500,6.2166015625,0.5192354321479797,0.13668109476566315,-0.08002334833145142
1772572093003436000,6.23443603515625,0.48487427830696106,0.14935655891895294,0.030695978552103043
1772572093021270800,6.252270751953125,0.4306600093841553,0.10094548016786575,0.10277807712554932
1772572093039105000,6.27010498046875,0.36621370911598206,0.08506298810243607,0.11988230794668198
1772572093056929300,6.28792919921875,0.2970332205295563,0.13011430203914642,0.06062837690114975
1772572093074774300,6.305774169921875,0.22632557153701782,0.18845193088054657,-0.03084869496524334
1772572093092598000,6.323597900390625,0.19715675711631775,0.24953845143318176,-0.1189660057425499
1772572093110443000,6.341443115234375,0.18448130786418915,0.18707747757434845,-0.21013765037059784
1772572093128277200,6.35927734375,0.12568552792072296,0.006108652334660292,-0.24083362519741058
1772572093146112000,6.377112060546875,0.03573561832308769,-0.12095131725072861,-0.18738290667533875
1772572093163945500,6.394945556640625,0.001527163083665073,-0.026419922709465027,-0.036041051149368286
1772572093181781800,6.41278173828125,0.05406157299876213,0.20906862616539001,0.13805554807186127
1772572093199615200,6.430615234375,0.012522737495601177,0.3400992155075073,0.1869247704744339
1772572093217450000,6.448449951171875,-0.06429356336593628,0.40851613879203796,0.08552113175392151
1772572093235280100,6.466280029296875,-0.16493362188339233,0.3263547718524933,-0.11178833991289139
1772572093253116000,6.484115966796875,-0.25564709305763245,0.14905111491680145,-0.2591595947742462
1772572093270951200,6.501951171875,-0.3176499307155609,0.06475171446800232,-0.2623666226863861
1772572093288787500,6.519787353515625,-0.3448334336280823,0.1537853181362152,-0.11010845750570297
1772572093306609700,6.537609619140625,-0.2672535479068756,0.3055853247642517,0.09300423413515091
1772572093324444700,6.555444580078125,-0.1270599663257599,0.35323283076286316,0.24159720540046692
1772572093342291000,6.573291015625,-0.05207626149058342,0.29794952273368835,0.29397889971733093
1772572093360125000,6.591125,-0.01725694350898266,0.24098633229732513,0.2652682363986969
1772572093377959700,6.608959716796875,0.04184427112340927,0.2116648107767105,0.1950187236070633
1772572093395794400,6.62679443359375,0.12553280591964722,0.14492778480052948,0.07360926270484924
1772572093413628700,6.644628662109375,0.18310685455799103,0.04734205827116966,-0.1111774742603302
1772572093431463200,6.662463134765625,0.20173825323581696,-0.014049900695681572,-0.27290403842926025
1772572093449297400,6.68029736328125,0.22281309962272644,-0.05742133408784866,-0.3660610020160675
1772572093467132000,6.6981318359375,0.24755313992500305,0.028557950630784035,-0.3533855378627777
1772572093484963000,6.715963134765625,0.244804248213768,0.15347988903522491,-0.28267788887023926
1772572093502797000,6.733797119140625,0.20204368233680725,0.2571742534637451,-0.17073683440685272
1772572093520621000,6.75162109375,0.16569720208644867,0.2698497176170349,-0.02825251780450344
1772572093538466000,6.769466064453125,0.15806138515472412,0.21624629199504852,0.11621711403131485
1772572093556291800,6.787291748046875,0.17577648162841797,0.20128010213375092,0.2779437005519867
1772572093574138600,6.805138671875,0.20799961686134338,0.20555615425109863,0.4210388660430908
1772572093591973000,6.82297314453125,0.22632557153701782,0.2499966025352478,0.5128213763237
1772572093609807600,6.8408076171875,0.2669481039047241,0.34162637591362,0.566119372844696
1772572093627642000,6.85864208984375,0.2984076738357544,0.43676865100860596,0.5711590051651001
1772572093645476400,6.876476318359375,0.2710714638233185,0.3692680299282074,0.5326744914054871
1772572093663311000,6.89431103515625,0.21181751787662506,0.16829337179660797,0.4343251883983612
1772572093681145300,6.912145263671875,0.1823432743549347,-0.014813481830060482,0.26771169900894165
1772572093698979800,6.929979736328125,0.17547103762626648,-0.10522153973579407,0.09529497474431992
1772572093716811300,6.947811279296875,0.21288654208183289,-0.08399397134780884,0.06658431142568588
1772572093734651600,6.965651611328125,0.342695415019989,-0.012675453908741474,0.21960605680942535
1772572093752480000,6.98347998046875,0.5852088928222656,0.18784105777740479,0.5093088746070862
1772572093770320400,7.0013203125,0.8093964457511902,0.2945897579193115,0.8003861904144287
1772572093788151800,7.01915185546875,0.9228646755218506,0.16294831037521362,0.9234755635261536
1772572093805986300,7.036986328125,0.9390525817871094,-0.11560624837875366,0.8225300312042236
1772572093823820800,7.05482080078125,0.788627028465271,-0.4867068827152252,0.5143485069274902
1772572093841655000,7.072655029296875,0.5451972484588623,-0.5844452977180481,0.18600846827030182
1772572093859489800,7.09048974609375,0.4053090810775757,-0.31581732630729675,0.04841107130050659
1772572093877324000,7.108323974609375,0.45265114307403564,0.1459967941045761,0.14004085958003998
1772572093895158800,7.12615869140625,0.5925393104553223,0.4729624092578888,0.33536502718925476
1772572093912993300,7.1439931640625,0.641255795955658,0.4795292317867279,0.483957976102829
1772572093930827300,7.1618271484375,0.5384777188301086,0.27641651034355164,0.5007568001747131
1772572093948662000,7.179662109375,0.30863967537879944,0.11942415684461594,0.403781920671463
1772572093966496500,7.19749658203125,0.0809396430850029,0.023060163483023643,0.27229318022727966
1772572093984313300,7.215313232421875,0.024587325751781464,-0.014813481830060482,0.1788308024406433
1772572094002165200,7.233165283203125,0.07742717117071152,-0.004123340360820293,0.12110403180122375
1772572094019987700,7.25098779296875,0.1342376321554184,0.024587325751781464,0.05253441259264946
1772572094037834200,7.268834228515625,0.11667526513338089,0.005039638374000788,-0.031001411378383636
1772572094055657700,7.28665771484375,0.09285151958465576,0.026572637259960175,-0.09834930300712585
1772572094073503200,7.304503173828125,0.12247848510742188,0.12293662875890732,-0.1644754707813263
1772572094091337200,7.322337158203125,0.12858712673187256,0.3179553747177124,-0.2243402600288391
1772572094109171700,7.340171630859375,0.05345070734620094,0.38637226819992065,-0.2866485118865967
1772572094127006000,7.358005859375,-0.06933320313692093,0.24144448339939117,-0.33597588539123535
1772572094144840700,7.3758408203125,-0.17379115521907806,-0.007788531947880983,-0.34544429183006287
1772572094162672400,7.39367236328125,-0.20693060755729675,-0.1111774742603302,-0.2984076738357544
1772572094180509400,7.411509521484375,-0.18600846827030182,-0.0884227454662323,-0.25076019763946533
1772572094198347300,7.42934716796875,-0.15500704944133759,-0.031612277030944824,-0.21288654208183289
1772572094216174300,7.44717431640625,-0.20234911143779755,-0.12278391420841217,-0.24663683772087097
1772572094234016300,7.465016357421875,-0.28649580478668213,-0.25213462114334106,-0.2796235680580139
1772572094251848200,7.48284814453125,-0.35964691638946533,-0.2808452844619751,-0.2515237629413605
1772572094269681400,7.500681396484375,-0.40103304386138916,-0.3712533414363861,-0.2379320114850998
1772572094287516000,7.518515869140625,-0.4101960062980652,-0.4599815309047699,-0.23136521875858307
1772572094305350400,7.536350341796875,-0.40424007177352905,-0.5143485069274902,-0.2096794992685318
1772572094323184600,7.5541845703125,-0.39217549562454224,-0.484416127204895,-0.17669276893138885
1772572094341019400,7.572019287109375,-0.37537670135498047,-0.4236350357532501,-0.1336267739534378
1772572094358853400,7.589853271484375,-0.35094207525253296,-0.27458393573760986,-0.02779436856508255
1772572094376688400,7.6076884765625,-0.294437050819397,-0.0913243517279625,0.1371392458677292
1772572094394522600,7.625522705078125,-0.25854870676994324,-0.016340645030140877,0.23380866646766663
1772572094412357400,7.643357421875,-0.2542726695537567,0.0064140851609408855,0.18448130786418915
1772572094430191400,7.66119140625,-0.29565876722335815,0.05451972410082817,0.055894169956445694
1772572094448025900,7.67902587890625,-0.4308127164840698,-0.03329215571284294,-0.10751228034496307
1772572094465845500,7.696845458984375,-0.6215553879737854,-0.252287358045578,-0.2496911734342575
1772572094483684400,7.714684326171875,-0.702800452709198,-0.3911064863204956,-0.29764407873153687
1772572094501519400,7.732519287109375,-0.7095199823379517,-0.3721696436405182,-0.2767219543457031
1772572094519363300,7.75036328125,-0.6380487680435181,-0.15821409225463867,-0.19120082259178162
1772572094537198300,7.7681982421875,-0.4772384762763977,0.1215621829032898,-0.04703662544488907
1772572094555032600,7.786032470703125,-0.2503020465373993,0.2664899528026581,0.1082758679986
1772572094572867300,7.803867431640625,-0.04245513305068016,0.2993239760398865,0.21578814089298248
1772572094590701000,7.821701171875,0.11530081182718277,0.270766019821167,0.2736676335334778
1772572094608536800,7.839536865234375,0.21349740028381348,0.1670716404914856,0.34895676374435425
1772572094626367700,7.85736767578125,0.27611109614372253,0.03130684420466423,0.4541783034801483
1772572094644207400,7.875207275390625,0.2718350291252136,-0.08949175477027893,0.48288896679878235
1772572094662038800,7.893038818359375,0.26190847158432007,-0.08506298810243607,0.3959933817386627
1772572094679872300,7.910872314453125,0.2600758671760559,0.0039706239476799965,0.2428189367055893
1772572094697709300,7.928709228515625,0.2626720666885376,0.15546520054340363,0.08918632566928864
1772572094715542000,7.9465419921875,0.30115658044815063,0.3715587854385376,-0.020311269909143448
1772572094733378000,7.9643779296875,0.3358231782913208,0.479834645986557,-0.07819075137376785
1772572094751209700,7.982209716796875,0.35643985867500305,0.4911356568336487,-0.08200865983963013
1772572094769047000,8.000047119140625,0.42668938636779785,0.49464812874794006,-0.026572637259960175
1772572094786879700,8.017879638671875,0.564592182636261,0.48456886410713196,0.0682641938328743
1772572094804714200,8.03571435546875,0.7021896243095398,0.49357911944389343,0.1699732542037964
1772572094822548700,8.053548828125,0.751669704914093,0.4726569950580597,0.21563543379306793
1772572094840383000,8.071383056640625,0.7673994898796082,0.49816060066223145,0.1898263692855835
1772572094858217500,8.089217529296874,0.8216137290000916,0.5772676467895508,0.13377949595451355
1772572094876052200,8.10705224609375,0.9109528064727783,0.660803496837616,0.10216721147298813
1772572094893886700,8.12488671875,0.9973902106285095,0.6776022911071777,0.07376197725534439
1772572094911721000,8.142720947265625,1.062447428703308,0.6646214127540588,0.0981965884566307
1772572094929555000,8.160554931640625,1.108567714691162,0.6385068893432617,0.17501288652420044
1772572094947390000,8.178389892578124,1.1624765396118164,0.5384777188301086,0.21303924918174744
1772572094965224400,8.196224365234375,1.228450059890747,0.40103304386138916,0.21349740028381348
1772572094983058700,8.21405859375,1.3022119998931885,0.26145032048225403,0.22098049521446228
1772572095000892700,8.231892578125,1.405600905418396,0.21838432550430298,0.2165517359972
1772572095018727200,8.24972705078125,1.5514450073242188,0.33658674359321594,0.2382374405860901
1772572095036562000,8.26756201171875,1.6797267198562622,0.5705481171607971,0.3066543638706207
1772572095054396400,8.285396484375,1.7747162580490112,0.6133087277412415,0.37720927596092224
1772572095072230700,8.303230712890626,1.8078557252883911,0.4363104999065399,0.35292738676071167
1772572095090065000,8.32106494140625,1.7484490871429443,0.25106561183929443,0.2974913716316223
1772572095107899600,8.338899658203125,1.6203200817108154,0.3176499307155609,0.29657506942749023
1772572095125733600,8.356733642578124,1.5222761631011963,0.6751587986946106,0.2767219543457031
1772572095143568100,8.374568115234375,1.5019649267196655,0.9567676782608032,0.23319780826568604
1772572095161402600,8.392402587890626,1.5326608419418335,0.978606104850769,0.22800545394420624
1772572095179236900,8.41023681640625,1.5717562437057495,0.8339837789535522,0.3147483170032501
1772572095197072000,8.42807177734375,1.5810719728469849,0.5624541640281677,0.44852781295776367
1772572095214906000,8.445906005859374,1.5616769790649414,0.4141666293144226,0.5164865851402283
1772572095232740600,8.46374072265625,1.493260145187378,0.4424191415309906,0.44104471802711487
1772572095250574300,8.48157421875,1.392925500869751,0.5505422949790955,0.2981022298336029
1772572095268405200,8.4994052734375,1.3634512424468994,0.6375905871391296,0.17012597620487213
1772572095286243300,8.517243408203125,1.356884479522705,0.6276640295982361,0.10476338863372803
1772572095304077800,8.535077880859374,1.297019600868225,0.6125451326370239,0.10949759185314178
1772572095321912600,8.55291259765625,1.192256212234497,0.5934556126594543,0.11407908797264099
1772572095339746600,8.57074658203125,1.062447428703308,0.5468770861625671,0.11499538272619247
1772572095357580800,8.588580810546874,0.949895441532135,0.5015203952789307,0.10491610318422318
1772572095375416000,8.606416015625,0.8607091307640076,0.5280929803848267,0.0705549344420433
1772572095393250300,8.624250244140624,0.8132143616676331,0.6559165716171265,0.0009162978967651725
1772572095411084300,8.642084228515625,0.7877107262611389,0.7118107080459595,-0.0630718395113945
1772572095428918800,8.659918701171875,0.8052731156349182,0.6919575929641724,-0.052228979766368866
1772572095446753300,8.677753173828124,0.8355109095573425,0.6963863968849182,-0.001527163083665073
1772572095464587800,8.695587890625,0.8361217975616455,0.6843217611312866,0.02977968007326126
1772572095482422500,8.713422607421874,0.8254316449165344,0.6553056836128235,0.041691552847623825
1772572095500256300,8.73125634765625,0.778853178024292,0.5839871764183044,0.07284568250179291
1772572095518091000,8.749091064453125,0.7867944240570068,0.3851505517959595,0.04108068719506264
1772572095535925500,8.766925537109374,0.806647539138794,0.35063666105270386,-0.01924225501716137
1772572095553759700,8.784759765625,0.8103127479553223,0.4735732674598694,-0.12767083942890167
1772572095571594000,8.802593994140626,0.8139779567718506,0.7244861721992493,-0.14508049190044403
