time,seconds_elapsed,z,y,x
1772461200924947500,0.092947509765625,0.028703531914949416,-0.08649086376670748,0.06429422952774912
1772461200934996500,0.10299658203125,0.055933484145998955,-0.07102918663884047,0.04548153863865882
1772461200945044500,0.11304443359375,-0.04791676642894745,-0.034685707030515184,0.04696971310349181
1772461200955092500,0.123092529296875,-0.07754501197338104,-0.03656850683612283,0.0518741805515252
1772461200965141500,0.1331416015625,-0.02786941917836666,-0.040667904978967266,0.02465579089410603
1772461200975189500,0.143189453125,0.014925766453146933,-0.05936513909511268,0.030121125361602753
1772461200985238500,0.153238525390625,-0.016801497197151183,-0.06637761623964179,0.06397986634895206
1772461200995286500,0.16328662109375,-0.06513619677722454,-0.05255657789169345,0.08265861039375885
1772461201005334300,0.173334228515625,-0.04762918165922165,-0.06196216071783565,0.057055035521835086
1772461201015383600,0.183383544921875,0.0005552957952022552,-0.05354945225340779,0.04153228955622762
1772461201025431300,0.193431396484375,-0.0010936404556035994,-0.03491514100537169,0.044468817932158705
1772461201035479600,0.2034794921875,-0.05107669176459312,-0.04466559174642898,0.035982893534470345
1772461201045528300,0.2135283203125,-0.05646539906561374,-0.0446472478055628,0.03680851243734359
1772461201055576600,0.22357666015625,-0.02549392221868038,-0.053467363460524935,0.04836640989258885
1772461201065624600,0.23362451171875,0.0002402384966611862,-0.04912985484602395,0.05824850135641172
1772461201075673600,0.243673583984375,-0.03492869004011154,-0.05451039710689801,0.06379258188223466
1772461201085721600,0.2537216796875,-0.06500877100527286,-0.04967057412660215,0.04187474631834775
1772461201095769300,0.263769287109375,-0.03718026835918426,-0.05286062973903026,0.040992154797539114
1772461201105818600,0.273818603515625,-0.00007481880187988281,-0.044771221245103514,0.041396278619021176
1772461201115866400,0.283866455078125,-0.012646715605258941,-0.050260516543500125,0.0573592608991079
1772461201125914600,0.29391455078125,-0.04766016131937503,-0.05122340219232719,0.050615741455648094
1772461201135963400,0.30396337890625,-0.051852352312207216,-0.06456884065147023,0.04785488017387688
1772461201146011600,0.31401171875,-0.022524551019072532,-0.06469417036445811,0.05302875741412863
1772461201156059400,0.324059326171875,-0.017290742018818854,-0.046374898148654024,0.05391980623602867
1772461201166107400,0.334107421875,-0.01549625981748104,-0.04311914318914059,0.04577358038779348
1772461201176155400,0.3441552734375,-0.04003741135597229,-0.04030278886046726,0.031426910730544474
1772461201186204400,0.354204345703125,-0.024328970092535016,-0.040917011768673545,0.037882078219298274
1772461201196252400,0.36425244140625,-0.024186346751451492,-0.05115195352446753,0.06038078241106122
1772461201206300200,0.374300048828125,-0.03227379161715507,-0.05753392791284714,0.05447798810806125
1772461201216349400,0.384349365234375,-0.033031331986188885,-0.0758529307005927,0.04581351053938269
1772461201226397200,0.394397216796875,-0.02751169178187847,-0.059229411285696545,0.04566043886952102
1772461201236445400,0.404445556640625,-0.039642274558544154,-0.03767025753294583,0.05087914163218811
1772461201246494200,0.414494140625,-0.02349485735595226,-0.0395346266327193,0.03946984060108662
1772461201256542500,0.42454248046875,-0.01572539239823818,-0.047242963387188495,0.031088636953197416
1772461201266590500,0.434590576171875,-0.04416881207227707,-0.041897433074191213,0.04594765831306576
1772461201276639500,0.444639404296875,-0.042242812445759774,-0.04891455442779697,0.048702966636884955
1772461201286687500,0.4546875,-0.031185411858558654,-0.05379170917721931,0.04775145633202046
1772461201296735200,0.4647353515625,-0.027159809604287145,-0.05025012301364913,0.045528629183396695
1772461201306784500,0.474784423828125,-0.019691957941651343,-0.055280016072792926,0.050480607301276174
1772461201316832300,0.484832275390625,-0.04349602737724781,-0.04502825561293866,0.04961125885453075
1772461201326881500,0.494881591796875,-0.037521044620871545,-0.047211253074673,0.047491325824800874
1772461201336929300,0.50492919921875,-0.010744096854329109,-0.04910946507854387,0.03751415822235867
1772461201346977300,0.514977294921875,-0.030356559818983078,-0.03379283614428714,0.03255891043515876
1772461201357026300,0.5250263671875,-0.04578033892214298,-0.035110289118136274,0.033403416701592505
1772461201367074300,0.53507421875,-0.03860883985757828,-0.0393992915489478,0.04082377596069127
1772461201377122300,0.545122314453125,-0.025900164932012557,-0.0395480569364503,0.04032731594694778
1772461201387171300,0.55517138671875,-0.020528408765792844,-0.03918257092519197,0.04040387004818767
1772461201397219300,0.56521923828125,-0.03819909001290798,-0.04401309178760275,0.04161843346972018
1772461201407267300,0.575267333984375,-0.02414543021917343,-0.054894345790031364,0.042112482330668714
1772461201417316400,0.58531640625,-0.020263620349764824,-0.05888816923312842,0.04425762286689132
1772461201427364400,0.5953642578125,-0.0175806648761034,-0.04824835017060395,0.03747824665876105
1772461201437412400,0.605412353515625,-0.025818331867456433,-0.03958786379045341,0.039198640710581094
1772461201447461400,0.61546142578125,-0.03884966287612915,-0.030708793623023665,0.023325291209015993
1772461201457509400,0.62550927734375,-0.037214170628786084,-0.026327112506655974,0.01850965282190591
1772461201467558400,0.635558349609375,-0.02076046395599842,-0.03768224936483893,0.025956589560676365
1772461201477606400,0.6456064453125,-0.02151858884692192,-0.03179399047726765,0.03599321399908512
1772461201487654400,0.655654296875,-0.030652327895164488,-0.03851622967068106,0.03839086799165234
1772461201497703400,0.665703369140625,-0.023783026647567748,-0.051994304366433056,0.042449714928399766
1772461201507751400,0.67575146484375,-0.025585107633471486,-0.057299406770919444,0.03970050755180418
1772461201517799400,0.68579931640625,-0.016917232531309126,-0.049495916246017437,0.03068089640252292
1772461201527848200,0.69584814453125,-0.03682546357214451,-0.03635654001929797,0.04227476022029295
1772461201537896400,0.705896484375,-0.02485913144648075,-0.041071489944332275,0.03717369248792529
1772461201547944200,0.715944091796875,-0.011544307321310043,-0.04029319904821459,0.029185671142395585
1772461201557993500,0.725993408203125,0.01971826142668724,-0.03291971113814506,0.02672393893767148
1772461201568041200,0.736041259765625,0.14929273584485053,-0.03176208380192984,0.02492616880070418
1772461201578089200,0.746089111328125,0.21676175948381424,-0.0350921187072061,0.016040541028324515
1772461201588138200,0.75613818359375,-0.33780221431255336,-0.04858801675401628,0.02797331794425845
1772461201598186200,0.766186279296875,-0.6074369013279676,-0.04488420293317176,0.058335412454884494
1772461201608235300,0.7762353515625,0.05337736992239952,-0.05012493029797915,0.04237875031773001
1772461201618283300,0.786283203125,0.5043763398259878,-0.05136103426446206,0.021052688368223608
1772461201628331500,0.79633154296875,0.12024375149309635,-0.04373804683904163,0.03515447988631203
1772461201638380300,0.80638037109375,-0.2917196775734424,-0.030002988007804376,0.05472352383434772
1772461201648428500,0.816428466796875,-0.17186112600564957,-0.0187119430615101,0.04143779793949798
1772461201658476300,0.826476318359375,0.10616320369243622,-0.03799360773579683,0.030087862412817773
1772461201668525600,0.836525634765625,0.095083591273427,-0.05466072883040178,0.019723905716184525
1772461201678573300,0.8465732421875,-0.06668342621922492,-0.04763712293708231,0.034469201035890726
1772461201688621300,0.856621337890625,-0.1181628535658121,-0.0344950615629321,0.06686060941703617
1772461201698670300,0.86667041015625,-0.04020633818209171,-0.02365524011601228,0.06344875514693558
1772461201708718300,0.87671826171875,0.03744914842844009,-0.02820242312555201,0.03887587502961978
1772461201718767400,0.886767333984375,-0.007150456276535987,-0.04169001456832047,0.009941347370389849
1772461201728815400,0.8968154296875,-0.07075052952766418,-0.0485587723932229,0.012520276213996111
1772461201738863400,0.90686328125,-0.06641220806241036,-0.03741720978706144,0.0348376324894838
1772461201748912400,0.916912353515625,-0.03858312089443207,-0.03208461658745072,0.04005891080172732
1772461201758960000,0.926960205078125,-0.008511807757616043,-0.03443158157239668,0.03030108503839001
1772461201769008400,0.93700830078125,-0.0034323125362396237,-0.03314852862507105,0.03723444623183459
1772461201779057200,0.94705712890625,-0.03201835555136204,-0.027372447707969694,0.03920012028161436
1772461201789105400,0.95710546875,-0.04444003022909164,-0.02805717856911942,0.03136045789821073
1772461201799153400,0.9671533203125,-0.03531447448730469,-0.05194900848655961,0.028189225717261433
1772461201809202400,0.977202392578125,-0.019154782325029374,-0.04686787843052297,0.017517719175107777
1772461201819250400,0.98725048828125,-0.02095394070148468,-0.0395641038889531,0.033592034608870745
1772461201829299500,0.997299560546875,-0.026195348486304282,-0.02743644372173585,0.042000838649738574
1772461201839347500,1.007347412109375,-0.01303016196489334,-0.04032088620616123,0.03309263371936977
1772461201849395200,1.017395263671875,-0.002859481084346771,-0.03868721145656891,0.029356936056073753
1772461201859444500,1.027444580078125,-0.03982873704135418,-0.03763641462884843,0.024872630248870698
1772461201869492200,1.0374921875,-0.04776595978140831,-0.03452402736251242,0.034288145380560305
1772461201879540500,1.04754052734375,-0.02158405529856682,-0.04607438996527344,0.03375135335642844
1772461201889589200,1.05758935546875,-0.03580781096220016,-0.03930980946747586,0.02917774356426671
1772461201899637500,1.067637451171875,-0.02773907079696655,-0.02563731274474412,0.02301107416069135
1772461201909685200,1.077685302734375,-0.0204214412599802,-0.02482254402944818,0.035516189338173715
1772461201919734300,1.087734375,-0.034947979262471195,-0.033293818847276266,0.04165480169104412
1772461201929782300,1.0977822265625,-0.055306876680254934,-0.04388995859827846,0.030561836600117385
1772461201939831300,1.107831298828125,-0.04379296449720859,-0.052973848889116194,0.032558234581723806
1772461201949879300,1.11787939453125,-0.02689560571014881,-0.04760178219564259,0.04400054283328354
1772461201959927300,1.12792724609375,-0.03588847498297691,-0.036437231439538295,0.04043247508816421
1772461201969976300,1.137976318359375,-0.035299276918172834,-0.02759011817979626,0.0412053956894204
1772461201980024300,1.1480244140625,-0.02632920399904251,-0.032463258907804264,0.03861844793614
1772461201990072300,1.158072265625,-0.013022563180327415,-0.02779234448731877,0.028662231790181247
1772461202000121300,1.168121337890625,-0.035030396848917005,-0.03050617915643379,0.027271416752599177
1772461202010169300,1.17816943359375,-0.04282265816032886,-0.03734400755353272,0.03893653744198382
1772461202020217300,1.18821728515625,-0.0308610022097826,-0.03701590811032802,0.029115418917778878
1772461202030266400,1.198266357421875,-0.02428922260403633,-0.03149434081041254,0.029168756540212778
1772461202040314400,1.208314453125,-0.03327390857040882,-0.03201396250403486,0.036488669365830714
1772461202050363400,1.21836328125,-0.03134089468121529,-0.03587429119399749,0.02049814149169251
1772461202060411400,1.228411376953125,-0.022672435057163237,-0.03919987368644215,0.017655428879056124
1772461202070459400,1.23845947265625,-0.0060690907806158064,-0.031847245901310814,0.024378563121613114
1772461202080508200,1.248508056640625,-0.02567687757015228,-0.033756285259872676,0.01946468852441758
1772461202090556400,1.258556396484375,-0.03945172042250633,-0.021564081089617684,0.026253106555528937
1772461202100604400,1.2686044921875,-0.05546995828747749,-0.0278644781417679,0.02005224262140691
1772461202110653400,1.2786533203125,-0.034522447326779365,-0.03173581228293478,0.027815223039407283
1772461202120701400,1.288701416015625,0.0010866261929273605,-0.036967301461938766,0.02978498874241486
1772461202130749400,1.29874951171875,-0.003709375911951065,-0.03604288922655396,0.026895167318731546
1772461202140798200,1.308798095703125,-0.04786182137131691,-0.03580547287464142,0.03471124789714813
1772461202150846200,1.31884619140625,-0.06612403877079487,-0.039578470341023055,0.026110994671098887
1772461202160895200,1.328895263671875,-0.03275543765425682,-0.03774833230441436,0.023322076338622717
1772461202170943500,1.338943603515625,0.01782148789465427,-0.03707499962011352,0.02790642672050744
1772461202180991700,1.34899169921875,0.007791676789522171,-0.037990406565135346,0.015784410842787474
1772461202191040500,1.35904052734375,-0.0546112956315279,-0.03999823925620876,0.003687017949670553
1772461202201088800,1.3690888671875,-0.08483750706911086,-0.02761101483735256,0.03001485197553411
1772461202211136500,1.379136474609375,-0.04249357233643532,-0.020529915736289695,0.03918411899488419
1772461202221185800,1.389185791015625,-0.008974749094247817,-0.02918708678134717,0.03634131505070254
1772461202231233500,1.399233642578125,-0.02842939114868641,-0.03765369455721229,0.03549823355637491
1772461202241282800,1.40928271484375,-0.04533960941731929,-0.036634023520117624,0.036654837979283185
1772461202251330600,1.41933056640625,-0.043243513920903205,-0.03516163114630617,0.03025585765717551
1772461202261378600,1.429378662109375,-0.022445640563964843,-0.03527258984064683,0.0253458737838082
1772461202271427600,1.439427490234375,-0.0206523274064064,-0.03569019419820979,0.021680647540837525
1772461202281475600,1.4494755859375,-0.03636427580118179,-0.03260909711928107,0.018425518202409147
1772461202291523600,1.459523681640625,-0.050131519868969916,-0.0332409104831051,0.023769984502904115
1772461202301572600,1.469572509765625,-0.0348649771541357,-0.03782347989985719,0.031950788474176074
1772461202311620600,1.47962060546875,-0.017059271350502968,-0.03588038300806656,0.0313254779163748
1772461202321669600,1.489669677734375,0.004040799823403358,-0.03575462860339321,0.025527440895792095
1772461202331717400,1.49971728515625,-0.025588614764809607,-0.023649527327856048,0.03923164793103933
1772461202341765600,1.509765625,-0.06314531522095203,-0.02884315044819377,0.029568295518122612
1772461202351814400,1.519814453125,-0.045486908933520316,-0.02629907372226007,0.023167342434637247
1772461202361862700,1.529862548828125,-0.022445056042075157,-0.03343628692473285,0.01814989786511287
1772461202371910700,1.53991064453125,-0.006885083338618278,-0.03837984427413903,0.024940124260820446
1772461202381959700,1.549959716796875,-0.022448563173413275,-0.03533335271771066,0.030764099440257993
1772461202392007700,1.560007568359375,-0.03502396710813045,-0.0412432069491595,0.022634203672315924
1772461202402056700,1.570056640625,-0.019164134675264358,-0.038894826325261964,0.021545020196121183
1772461202412104700,1.580104736328125,-0.020965046617388725,-0.028581905696121974,0.012022610623855142
1772461202422152400,1.59015234375,-0.03234334972202778,-0.0315158493893221,0.01826183380698785
1772461202432201700,1.60020166015625,-0.04176934971511364,-0.027536342165945096,0.028954657131806016
1772461202442249500,1.61024951171875,-0.044913492959737775,-0.03727349046743475,0.030424729684367775
1772461202452297700,1.620297607421875,-0.02935468930006027,-0.04059105405020527,0.03139191248239949
1772461202462346500,1.630346435546875,-0.02561725633740425,-0.04675103798466734,0.03163209618013352
1772461202472394800,1.640394775390625,-0.033848493587970735,-0.04375660540903918,0.026563907804060725
1772461202482443500,1.650443603515625,-0.028165771776437757,-0.03340271344869397,0.0257495957464911
1772461202492491500,1.660491455078125,-0.03310264365673065,-0.02797602135799825,0.02325337675027549
1772461202502539500,1.67053955078125,-0.02697100903391838,-0.02003000339013524,0.02707773907771334
1772461202512588500,1.680588623046875,-0.024732874718308446,-0.025033839559415353,0.02908498724689707
1772461202522636500,1.690636474609375,-0.027581249886751175,-0.030023364075552672,0.017427702804096043
1772461202532684500,1.7006845703125,-0.025791443860530852,-0.033716437306674195,0.01581173724113032
1772461202542733600,1.710733642578125,-0.027443887242674825,-0.04180228387033567,0.02345426961723715
1772461202552781600,1.720781494140625,-0.025806641429662703,-0.035245564836403356,0.025670411296747624
1772461202562830600,1.73083056640625,-0.03628711891174316,-0.031502240989077834,0.03372159753898159
1772461202572878600,1.740878662109375,-0.03194762840270996,-0.03801630819137208,0.031563816716894504
1772461202582926600,1.750926513671875,-0.03644143269062042,-0.02948929373146966,0.02932263192767277
1772461202592975600,1.7609755859375,-0.03764262517392635,-0.034635707576060666,0.025166845688782632
1772461202603023600,1.771023681640625,-0.025225626671314238,-0.03235353318932466,0.022374182762950657
1772461202613072600,1.78107275390625,-0.017149872243404387,-0.026347360710240898,0.02136590076955035
1772461202623120600,1.79112060546875,-0.03720540280044079,-0.01813887414759956,0.022009057511296122
1772461202633168600,1.801168701171875,-0.05426876580417156,-0.024357173273712396,0.023589020179118958
1772461202643217700,1.8112177734375,-0.040355975785851476,-0.030614114776626226,0.020172453201282768
1772461202653265700,1.821265625,-0.025996026521921158,-0.04141117479405366,0.019182766310498117
1772461202663313700,1.831313720703125,-0.01822071634531021,-0.04134110523252748,0.018676351158320902
1772461202673362400,1.841362548828125,-0.026005963394045827,-0.03506131257698871,0.024772092483844606
1772461202683410700,1.85141064453125,-0.03228898918628693,-0.02741287104990333,0.026687168857548384
1772461202693459500,1.86145947265625,-0.026904958060383795,-0.029854802575614302,0.023167853891290724
1772461202703507700,1.8715078125,-0.019575638085603714,-0.02640703674191609,0.01736207195566967
1772461202713555500,1.881555419921875,-0.016287117934226988,-0.02383505822890438,0.01546243061311543
1772461202723604700,1.891604736328125,-0.033795302096009255,-0.028287580658355727,0.018939221611898392
1772461202733652500,1.901652587890625,-0.034249475604295726,-0.018279999651340768,0.01803047273652628
1772461202743700500,1.911700439453125,-0.022280805391073227,-0.02779910302166827,0.027751053495705127
1772461202753749500,1.92174951171875,-0.03186345725059509,-0.021943390130251646,0.025495529653877018
1772461202763797500,1.931797607421875,-0.016303484547138213,-0.029092439900990575,0.021522059445641933
1772461202773846500,1.941846435546875,-0.025737083324789998,-0.031177621277747675,0.016861301092989743
1772461202783894500,1.95189453125,-0.037564883762598034,-0.035311570144165305,0.011136018781363964
1772461202793942800,1.96194287109375,-0.034277532655000685,-0.031107423852058124,0.005499181938171387
1772461202803991600,1.971991455078125,-0.014227262794971465,-0.027515783435106276,0.025843722037039697
1772461202814039800,1.982039794921875,-0.01317746148109436,-0.023399105363897978,0.02696532821180299
1772461202824088600,1.992088623046875,-0.019763269612193105,-0.023117219682596623,0.021051080933026968
1772461202834136600,2.002136474609375,-0.038324762219190595,-0.02724739655619487,0.015452968665026127
1772461202844184600,2.0121845703125,-0.03757891228795052,-0.029789409189205616,0.012208726046793163
1772461202854233600,2.022233642578125,-0.02231470766067505,-0.027817515461193397,0.022189236383792013
1772461202864281600,2.032281494140625,-0.022761866906285285,-0.028029148917878045,0.028974567408673463
1772461202874329600,2.04232958984375,-0.020368249768018723,-0.02978381056548096,0.03410318073509261
1772461202884378600,2.052378662109375,-0.028753216275572775,-0.028560351451439783,0.026349406536854802
1772461202894426600,2.062426513671875,-0.031154432198405264,-0.03069364628624171,0.01992377566983923
1772461202904475600,2.0724755859375,-0.028166940820217132,-0.030625184159912167,0.011819818060752003
1772461202914523600,2.082523681640625,-0.05076514159739017,-0.03349693107078783,0.014163677773158996
1772461202924571400,2.0925712890625,-0.04268354195058346,-0.02673395800818689,0.02108343056635931
1772461202934620700,2.10262060546875,-0.035953356912732125,-0.02511928935316391,0.022648506192304192
1772461202944668400,2.11266845703125,-0.021890929290652273,-0.02611108600264415,0.012361907314509153
1772461202954717700,2.1227177734375,-0.022944237735867498,-0.01899026681254618,0.012630074997711927
1772461202964765400,2.132765380859375,-0.03132628163397312,-0.028088231294509023,0.014552275231946259
1772461202974813700,2.142813720703125,-0.04225274931788444,-0.025791060268040743,0.01121140383882448
1772461202984862500,2.152862548828125,-0.030733576437830923,-0.030932715739123522,0.01397447534399107
1772461202994910700,2.16291064453125,-0.01996317609846592,-0.03181259471303783,0.014211846030130981
1772461203004958700,2.172958740234375,-0.03223813578188419,-0.025194409549143162,0.02805778135731816
1772461203015007500,2.183007568359375,-0.025354806008934975,-0.026522068823175503,0.020724588925018904
1772461203025055700,2.1930556640625,-0.02879880898296833,-0.030698267662432045,0.025037867280561475
1772461203035104500,2.2031044921875,-0.029554011264443396,-0.03044519708366133,0.023081052390672267
1772461203045152800,2.21315283203125,-0.03270224616229534,-0.018858274463331326,0.017803787841182202
1772461203055200500,2.223200439453125,-0.034500235494971276,-0.02647424762607552,0.012223740952834487
1772461203065249800,2.233249755859375,-0.04497603680193424,-0.0186213147691451,0.016254676969349385
1772461203075297500,2.243297607421875,-0.038999300479888914,-0.0169351061147172,0.02437375908233225
1772461203085346800,2.253346923828125,-0.02328969017267227,-0.02759610952916555,0.02791497535314411
1772461203095394600,2.26339453125,-0.021647183662652968,-0.023450881216907873,0.0266919911631383
1772461203105442600,2.273442626953125,-0.03601414718925953,-0.02605040532397106,0.011936685906071215
1772461203115491600,2.28349169921875,-0.04051262765228748,-0.026532809412898494,0.014687244989536701
1772461203125539600,2.29353955078125,-0.024953823992609977,-0.028129449220886452,0.010685388937033712
1772461203135588600,2.303588623046875,-0.020465280401706695,-0.025522052334621546,0.02160878788102418
1772461203145636600,2.31363671875,-0.031389409998059274,-0.026691397508094086,0.02330028463192284
1772461203155684600,2.3236845703125,-0.04006897553801536,-0.030529331703158094,0.00988687723679468
1772461203165734000,2.33373388671875,-0.029599603971838948,-0.019731623231759293,0.007052640191558748
1772461203175782000,2.343781982421875,-0.029005145210027693,-0.019163860680628565,0.019876392864156513
1772461203185830000,2.353829833984375,-0.032898645517230034,-0.020820121721364555,0.029237784922122954
1772461203195879000,2.36387890625,-0.041133389899134634,-0.02273358152671717,0.026293511631153524
1772461203205927000,2.373927001953125,-0.027069208711385725,-0.024916670319996774,0.02624503284692764
1772461203215976000,2.383975830078125,-0.027521628654003143,-0.02855278919949196,0.02240638626581058
1772461203226024000,2.39402392578125,-0.022287819653749465,-0.025474295069603248,0.01589086689194664
1772461203236072000,2.404072021484375,-0.02393850947022438,-0.02250397402192466,0.01969592173071578
1772461203246121000,2.414120849609375,-0.04773498012125492,-0.027407327225105835,0.015226685628481208
1772461203256169000,2.4241689453125,-0.03561959491372108,-0.018977507795672862,0.019692652061395345
1772461203266218000,2.434218017578125,-0.023197920235991477,-0.024642547820042816,0.014513806385081261
1772461203276266000,2.444265869140625,-0.027990415209531782,-0.028035341196646912,0.015276059461850672
1772461203286314000,2.45431396484375,-0.04385141668617725,-0.01410814819363877,0.01950845460090786
1772461203296362800,2.46436279296875,-0.03726970020830631,-0.02776100863413885,0.013870887105353176
1772461203306411000,2.474410888671875,-0.030091771402955055,-0.018326195146935058,0.020727785529103128
1772461203316459800,2.484459716796875,-0.025905425629019735,-0.02532942497250624,0.019711356761865317
1772461203326508000,2.494508056640625,-0.03428805404901504,-0.024683473485475404,0.01774003842258826
1772461203336556000,2.50455615234375,-0.026359599137306212,-0.025630015354277565,0.016336455234978346
1772461203346604800,2.514604736328125,-0.028754969841241835,-0.021131279162922872,0.018983115552552044
1772461203356653000,2.524653076171875,-0.04192541705965996,-0.01925743898190558,0.014280399488005786
1772461203366700800,2.53470068359375,-0.0224736976146698,-0.019325234387954696,0.016317476539872585
1772461203376750000,2.54475,-0.036541385933756824,-0.02217742721498944,0.012716730367857962
1772461203386797800,2.5547978515625,-0.028913959795236584,-0.02043376188543625,0.014459939039684832
1772461203396847000,2.56484716796875,-0.023080431336164473,-0.019346843431564047,0.012629874068312346
1772461203406894800,2.574894775390625,-0.03550093697011471,-0.018908324150135738,0.00450264518149197
1772461203416942800,2.58494287109375,-0.031764088529348374,-0.01818207396850921,0.0028925248374231157
1772461203426991900,2.594991943359375,-0.039844519132375716,-0.019813227967452256,0.006574026361759752
1772461203437039900,2.605039794921875,-0.036404607811570164,-0.018020015274593605,0.018932810137420892
1772461203447089000,2.6150888671875,-0.02981996872425079,-0.021119122934248297,0.019415040696412325
1772461203457137000,2.625136962890625,-0.02773030296862125,-0.026762663512863216,0.014010934896860271
1772461203467185000,2.635184814453125,-0.0256324539065361,-0.01861605407213792,0.018326423475798218
1772461203477234000,2.64523388671875,-0.03251870628893375,-0.022146712416317313,0.019451646379753947
1772461203487282000,2.655281982421875,-0.03356558499336242,-0.021640434261457994,0.021586320320889352
1772461203497331000,2.6653310546875,-0.025935820767283436,-0.02764363846532069,0.01782064764443785
1772461203507379000,2.67537890625,-0.02204758115708828,-0.02111586239808239,0.007297244336083531
1772461203517427000,2.685427001953125,-0.03028232553899288,-0.0197733526147902,0.014661836553644388
1772461203527475700,2.695475830078125,-0.03477554530501365,-0.020207122655864804,0.012180851659178734
1772461203537524000,2.70552392578125,-0.03372632851302623,-0.016397409908287225,0.01093326275087893
1772461203547572700,2.71557275390625,-0.026100655940175056,-0.025513695498229936,0.013557747769262642
1772461203557621000,2.72562109375,-0.026252631631493568,-0.027274576824065297,0.026205212293192743
1772461203567669000,2.7356689453125,-0.03209317435324192,-0.024916715985769406,0.024872940776124595
1772461203577718000,2.745718017578125,-0.02551145787537098,-0.030624681836413217,0.014368662293348461
1772461203587766000,2.75576611328125,-0.028802316114306448,-0.031504423813009635,0.023398374711535868
1772461203597815000,2.76581494140625,-0.03419277698099613,-0.025277439056942238,0.016714823560696094
1772461203607863000,2.775863037109375,-0.033148236364126206,-0.020537267925683406,0.014088913770206272
1772461203617910800,2.785910888671875,-0.03644377077817917,-0.023806078729592263,0.018167013396695256
1772461203627960000,2.7959599609375,-0.03719663497209549,-0.014758711923705413,0.02459342971500009
1772461203638007800,2.8060078125,-0.032414076870679855,-0.015061996586062013,0.014575126384571193
1772461203648057000,2.81605712890625,-0.03002572042942047,-0.016520259969821198,0.0168178272774443
1772461203658104800,2.826104736328125,-0.029730536875128746,-0.018673044956382362,0.009667608462925999
1772461203668153000,2.836153076171875,-0.038866029489040374,-0.016359114591358227,0.01720620554052293
1772461203678201900,2.846201904296875,-0.027643209207057953,-0.024624199312599373,0.013653974685352295
1772461203688249900,2.856249755859375,-0.02749649421274662,-0.019428557765111328,0.01148879600809887
1772461203698299000,2.866298828125,-0.040813071903586386,-0.02624566303458996,0.013747132861521094
1772461203708347000,2.876346923828125,-0.03662438804209232,-0.02295828452752903,0.008063698663935064
1772461203718395000,2.886394775390625,-0.029747488009929657,-0.013256317137274891,0.02284817521655932
1772461203728444000,2.89644384765625,-0.02481412326097488,-0.013465338511765002,0.010635448848083614
1772461203738492000,2.906491943359375,-0.03364215736091137,-0.011845290428726002,0.00538673453964293
1772461203748541000,2.916541015625,-0.04172784866094589,-0.01861688518919982,0.012810253870207816
1772461203758589000,2.9265888671875,-0.0547463201880455,-0.0162053305354435,0.006982278369087725
1772461203768637000,2.936636962890625,-0.033055297383666034,-0.022753126477403567,0.017283453761506824
1772461203778686000,2.94668603515625,-0.01495031637251377,-0.015926184800500048,0.015037117873132227
1772461203788734000,2.95673388671875,-0.03933656961023807,-0.022661721866903826,0.011377937778457999
1772461203798782700,2.96678271484375,-0.03679565295577049,-0.016996216051653027,0.01356273447163403
1772461203808831000,2.9768310546875,-0.036350831797719,-0.01629099039174616,0.012857362681254744
1772461203818879000,2.98687890625,-0.030666940942406653,-0.018860676482971756,0.009305131826084107
1772461203828928000,2.996927978515625,-0.028572599011659622,-0.017577121212147176,0.01790403334526345
1772461203838976000,3.00697607421875,-0.029620646759867666,-0.021682072312943636,0.011181757619231939
1772461203849025000,3.01702490234375,-0.0212450326025486,-0.018852045651944354,0.007211210020445287
1772461203859073000,3.027072998046875,-0.0206523274064064,-0.01196136368960142,0.008095518574304877
1772461203869120800,3.037120849609375,-0.031130466800928114,-0.013715650877868756,0.0052939416896551844
1772461203879170000,3.047170166015625,-0.035623686566948885,-0.013976484637986867,0.007849489657673984
1772461203889217800,3.0572177734375,-0.03488017472326755,-0.02037972101010382,0.01313844464495778
1772461203899267000,3.06726708984375,-0.021861118674278257,-0.021123260253248736,0.014491448422800748
1772461203909314800,3.077314697265625,-0.027552023792266844,-0.015689426035713404,0.012253588101826607
1772461203919363000,3.087363037109375,-0.028147067075967785,-0.011653211055882275,0.0149316116720438
1772461203929411800,3.097411865234375,-0.03263619518876076,-0.006968532971525564,0.015694230074994264
1772461203939460000,3.107460205078125,-0.028151158729195592,-0.014686715266574174,0.005548391374759376
1772461203949508900,3.1175087890625,-0.041319852381944654,-0.018227621010132134,0.011979885726980864
1772461203959556900,3.127556884765625,-0.03429039213657379,-0.02092644077320583,0.01803871084190905
1772461203969604900,3.13760498046875,-0.02786065135002136,-0.015950351127376777,0.026907752805668858
1772461203979654000,3.14765380859375,-0.034898294901847836,-0.021269080198416484,0.022192980977147815
1772461203989702000,3.157701904296875,-0.02442424716055393,-0.024728152877418322,0.018470727317314594
1772461203999751000,3.1677509765625,-0.03011456775665283,-0.018051396793546153,0.012980221875943243
1772461204009799000,3.177798828125,-0.040890228793025014,-0.01208502660188824,0.013213281713146716
1772461204019847000,3.187846923828125,-0.039245384195446965,-0.01272937978687696,0.011501235364563763
1772461204029896000,3.19789599609375,-0.025630115818977353,-0.010617283003730698,0.010236750120390206
1772461204039944000,3.20794384765625,-0.037007249879837036,-0.011155865126149729,0.013627488537225872
1772461204049993000,3.217992919921875,-0.03536415884792805,-0.016268568497383964,0.018443437451589852
1772461204060041000,3.228041015625,-0.03491992221176624,-0.019584999568993223,0.012634842504374683
1772461204070089000,3.2380888671875,-0.019810031363368032,-0.022644688533712178,0.007766542348265648
1772461204080138000,3.248137939453125,-0.03447685461938381,-0.017542716619046404,0.0050519678936339915
1772461204090186000,3.25818603515625,-0.03612520634829998,-0.013504154418502003,0.007558890946954488
1772461204100235000,3.268235107421875,-0.03971475527286529,-0.013349338316125794,0.014263521418441087
1772461204110283000,3.278282958984375,-0.041214638441801066,-0.017478382678562773,0.01057736198529601
1772461204120332000,3.28833203125,-0.028047698354721068,-0.010862663466390221,0.005810951301082968
1772461204130380000,3.298380126953125,-0.010243746116757392,-0.01393002428091131,0.011120693348068743
1772461204140427800,3.308427734375,-0.04122340627014637,-0.019514126289868726,0.018084796739649026
1772461204150477000,3.31847705078125,-0.04047229564189911,-0.015212492706347256,0.009137026983872056
1772461204160524800,3.32852490234375,-0.037186698099970814,-0.0169442210029345,0.013127813653089106
1772461204170576600,3.33857666015625,-0.025667525219917296,-0.01970228753942065,0.016345296128559856
1772461204180624600,3.348624755859375,-0.02492401337623596,-0.01993018714431673,0.019031101146433502
1772461204190672600,3.358672607421875,-0.027023031482100484,-0.017746084570884703,0.015179248023871331
1772461204200721700,3.3687216796875,-0.029122634109854696,-0.02292169711049646,0.01025622200584039
1772461204210769700,3.378769775390625,-0.02059270617365837,-0.01527398623577319,0.008339063272904604
1772461204220818700,3.388818603515625,-0.033467969837784765,-0.015541925590112804,0.00623032749062404
1772461204230866700,3.39886669921875,-0.019256489133834837,-0.010954469935689121,0.019382727595698087
1772461204240914700,3.408914794921875,-0.019414310044050215,-0.015618479691352695,0.012693404291197656
1772461204250963700,3.418963623046875,-0.039025019443035124,-0.019592479622550306,0.007532587461918592
1772461204261011700,3.42901171875,-0.033788287833333014,-0.016928438911912962,0.01049465213790536
1772461204271060700,3.439060791015625,-0.028407763838768002,-0.013751854702411219,0.011930164833739399
1772461204281108700,3.449108642578125,-0.02901099042892456,-0.012835790170263497,0.010023746690526605
1772461204291156700,3.45915673828125,-0.035596798560023304,-0.015301824090769514,0.015390972812101243
1772461204301205800,3.469205810546875,-0.026019991919398307,-0.016434755377145484,0.01122484784228727
1772461204311253800,3.479253662109375,-0.027968203377723693,-0.012633591262204572,0.007389361332636326
1772461204321302500,3.489302490234375,-0.03156301299929619,-0.010335525186592712,0.012516403756476937
1772461204331350500,3.4993505859375,-0.035005846929550166,-0.013201646074280142,0.009694514736160635
1772461204341398800,3.509398681640625,-0.026182489004731177,-0.013537399100977926,0.01207949191024527
1772461204351447600,3.519447509765625,-0.018556231909990308,-0.014144854341680183,0.020336119330395013
1772461204361495800,3.529495849609375,-0.028135376638174055,-0.013820125032495707,0.01852848538653925
1772461204371544600,3.539544677734375,-0.032177930027246476,-0.013523735901806503,0.0099150256190449
1772461204381592800,3.5495927734375,-0.03188333099484444,-0.012681412459304556,0.00438457175977528
1772461204391641600,3.5596416015625,-0.03742576755285263,-0.014963851707521824,0.007211374417226761
1772461204401689900,3.56968994140625,-0.031444939577579496,-0.013991344280401243,0.017610950416512786
1772461204411737600,3.579737548828125,-0.024262919119000432,-0.010493994550779462,0.018056977150961755
1772461204421787000,3.589786865234375,-0.019621230792999267,-0.010073157056514173,0.006398815925326198
1772461204431834600,3.599834716796875,-0.03683306235671043,-0.014465053606219589,0.004960161424335092
1772461204441883600,3.609883544921875,-0.046262569481134413,-0.009636309142364189,0.016327249015215782
1772461204451931600,3.619931640625,-0.03728489777743816,-0.011894271536450833,0.00970757514713332
1772461204461979600,3.629979736328125,-0.03758709559440612,-0.01516593188457191,0.012804810510110108
1772461204472028700,3.640028564453125,-0.036541970455646514,-0.011875585102289914,0.01787506297910586
1772461204482076700,3.65007666015625,-0.038489012870192525,-0.015593089521769432,0.008984064911864698
1772461204492125700,3.660125732421875,-0.03714344348013401,-0.019721421498153358,0.006820256207790225
1772461204502173700,3.670173583984375,-0.03729541917145252,-0.0189845220583491,0.015564667144883424
1772461204512221700,3.6802216796875,-0.03534779223501682,-0.019805610916577277,0.011716449017822742
1772461204522270700,3.690270751953125,-0.0271183085501194,-0.010956607093848287,0.012751381556130944
1772461204532318700,3.700318603515625,-0.02247837378978729,-0.010085468548815696,0.002073591403663158
1772461204542367700,3.71036767578125,-0.030264205360412594,-0.0115998825666029,0.007740074466448277
1772461204552415500,3.72041552734375,-0.026972178077697754,-0.012576865239441393,0.016388824743032455
1772461204562463700,3.730463623046875,-0.039245968717336654,-0.010165063990512863,0.01631762267034501
1772461204572512500,3.740512451171875,-0.03416062827706337,-0.012789329813187941,0.012518668778799473
1772461204582560800,3.750560791015625,-0.021295301485061643,-0.015119087935006246,0.011899733162857591
1772461204592609500,3.760609619140625,-0.028481413596868514,-0.013195134135102853,0.01212068243715912
1772461204602657800,3.77065771484375,-0.03925181393623352,-0.007967563079390675,0.012744677820708601
1772461204612706600,3.78070654296875,-0.029230186137557027,-0.014846308008767663,0.00930292160268873
1772461204622754600,3.790754638671875,-0.03806055832505226,-0.01215579028315842,0.01259925973434001
1772461204632802800,3.800802734375,-0.040305122381448746,-0.010409668135037645,0.0011230857457965612
1772461204642851600,3.8108515625,-0.03177636348903179,-0.010800558015611023,0.011739135773666202
1772461204652899800,3.82089990234375,-0.031178982117772102,-0.007010846876446157,0.015516699817311018
1772461204662948600,3.830948486328125,-0.035219781941175456,-0.017187646970525383,0.01601155239585787
1772461204672996900,3.840996826171875,-0.034173487758636475,-0.016983402235852554,0.01942784537905827
1772461204683045600,3.851045654296875,-0.026692192092537877,-0.00800924679664895,0.010278890495374797
1772461204693094000,3.861093994140625,-0.028788872110843657,-0.01101727863936685,0.005417714199796319
1772461204703141600,3.8711416015625,-0.02759410936832428,-0.012189162829797715,0.007890077396389096
1772461204713191000,3.88119091796875,-0.026697452789545058,-0.01396280317250639,0.0029852994211018082
1772461204723238700,3.89123876953125,-0.025501521003246305,-0.00607131013716571,-0.005993176000192761
1772461204733287700,3.90128759765625,-0.037919688549637794,-0.009629915934195741,0.004798742051236331
1772461204743335700,3.911335693359375,-0.03747136026024818,-0.009471282173227518,0.010165566314011812
1772461204753383700,3.9213837890625,-0.03208557556867599,-0.005849858539365232,0.01028855337286368
1772461204763432700,3.9314326171875,-0.03552665593326092,-0.00698642482124269,0.010232402738835663
1772461204773480700,3.941480712890625,-0.025205752927064895,-0.01358119257693179,0.006860569951869547
1772461204783529700,3.95152978515625,-0.030141455763578413,-0.011179638727381825,0.017562270702887326
1772461204793577700,3.96157763671875,-0.039269934114813804,-0.005365819615777582,0.014397705724742263
1772461204803625500,3.97162548828125,-0.025802549776434897,-0.012333229209296404,0.014865085774473845
1772461204813674800,3.9816748046875,-0.0361287134796381,-0.017622549522761256,0.007927523329947143
1772461204823722500,3.991722412109375,-0.039870238095521926,-0.015512900425028056,0.002658697815239429
1772461204833771800,4.001771728515625,-0.03328267639875412,-0.009137282712198793,0.013845862261950968
1772461204843819500,4.011819580078125,-0.031790392014384265,-0.005533988390071317,0.0012024528586305678
1772461204853868800,4.021868896484375,-0.022515783190727234,-0.005934851675387471,0.0027621216570958493
1772461204863916500,4.03191650390625,-0.03763561091125011,-0.010477701003104448,0.012284549495670944
1772461204873964800,4.04196484375,-0.04182078764140606,-0.008705147505784407,0.00886182677168399
1772461204884013600,4.052013671875,-0.03359130395650863,-0.013885463619977235,0.003929302272945643
1772461204894061600,4.0620615234375,-0.030602059012651443,-0.009013062677485868,0.005463343439809977
1772461204904110600,4.072110595703125,-0.0316495222389698,-0.008735268649412318,0.008904332472849637
1772461204914158600,4.08215869140625,-0.03568915301859379,-0.009533743817033246,0.010106931461952627
1772461204924206800,4.092206787109375,-0.027606968849897384,-0.0060506692079361525,0.009731778006628155
1772461204934255600,4.102255615234375,-0.016982698982954025,-0.0053363377929665145,0.0008115538449026643
1772461204944303900,4.112303955078125,-0.0328477921128273,-0.003480581257911399,0.0039044600926339624
1772461204954352600,4.1223525390625,-0.034196868634223936,-0.017795668466808273,0.007349047588557004
1772461204964401000,4.13240087890625,-0.04047989442646503,-0.01067527853497304,0.009834398130886256
1772461204974449700,4.14244970703125,-0.029560441005229948,-0.009277211772697046,0.00961218848126009
1772461204984497700,4.15249755859375,-0.033002105891704554,-0.015265364537900313,0.014399696752429008
1772461204994545700,4.162545654296875,-0.03240706260800361,-0.009162618082854896,0.012985464306641369
1772461205004594700,4.1725947265625,-0.028666122514009473,-0.015821217455528676,0.009815949158743023
1772461205014642700,4.182642578125,-0.030911271092295644,-0.01003945571631193,0.0004095854478888213
1772461205024691500,4.19269140625,-0.02791851901710033,-0.008090860665496438,0.002650021318439394
1772461205034739700,4.20273974609375,-0.03420622098445892,-0.004918048448814079,0.008381057517416775
1772461205044788500,4.21278857421875,-0.02957388500869274,-0.012860760214738547,0.006715170131810009
1772461205054836700,4.222836669921875,-0.018053543084859847,-0.005962863060319796,-0.0010202646921388804
1772461205064884700,4.232884765625,-0.03167290311455726,-0.014241035591997206,0.00709963940475136
1772461205074933800,4.242933837890625,-0.03271919729709625,-0.010383492514165118,0.008033650585543364
1772461205084981800,4.252981689453125,-0.03646189095675945,-0.004648118066787719,0.012313154535647481
1772461205095030800,4.26303076171875,-0.037809798434376714,-0.013514091290626674,0.010386625186167656
1772461205105078800,4.273078857421875,-0.03182429428398609,-0.011956870177574455,0.00522849350431934
1772461205115126500,4.28312646484375,-0.03750935418307781,-0.011983319793082772,0.007495031930506229
1772461205125175800,4.29317578125,-0.04274725483655929,-0.004098950618272647,0.006557130025885999
1772461205135223600,4.3032236328125,-0.028381460353732107,-0.003858456393284723,0.00871688360935077
1772461205145272800,4.31327294921875,-0.03107785983085632,-0.006639008756214752,0.011930895486101507
1772461205155320600,4.323320556640625,-0.03796528125703334,-0.002444023018097505,0.012990615405794232
1772461205165369900,4.333369873046875,-0.03482289157807827,-0.010962908970471471,0.011781805871613323
1772461205175414800,4.343414794921875,-0.029288638326525687,-0.008188576285773888,0.002483377780951559
1772461205185462800,4.353462890625,-0.028689503389596936,-0.011133333633933215,0.007472783566080034
1772461205195511800,4.36351171875,-0.031385318344831464,-0.005713829335849732,0.01726701408335939
1772461205205559800,4.373559814453125,-0.02495090138316154,-0.007614155664993449,0.013242179014068095
1772461205215608800,4.38360888671875,-0.02420680501759052,-0.007543720777286217,0.0013148819908499717
1772461205225656800,4.39365673828125,-0.025703765577077865,-0.007934181399596854,0.007596026353258639
1772461205235704800,4.403704833984375,-0.028546880048513412,-0.00815554166585207,0.0075781984356231985
1772461205245753900,4.41375390625,-0.03932312560677528,-0.006422032404132187,0.0063303903316147625
1772461205255801900,4.4238017578125,-0.0290004690349102,-0.011305767591390759,0.004526354850642383
1772461205265851000,4.433850830078125,-0.023014964884519575,-0.005060361262643709,0.0138457343977876
1772461205275898600,4.443898681640625,-0.0287041164368391,-0.013610756598133593,0.002427903000358492
1772461205285948000,4.453947998046875,-0.03170154468715191,-0.0059537481721024955,0.00660317939100787
1772461205295995600,4.46399560546875,-0.036793314868211746,-0.010399612531904131,0.009395093398168682
1772461205306045000,4.474044921875,-0.0414268198877573,-0.010815792117360978,0.015056699356436729
1772461205316092700,4.4840927734375,-0.03723988959193229,-0.007023204034520313,0.0070481832121498875
1772461205326141000,4.494140869140625,-0.028114333850145338,-0.00880893667382188,0.002995071896445006
1772461205336189700,4.504189697265625,-0.027962358158826826,-0.006449769794428721,0.015634334847610443
1772461205346238000,4.514238037109375,-0.03559621403813362,-0.0065919638772495084,0.00807480457983911
1772461205356286700,4.52428662109375,-0.03514788574874401,-0.0062436436299234625,0.007168539922498166
1772461205366335000,4.5343349609375,-0.036495208704471586,-0.01002044962174259,0.00689123908476904
1772461205376382700,4.5443828125,-0.034403789383172984,-0.00399659535549581,0.0036397995407693087
1772461205386431700,4.554431640625,-0.027969372421503064,-0.008633351778052746,0.005129873701743781
1772461205396479700,4.564479736328125,-0.03410568321943283,-0.012306788726942613,0.017239961679652333
1772461205406528800,4.57452880859375,-0.024827567264437675,-0.003438870141189545,0.003067625676002353
1772461205416576800,4.58457666015625,-0.03156125943362713,-0.0009725987586658447,0.0007872596538625657
1772461205426625800,4.594625732421875,-0.03261106074750423,-0.011560171610722317,0.0065798715806566176
1772461205436673800,4.604673828125,-0.038595395854115484,-0.006720348630426451,0.012693075497634708
1772461205446721800,4.6147216796875,-0.04458499165773391,-0.0032161216354463246,0.016319102241378277
1772461205456770800,4.624770751953125,-0.026927754414081573,0.0007725735413841902,0.015926248732581735
1772461205466818800,4.63481884765625,-0.025129765081405638,-0.006231423469167202,0.011368201835732906
1772461205476867800,4.644867919921875,-0.039946225941181183,-0.003953998322784901,0.004032068527676165
1772461205486915800,4.654915771484375,-0.04997662156820297,0.00260405415170826,0.0007707103778608143
1772461205496964600,4.664964599609375,-0.04654021737873554,-0.004946671755099669,0.006073492961097509
1772461205507012900,4.675012939453125,-0.029480361506342888,-0.008981133169261739,0.0017665347484871743
1772461205517060900,4.685060791015625,-0.028438743498921393,-0.010934358729422092,0.0017834858832880853
1772461205527110000,4.69510986328125,-0.031578210568428036,-0.010548446418065576,0.008740264484938233
1772461205537158000,4.705157958984375,-0.03696633334755897,-0.007450398204335943,0.01106848823679611
1772461205547207000,4.71520703125,-0.03442190956175327,-0.010845730597898364,0.011044212312065064
1772461205557255000,4.7252548828125,-0.0339718277066946,-0.01308177342112176,0.0070623396016657345
1772461205567304000,4.735303955078125,-0.030384616869688033,-0.009060107556451112,0.005773213106580078
1772461205577352000,4.74535205078125,-0.022305939832329747,-0.008461858535511419,0.0103943335685879
1772461205587399700,4.755399658203125,-0.026047464448213577,-0.003575629997067153,0.0036310499787330624
1772461205597448700,4.76544873046875,-0.034276363611221314,-0.005150898223463446,0.00782799021191895
1772461205607496700,4.77549658203125,-0.03517477375566959,-0.011643173719057813,0.012038191785477102
1772461205617545700,4.785545654296875,-0.036519758623838425,-0.009781818560278042,0.009880374430771917
1772461205627593700,4.79559375,-0.03218026811480522,-0.012648313907301053,0.01231719138994813
1772461205637642800,4.805642822265625,-0.03547404896318912,-0.0038882304770406335,0.008614756675437093
1772461205647690800,4.815690673828125,-0.04355798669755458,0.0020724954251199958,0.010695088347140698
1772461205657739000,4.825739013671875,-0.04460778801143169,-0.003760759039316326,0.008524100983608514
1772461205667787800,4.835787841796875,-0.0342857159614563,0.0023467001234646887,0.0010667707149870692
1772461205677835800,4.845835693359375,-0.03383972575962543,-0.003951276642736048,-0.0027185199773870406
1772461205687884800,4.855884765625,-0.03653495619297027,-0.006978077118005603,0.0096946060677059
1772461205697932800,4.865932861328125,-0.036389994764328,-0.008825129756797105,0.006873100639879703
1772461205707981800,4.87598193359375,-0.024272855991125105,-0.0052461113594006745,0.005393675737082958
1772461205718029800,4.88602978515625,-0.035198739153146745,-0.009370826606592162,0.009924670230224728
1772461205728077800,4.896077880859375,-0.023527006059885024,-0.009547343084122984,0.005859923275653272
1772461205738126800,4.906126953125,-0.020984920361638067,-0.010589737409679218,0.002308569203317165
1772461205748174800,4.9161748046875,-0.027720950618386267,-0.007500557488994673,-0.0006491480911150574
1772461205758224000,4.926223876953125,-0.03475099538564682,-0.0031586649603210387,0.005136613969784229
1772461205768272000,4.93627197265625,-0.04238368222117424,-0.004895480423979461,0.005416910482198
1772461205778321000,4.94632080078125,-0.03250584680736065,-0.010380158912763,0.0034122378625907
1772461205788368600,4.95636865234375,-0.023980010524392126,-0.0015856526230927557,0.011563468679506332
1772461205798417000,4.9664169921875,-0.03550327505767345,-0.0004514883608557284,0.008412987025640905
1772461205808465700,4.976465576171875,-0.03879413329660892,-0.002605551989050582,0.010077467905450612
1772461205818514000,4.986513916015625,-0.032360885378718375,-0.005453781027020886,0.01682644897531718
1772461205828562700,4.996562744140625,-0.036548400196433066,-0.005445643386337906,0.015276534385886043
1772461205838611000,5.00661083984375,-0.035651159095764155,-0.0014198950015939771,0.007316752754151821
1772461205848659700,5.01665966796875,-0.02712298472523689,-0.00927184147783555,0.006858122266456484
1772461205858708000,5.0267080078125,-0.03744564129710197,0.0032865473899990317,0.005441241205856204
1772461205868755700,5.036755615234375,-0.037294250127673144,-0.000025773762073367832,-0.0027347404598258435
1772461205878805000,5.046804931640625,-0.030411504876613614,-0.006380440018419176,0.007982084795087576
1772461205888852700,5.056852783203125,-0.03520283080637455,0.0009125574008096009,0.006437010777555405
1772461205898901800,5.06690185546875,-0.025479893693327902,-0.003037678062310442,0.0030594789021648463
1772461205908949800,5.07694970703125,-0.03625380116403103,-0.009492580689582973,0.002141085415612906
1772461205918998800,5.086998779296875,-0.026076106020808218,-0.007905311498139053,-0.009313333398848772
1772461205929046800,5.097046875,-0.02412847908437252,-0.00782275691437535,-0.001274020257499069
1772461205939094800,5.1070947265625,-0.033407764083147044,-0.002800343908788636,0.0018481668836437164
1772461205949143800,5.117143798828125,-0.032061610171198844,-0.007550187050690874,0.0006398505398072302
1772461205959191800,5.12719189453125,-0.04239011196196079,-0.0027506321487016975,0.010996263250801712
1772461205969240800,5.13724072265625,-0.03087093908190727,-0.004830105303879827,0.014852646418008953
1772461205979288800,5.147288818359375,-0.028479075509309767,-0.004513056977652013,0.010202427725680172
1772461205989337900,5.157337890625,-0.03491232342720031,-0.01394915823964402,0.005960661970078945
1772461205999385900,5.1673857421875,-0.03431552657783031,-0.005451908730342984,0.0011729345032013953
1772461206009433900,5.177433837890625,-0.0389519542068243,-0.00660425710324198,0.0032032347544096408
1772461206019483000,5.18748291015625,-0.042994507595896715,-0.006843490952905267,0.0039672961957752705
1772461206029531000,5.19753076171875,-0.03371580711901188,-0.01309489776417613,0.009254351486917585
1772461206039580000,5.207579833984375,-0.024292729735374448,-0.0037381179492454973,0.007651976057887077
1772461206049628000,5.2176279296875,-0.021456629526615142,-0.002084350259695202,0.014657306508999317
1772461206059677000,5.227677001953125,-0.028344635474681853,-0.005722980756685137,0.01019073728788644
1772461206069724700,5.237724609375,-0.04136486056745052,0.0035705154305323956,0.005245609035901725
1772461206079772700,5.247772705078125,-0.030741759744286536,-0.004268206237955019,0.0023369367812760174
1772461206089821700,5.25782177734375,-0.038671968221664424,0.006187018071860075,0.0150781074706465
1772461206099869700,5.26786962890625,-0.03627718203961849,-0.0028113676263019443,0.0010160634410567582
1772461206109918700,5.277918701171875,-0.020864508852362632,-0.007437447391217574,0.007906042150501162
1772461206119966700,5.287966796875,-0.026844752305746077,-0.0056218036708422,0.008353402325510979
1772461206130015700,5.298015625,-0.03507365146875381,-0.0009725896255113184,0.0002412248773500323
1772461206140063700,5.308063720703125,-0.034627076745033264,-0.002610785286594182,0.00990328038232401
1772461206150112000,5.318112060546875,-0.034627076745033264,-0.002555986359436065,0.009910020650364459
1772461206160160800,5.328160888671875,-0.032981063103675844,-0.006439458462968469,0.011426617492083459
1772461206170208800,5.338208740234375,-0.039864977398514745,-0.005827546242857352,-0.0016272176093421876
1772461206180257800,5.3482578125,-0.03522621168196201,-0.005878262649942189,0.005153108446858823
1772461206190305800,5.358305908203125,-0.03433306223452091,-0.006211750654317438,0.007287124800868332
1772461206200354800,5.368354736328125,-0.038076340416073794,-0.006069446973642334,0.008452752780448644
1772461206210402800,5.37840283203125,-0.029397359398007392,-0.002803001656755805,0.003213957077823579
1772461206220450800,5.388450927734375,-0.03328618353009224,-0.0008900807075202464,0.006557020428031682
1772461206230499800,5.398499755859375,-0.04226151714622974,-0.008977626037923618,0.01204385434128344
1772461206240547800,5.4085478515625,-0.03178513131737709,0.0016632387707941232,0.013900533324945718
1772461206250596900,5.418596923828125,-0.029690789386630057,-0.010628315854398534,0.010786620821803808
1772461206260644900,5.428644775390625,-0.03342880687117576,-0.0032697880514431744,0.005915544186718762
1772461206270694000,5.43869384765625,-0.03178103966414928,-0.00932460371153429,0.01014010307919234
1772461206280741600,5.44874169921875,-0.035817163312435146,-0.00973862787252292,0.00020642755860462783
1772461206290790000,5.458789794921875,-0.02324702007472515,-0.0013609222228173166,0.009506974541116505
1772461206300838700,5.468838623046875,-0.024745149677991865,-0.001012538043409586,-0.0020573891875334083
1772461206310887000,5.478886962890625,-0.03821078045070171,-0.0038395142307970673,0.006688939712010324
1772461206320935700,5.488935791015625,-0.04060615115463734,-0.0009216996884904801,0.009071688396390528
1772461206330984000,5.49898388671875,-0.030135610544681547,-0.006041152460919692,0.00389006624110043
1772461206341032700,5.50903271484375,-0.01741758326888084,0.00025866920249536634,0.002795165410172194
1772461206351081000,5.5190810546875,-0.03043956192731857,-0.006637200391618535,0.00522849350431934
1772461206361128700,5.529128662109375,-0.03612462182641029,-0.012251341345813125,0.013212587593402712
1772461206371178000,5.539177978515625,-0.0358235930532217,-0.002346252598892897,0.0163786869415082
1772461206381225700,5.549225830078125,-0.03672200319766998,0.0001429521346464753,0.0021055391781963405
1772461206391274800,5.559274658203125,-0.02355506311058998,-0.008566378355911002,0.005146295113582164
1772461206401322800,5.56932275390625,-0.03567453997135162,-0.0008957797959446907,-0.0004888064302504062
1772461206411371800,5.579371826171875,-0.043157589203119275,-0.0008572926827706396,0.0001740231263451278
1772461206421419800,5.589419677734375,-0.028193244305253027,-0.005825125956907868,0.010511639805324375
1772461206431468800,5.59946875,-0.031032267123460768,-0.010504031887603923,0.00974120342209935
1772461206441516800,5.609516845703125,-0.031931261789798736,-0.004501421338785439,0.01283458459386602
1772461206451564800,5.619564697265625,-0.01666881072819233,0.0004783855009358376,0.005049849001783877
1772461206461613800,5.62961376953125,-0.0364250660777092,0.0015744462424889206,0.015112009740248322
1772461206471661800,5.639661865234375,-0.03328384544253349,-0.005453424833994358,0.007947232677415013
1772461206481710800,5.6497109375,-0.024008067575097082,-0.0015011526774149388,-0.0019663133705966175
1772461206491758800,5.6597587890625,-0.0265519068390131,0.005943299843324348,0.004061659948341548
1772461206501807600,5.6698076171875,-0.03343465209007263,-0.005624178291019052,0.010653879553917795
1772461206511855900,5.67985595703125,-0.030742928788065907,-0.00464606310701929,0.02021534249493852
1772461206521903900,5.68990380859375,-0.015026888740062713,-0.006517665665177628,0.007441219384036957
1772461206531953000,5.699952880859375,-0.024003975921869276,-0.005685032499628141,0.007618347782921046
1772461206542001000,5.7100009765625,-0.03492693647444248,0.0013852255470119415,-0.00268361306078732
1772461206552050000,5.7200498046875,-0.03523264142274856,-0.0005998929887544364,-0.001503518164437264
1772461206562097700,5.73009765625,-0.028351065215468405,-0.0014803656177129595,-0.00015898995399475096
1772461206572147000,5.74014697265625,-0.025660510957241058,-0.004956937420787289,0.006465177426114678
1772461206582194700,5.750194580078125,-0.03105097182393074,0.0026207586913369594,0.011314590218663215
1772461206592244000,5.760243896484375,-0.03524140925109386,-0.0008064301452133804,0.004717913633678108
1772461206602291700,5.770291748046875,-0.03509294069111347,-0.004727147252904251,-0.0017028766614384948
1772461206612339700,5.780339599609375,-0.03913315599262714,-0.009047202409105375,0.003386062241718173
1772461206622388700,5.790388671875,-0.037491818526387215,-0.0022233751378953454,0.013278072311356663
1772461206632436700,5.800436767578125,-0.032252164307236666,-0.004691537083406001,0.0045772995865903795
1772461206642485800,5.81048583984375,-0.03734042735695839,0.0035564321062527596,0.005609601776394993
1772461206652533800,5.82053369140625,-0.03300152136981487,-0.004293185415584593,0.004280216336157172
1772461206662582800,5.830582763671875,-0.02701543269753456,-0.001031589803751558,0.00957362830284983
1772461206672630800,5.840630859375,-0.03060731970965862,-0.000998874844238162,0.004779379763640463
1772461206682678800,5.8506787109375,-0.03853928175270557,-0.0035996319271624088,0.008752009721659123
1772461206692727800,5.860727783203125,-0.03719780401587486,-0.00420354350390844,0.007275982352346181
1772461206702775800,5.87077587890625,-0.033307226318120955,-0.008421800519758835,0.008375796820409596
1772461206712824800,5.880824951171875,-0.02493278120458126,-0.001601197252096608,0.0051813846932724115
1772461206722872800,5.890872802734375,-0.02582768421769142,0.00047668673419393594,0.018453922312986103
1772461206732921900,5.900921875,-0.04199146803319454,-0.0015122220607008785,0.00806959868175909
1772461206742969900,5.910969970703125,-0.04842939212620258,0.006931817690329626,0.002430990006588399
1772461206753019000,5.921018798828125,-0.030775077491998672,0.004816588235180825,0.00680091218650341
1772461206763067000,5.93106689453125,-0.0282335763156414,-0.005569534627487883,0.0076625339845195406
1772461206773115000,5.941114990234375,-0.026136311775445936,-0.0007793594751972705,0.0035556649212725457
1772461206783164000,5.951163818359375,-0.038703532403707504,-0.003016580475354567,0.005571881848201155
1772461206793211600,5.961211669921875,-0.032116555228829384,-0.0022395864871796217,0.006668992902524769
1772461206803261000,5.971260986328125,-0.014164718952775001,-0.006365342913987115,0.006279975318629294
1772461206813308700,5.98130859375,-0.02119651728570461,-0.002974321369361132,0.005171758348401636
1772461206823357700,5.991357666015625,-0.030028058516979216,0.0019192410921677946,0.0017483780372887848
1772461206833405700,6.00140576171875,-0.034818799924850465,0.004481017871573567,0.006174651780631393
1772461206843454700,6.011454833984375,-0.022852467799186704,-0.0013868877811357377,0.004354742877092212
1772461206853502700,6.021502685546875,-0.027642624685168263,-0.0033257560223806646,0.0016671842935495078
1772461206863551000,6.031551025390625,-0.03677110303640366,-0.005628242544783279,0.010756883270666002
1772461206873599700,6.041599853515625,-0.04844400517344474,-0.012845864039706065,0.009799125888105482
1772461206883648000,6.05164794921875,-0.035576340293884276,-0.006793706127582118,0.005389163958746939
1772461206893696800,6.06169677734375,-0.021807927182316778,-0.0035240824729204177,0.0038020408977754412
1772461206903744800,6.071744873046875,-0.03677285660207271,-0.000271912276558578,0.006284578428510576
1772461206913793800,6.081793701171875,-0.030787352451682088,-0.0030536245501134544,0.006300835443567484
1772461206923841800,6.091841796875,-0.03602291501760482,0.0038381351244635878,0.004656465770024806
1772461206933889800,6.101889892578125,-0.03827098620533943,-0.00033474837969988585,0.0012533610619604586
1772461206943938800,6.111938720703125,-0.028996377381682394,-0.004979551111394539,0.00503832296077162
1772461206953986800,6.12198681640625,-0.02525660633146763,-0.0019114139787387101,0.010648892851546406
1772461206964035800,6.132035888671875,-0.026458383336663244,-0.007672279060399159,-0.003027476328704506
1772461206974083800,6.142083740234375,-0.03453589133024215,0.00023338863076642155,0.008270875141210854
1772461206984132900,6.1521328125,-0.03019815438687801,-0.00027624139180406926,0.007002645303681492
1772461206994180900,6.162180908203125,-0.03019698534309864,-0.00597905614329502,0.00612730550756678
1772461207004230000,6.17222998046875,-0.033490181669592854,-0.006256146918470039,0.008266564292274415
1772461207014277600,6.182277587890625,-0.04201894056200981,0.0008829659801442175,0.003992668099049478
1772461207024326000,6.192325927734375,-0.03468552893400192,-0.005117397812660783,0.0028159890024922786
1772461207034374700,6.202374755859375,-0.026908465191721916,-0.0011100984000600874,0.0030222886969335375
1772461207044423000,6.2124228515625,-0.02407178046107292,-0.007170293488167226,0.002753518225532025
1772461207054471700,6.2224716796875,-0.03903612535893917,0.0016150979132857173,0.012939122680574655
1772461207064520000,6.23252001953125,-0.03783610191941261,0.0021078042005188763,0.009914934287499635
1772461207074568700,6.242568603515625,-0.03723755150437355,-0.00045143356192857024,-0.0015936441333033143
1772461207084617000,6.252616943359375,-0.0364858563542366,0.0036798301570583132,-0.0011357990968972444
1772461207094665700,6.262665771484375,-0.033789456877112385,0.0010606423682998866,0.0019908815562725067
1772461207104714000,6.2727138671875,-0.04665829080045223,0.001281893036700785,0.0032054815104231235
1772461207114761700,6.28276171875,-0.029300913286209106,-0.004067642164556309,0.005160780296660959
1772461207124810800,6.292810791015625,-0.027356208959221837,0.0036778939282987263,0.008555866095051169
1772461207134858800,6.302858642578125,-0.03453881393969059,-0.003498281311383471,0.007816007513180375
1772461207144907800,6.31290771484375,-0.029903555354475975,-0.0002506320265121758,0.004600077673979104
1772461207154955800,6.322955810546875,-0.029302666851878163,0.0042862168186809865,0.0013975735719315707
1772461207165004800,6.3330048828125,-0.03483633558154106,0.004865962068550288,-0.0008081928440369665
1772461207175052500,6.343052490234375,-0.03094458884000778,0.0013307188807986676,0.005769157985970378
1772461207185101600,6.3531015625,-0.031845921593904494,0.0026876864477060735,0.0037074944821186362
1772461207195149600,6.363149658203125,-0.023920389291644095,-0.007230316579714417,0.0022225166213698682
1772461207205197600,6.373197509765625,-0.02496668347418308,0.0046408024100121105,0.00969771134024486
1772461207215246600,6.38324658203125,-0.045616088271141046,-0.0019200904755387455,0.007491031608823686
1772461207225294600,6.393294677734375,-0.03664075465500354,-0.0023295937250368296,0.003515168514102697
1772461207235343400,6.40334326171875,-0.040833530169725414,-0.00480170119330287,0.004128258911147714
1772461207245391600,6.4133916015625,-0.02511573655605316,-0.0016893504595849663,-0.0011356894990429281
1772461207255440400,6.4234404296875,-0.025119828209280968,-0.002732548502739519,0.006065090458933263
1772461207265488600,6.433488525390625,-0.035138533398509024,-0.0029590781344566493,0.00716464919866994
1772461207275537400,6.443537353515625,-0.040675709259510036,0.0036727154296822846,0.008665829275548457
1772461207285585700,6.453585693359375,-0.037084406769275664,0.0019027283487841485,0.0022385909733362496
1772461207295633700,6.463633544921875,-0.03035071460008621,0.006992416170611977,0.0047820466447621585
1772461207305682700,6.4736826171875,-0.0233189162671566,-0.00003368307389318943,0.002653254455141723
1772461207315730700,6.483730712890625,-0.03424421490728855,-0.0047008255015593015,0.0027387773141264913
1772461207325779700,6.49377978515625,-0.022276129215955735,-0.004914760513184592,0.011041636762488634
1772461207335827700,6.50382763671875,-0.02197919209599495,0.0004936378689948469,0.0007898534697480499
1772461207345876500,6.51387646484375,-0.027969372421503064,-0.0016331450266297905,0.008615158534236252
1772461207355924500,6.523924560546875,-0.04203764526247978,-0.005612770981015637,0.002270757943578064
1772461207365973500,6.533973388671875,-0.045779169878363606,0.0013234488897956908,0.005048533827532083
1772461207376021500,6.544021484375,-0.03305646642744541,0.0007571111107710748,-0.0011605682119727133
1772461207386069500,6.554069580078125,-0.02991466127038002,-0.003922881665313616,0.0006026238019578158
1772461207396118500,6.564118408203125,-0.04771744446456432,0.008326614783285185,0.0019205014674924313
1772461207406166500,6.57416650390625,-0.03918634748458862,-0.003300183189706877,0.006048961308039724
1772461207416215600,6.584215576171875,-0.02960954084396362,0.0002961425355169922,0.00441312200082466
1772461207426263600,6.594263671875,-0.044270518881082535,0.00002940875757485628,0.0039390199493616815
1772461207436312600,6.6043125,-0.038732758498191834,0.0034897052792832255,0.004135821163095533
1772461207446360600,6.614360595703125,-0.02466039400398731,0.005650682705454528,0.0007551840151660144
1772461207456409300,6.624409423828125,-0.03154547734260559,-0.0016404424170963466,-0.0006523081625811755
1772461207466457600,6.63445751953125,-0.02675707402229309,0.000548199334135279,0.0055297414732165635
1772461207476506400,6.64450634765625,-0.03753390410244465,-0.00016223222385160625,-0.005415723172109574
1772461207486554600,6.6545546875,-0.0481628501445055,0.0056391566644422705,0.004725201890990138
1772461207496602600,6.6646025390625,-0.030952772146463393,-0.0025276096483226864,0.010430409528966993
1772461207506651600,6.674651611328125,-0.021223405292630195,-0.009929127209633588,0.008109857626911252
1772461207516699600,6.68469970703125,-0.023166940575838086,-0.007614475325401872,0.008052611014340072
1772461207526748700,6.694748779296875,-0.02750818465054035,0.010665643056947737,0.007421181243006139
1772461207536796700,6.704796630859375,-0.03169803755581379,0.004686459049489349,0.0015748846339061855
1772461207546845700,6.714845703125,-0.02616495334804058,-0.002650167448911816,-0.002728109789639711
1772461207556893700,6.724893798828125,-0.025864509096741675,0.002495990667352453,-0.0013860840635374187
1772461207566942500,6.7349423828125,-0.036484687310457224,-0.0020305194469168782,0.013257340050581842
1772461207576990700,6.74499072265625,-0.03603986615240574,-0.005053310467349365,0.007271762834955006
1772461207587038500,6.75503857421875,-0.028856676650047302,-0.007932199505064637,0.009065167324058711
1772461207597087700,6.765087646484375,-0.03304711407721042,0.002450005234312266,0.001230747371353209
1772461207607135500,6.775135498046875,-0.03125087831020355,0.0015832232039887457,0.00823141991365701
1772461207617184500,6.7851845703125,-0.05758826561570167,-0.00014703465471975504,0.008296265310794115
1772461207627232500,6.795232421875,-0.04082768495082855,0.0020040789645630864,0.0020840762650594113
1772461207637281500,6.805281494140625,-0.030497429594397545,-0.0011188388289418072,0.003564597146399319
1772461207647329500,6.81532958984375,-0.018229484173655507,-0.0034782614366617053,-0.0051896593312732876
1772461207657378600,6.825378662109375,-0.020769231784343718,0.0006407181894872337,-0.0027747254103422164
1772461207667426600,6.835426513671875,-0.029446459236741065,-0.004689144196920097,0.0018041268125176429
1772461207677474600,6.845474609375,-0.0333358678907156,-0.003601951748412102,0.0025460312210023404
1772461207687523600,6.855523681640625,-0.03049450698494911,-0.006793066806765273,-0.0002360737781971693
1772461207697571600,6.865571533203125,-0.03439151442348957,-0.007232800797745585,0.009866236307565123
1772461207707620600,6.87562060546875,-0.02437105566859245,-0.0010977503751404582,-0.006780435654055327
1772461207717668600,6.885668701171875,-0.03469663484990597,0.0003875562791712582,0.004278042645379901
1772461207727717600,6.895717529296875,-0.028861352825164794,-0.0015993614880368114,0.008277213550452142
1772461207737765600,6.905765625,-0.03379997827112675,-0.0007110617456492037,0.013487769539281725
1772461207747814700,6.915814697265625,-0.03694236795008182,-0.0023562534030992536,0.004363528971746564
1772461207757862700,6.925862548828125,-0.032900983604788776,-0.0007036273578647523,0.0020876016627065837
1772461207767911700,6.93591162109375,-0.039485038170218464,-0.0007036730236373842,0.00508051813468337
1772461207777959700,6.945959716796875,-0.039784313377737995,-0.006797916511818766,0.0019006825221702455
1772461207788007400,6.95600732421875,-0.031253216397762296,-0.006349478624574839,0.0036014585580676794
1772461207798056700,6.966056640625,-0.034544659158587454,-0.0007984386350028216,0.0014851239912211894
1772461207808104400,6.9761044921875,-0.042918519750237465,0.0014052545548882335,-0.006177373460680246
1772461207818153700,6.98615380859375,-0.027356793481111526,0.005195367552852258,-0.009389065516181289
1772461207828201500,6.996201416015625,-0.03124386404752731,-0.0026567341870162636,0.009631002779584378
1772461207838250800,7.006250732421875,-0.035432547909021374,0.00017724712989293037,0.01146050149537623
1772461207848298500,7.016298583984375,-0.034684359890222546,-0.0043572088288143275,0.010703965773340315
1772461207858347800,7.02634765625,-0.041571781316399575,-0.007794498934270814,0.0091180848213844
1772461207868395500,7.0363955078125,-0.03633388066291809,-0.0044933476301841435,0.010883413993474096
1772461207878443500,7.046443603515625,-0.030495091506838795,0.002312834386480972,0.004582085359562188
1772461207888492500,7.056492431640625,-0.03079378219246864,0.0011102901963051409,0.0063021323515102265
1772461207898540500,7.06654052734375,-0.03812310216724872,0.0004031922397203743,0.0104544297253713
1772461207908589600,7.076589599609375,-0.026601006677746772,-0.0022593232341110705,0.017963471914920953
1772461207918637600,7.086637451171875,-0.031088965746760365,-0.00024439408197067677,-0.0021778372294269503
1772461207928686600,7.0966865234375,-0.02944236758351326,-0.00467981924614869,0.0029011648016050457
1772461207938734600,7.106734619140625,-0.03377952000498771,-0.0033123394183814524,0.009211864052060991
1772461207948783600,7.11678369140625,-0.031234511697292328,-0.013141833045287057,0.0016326061705127356
1772461207958831600,7.12683154296875,-0.032583588218688966,0.0014804204166401177,0.008778148809913545
1772461207968880600,7.136880615234375,-0.025097616377472876,-0.005522718077385798,0.010978417066857218
1772461207978928600,7.1469287109375,-0.030485154634714125,0.0009375457115937024,-0.00031865576142445207
1772461207988976400,7.156976318359375,-0.037217093238234515,0.0011573624747339636,0.0009034699120558798
1772461207999025700,7.167025634765625,-0.03856324715018272,0.0023010069513693453,0.012278686010465025
1772461208009073400,7.177073486328125,-0.03526946630179882,-0.006018529637157917,0.003265486335661262
1772461208019122700,7.187122802734375,-0.029584990924596783,-0.00565771523443982,-0.0041720615202561016
1772461208029170400,7.19717041015625,-0.03288052533864975,-0.006663138550473377,-0.003304046514071524
1772461208039219700,7.2072197265625,-0.03647241235077381,-0.00282274753684178,0.001599507618509233
1772461208049267500,7.217267333984375,-0.033628713357448575,0.0027313246600329873,0.0037202808984555303
1772461208059316700,7.227316650390625,-0.02779576942026615,-0.007659821437625214,0.004405578015185893
1772461208069364500,7.237364501953125,-0.031091303834319114,-0.0008325692334678024,0.012775219089444727
1772461208079412500,7.24741259765625,-0.036030513802170754,-0.010092665474582463,0.008705649829283357
1772461208089461500,7.25746142578125,-0.027650807991623876,0.0024806195682846007,0.005412599633261561
1772461208099509500,7.267509521484375,-0.022265607821941376,-0.004978683461714536,-0.00017548443106934428
1772461208109558500,7.27755859375,-0.023915128594636917,-0.0020383282940369097,0.0010930924663320183
1772461208119606500,7.2876064453125,-0.03140226947963238,0.006658827701536938,0.006459094745200127
1772461208129655600,7.297655517578125,-0.03200140441656112,0.001398359023220837,0.001337532214075327
1772461208139703600,7.30770361328125,-0.03604454232752323,-0.00305734174400568,0.0032486813313327726
1772461208149752600,7.317752685546875,-0.04293021018803119,-0.00040115554626099763,-0.003661116323433816
1772461208159800600,7.327800537109375,-0.033956045615673065,-0.0030943949519190933,0.004787599602714181
1772461208169849600,7.337849609375,-0.030962124496698377,0.0013622739296872168,0.004652410649415105
1772461208179901200,7.347901123046875,-0.024974282258749005,0.004273722663288936,0.006203585614170878
1772461208189949000,7.357948974609375,-0.03589899637699127,-0.002185098087275401,0.00839857490779832
1772461208199998200,7.367998291015625,-0.04487608355879783,0.002758358797430992,0.0016462328370660544
1772461208210046000,7.3780458984375,-0.034703649112582204,-0.006519958086963743,0.006618450025375932
1772461208220095200,7.38809521484375,-0.0227349788993597,-0.01071379304761067,-0.004685582266654819
1772461208230143000,7.39814306640625,-0.020942250263690947,-0.002419445699267089,-0.0043674014292657375
1772461208240192300,7.408192138671875,-0.0336667072802782,0.00684445906728506,0.007266502137947827
1772461208250240000,7.418239990234375,-0.025289924079179762,0.000785250359866768,0.014073971929401158
1772461208260289000,7.4282890625,-0.030229718568921086,0.0015866298706270754,0.005800101113505661
1772461208270337000,7.4383369140625,-0.03396948961913585,-0.003080740885902196,0.007187628215458244
1772461208280386000,7.448385986328125,-0.03561316517293453,-0.0019176793227437883,0.01642880969354883
1772461208290434000,7.45843408203125,-0.03277238878905773,0.0005662555806338786,0.010099953731894493
1772461208300482000,7.46848193359375,-0.03980535616576671,-0.0053924062286037945,0.011025653742067515
1772461208310531000,7.478531005859375,-0.030076573833823204,-0.0036579927845858035,-0.004284819446038455
1772461208320579000,7.4885791015625,-0.0249877262622118,-0.0012229111247695982,0.003952098626643419
1772461208330628000,7.498628173828125,-0.03127309014201164,-0.003838692246889695,0.002853544533904642
1772461208340676000,7.508676025390625,-0.036062077984213826,-0.0020586038970854133,0.0011743592753075062
1772461208350725000,7.51872509765625,-0.034712416940927505,-0.0018234343011863528,-0.012293755715433508
1772461208360773000,7.528773193359375,-0.02648468682169914,-0.010945345914317294,-0.002062065362650901
1772461208370822000,7.53882177734375,-0.03786298992633819,-0.004803838351462036,0.004617375868652016
1772461208380870100,7.5488701171875,-0.03142681939899921,-0.004057184702623636,0.014721877911500631
1772461208390919000,7.5589189453125,-0.032472529059648515,-0.00542339502191171,0.0044423298289999365
1772461208400967200,7.56896728515625,-0.03307458660602569,0.0007955068923998623,0.004509221052750945
1772461208411015000,7.579014892578125,-0.030233810222148893,-0.007960274822078645,0.003407159828674048
1772461208421064200,7.589064208984375,-0.03577040156126022,-0.005215031234547495,0.0037331951789557932
1772461208431112000,7.59911181640625,-0.033679566761851305,0.006020648529008031,0.000057063949480652805
1772461208441161200,7.6091611328125,-0.03517360471189022,0.0063811067386996,0.002646532453410327
1772461208451209000,7.619208984375,-0.03861526959836483,-0.00018531170533969996,0.001913633335288614
1772461208461258200,7.62925830078125,-0.035026889717578884,-0.008803995637223123,-0.006191292388178408
1772461208471306000,7.639305908203125,-0.030537761604785916,-0.006851345465797931,0.0026357187984511255
1772461208481355000,7.64935498046875,-0.04625029452145099,-0.0042622696875128895,0.005483637309167534
1772461208491403000,7.659403076171875,-0.040113399201631546,-0.002061544772842899,0.00927079116506502
1772461208501452000,7.6694521484375,-0.04026362132728099,0.00034494098015129564,0.0071525569020770485
1772461208511500000,7.6795,-0.03547112635374069,0.0010799863895867019,0.0032531017781235274
1772461208521548000,7.689548095703125,-0.032031799554824825,0.00023187252711504697,0.004834452685434371
1772461208531597000,7.69959716796875,-0.03323357656002045,-0.001972688312456012,0.00393799703605473
1772461208541645000,7.70964501953125,-0.03532908753454685,0.0003994293800555169,0.0004832717386074364
1772461208551694000,7.719694091796875,-0.030683892077207564,-0.0038196222202386706,0.0015206154297105967
1772461208561742000,7.7297421875,-0.02529576929807663,-0.00855053233280778,0.009152827341202647
1772461208571791000,7.739791015625,-0.024251228681206702,0.0009310520387254655,0.006235990046430379
1772461208581839000,7.749839111328125,-0.0363724591076374,0.0010945263715926557,0.005612652250006795
1772461208591888000,7.759887939453125,-0.02590133397579193,-0.00340146987340413,0.004206091654021292
1772461208601936100,7.76993603515625,-0.013181553134322165,0.005295485192770138,-0.002856247947644442
1772461208611985000,7.77998486328125,-0.035628362742066384,-0.0043814938866998995,0.0032518414027988907
1772461208622033200,7.790033203125,-0.03218611333370208,-0.002675183159159496,0.0009924085708335041
1772461208632081200,7.8000810546875,-0.03293137874305248,-0.0002834839833434671,0.004826872167177498
1772461208642130200,7.810130126953125,-0.04115969338417053,0.0008953048719093203,0.0007778890373185276
1772461208652178200,7.82017822265625,-0.0341331557482481,-0.008059132086671889,0.007996405581384897
1772461208662227200,7.830227294921875,-0.023960136780142784,-0.00785806568977423,0.013765508768428115
1772461208672275000,7.84027490234375,-0.0223123695731163,0.0009133793847169727,0.009014094723947345
1772461208682324200,7.85032421875,-0.03653320262730121,-0.0025062563330400735,0.0024738062350079418
1772461208692372000,7.8603720703125,-0.04371580760776996,-0.005746599094290286,-0.007590674324706196
1772461208702421000,7.8704208984375,-0.03399053240716457,-0.007687175235431641,0.0029942864451557396
1772461208712469000,7.880468994140625,-0.02546001994907856,-0.001608439843636006,0.003359283832646906
1772461208722518000,7.89051806640625,-0.023064649245142937,-0.00803045398145914,-0.0030144707166589796
1772461208732566000,7.90056591796875,-0.032492987325787544,-0.011365069163730368,-0.003986055695172399
1772461208742615000,7.910614990234375,-0.030097616621851918,-0.007186395239597186,-0.0032015177213586864
1772461208752663000,7.9206630859375,-0.035786768174171445,-0.007231850949674845,0.00632869156487286
1772461208762711000,7.9307109375,-0.03593114508092403,-0.00951112099327147,-0.00727428358560428
1772461208772760000,7.940760009765625,-0.040274142721295356,-0.0005799553124234079,0.004412756674643606
1772461208782808000,7.95080810546875,-0.047153965362906454,-0.005774683544458821,0.005389492752309888
1772461208792857000,7.960857177734375,-0.04236205491125583,0.002776579440711066,0.011740323083754629
1772461208802905000,7.970905029296875,-0.05178571681678295,0.0038398612906690686,0.011201046841591596
1772461208812953900,7.980953857421875,-0.06494856525063514,0.0023368637160398067,-0.002218077908270061
1772461208823002000,7.991002197265625,-0.06807692640423774,-0.0074609104651957745,-0.0015673771808855234
1772461208833051000,8.00105078125,-0.06790858410000801,-0.002611607270501554,-0.0036154140181839465
1772461208843099100,8.01109912109375,-0.0659480976819992,-0.0016392551070079206,0.00718307990450412
1772461208853148000,8.02114794921875,-0.03780453773736953,-0.013891646765591575,0.005325852931570262
1772461208863196200,8.031196044921876,-0.027616905722022054,-0.017232773887040094,0.013477193346340208
1772461208873244200,8.041244140625,-0.040620764201879496,-0.025039766976702956,0.024127766698319463
1772461208883293200,8.051293212890625,-0.022052841854095458,-0.026252220639539883,0.021012374624144285
1772461208893341200,8.061341064453124,-0.0006435586005449295,-0.02026372994761914,0.013428148306533693
1772461208903390200,8.07139013671875,-0.09086568131744861,-0.021626159140933302,0.016099888266436754
1772461208913438200,8.081438232421876,-0.043723990914225574,-0.00602628368535079,0.009606215398199856
1772461208923487000,8.091487060546875,0.2691734992444515,0.021596001464687285,-0.02423710882430896
1772461208933535000,8.101534912109376,-0.18375147028565406,0.008916324304742738,0.0029164719685912132
1772461208943584000,8.111583984375,-0.4854010057210922,-0.005120028161164373,0.02633656532159075
1772461208953632000,8.121632080078125,0.10611235028803348,-0.003763133659493178,0.00536877875784412
1772461208963681000,8.131680908203125,0.5348059648811817,0.0009692194914910941,-0.03348521323353052
1772461208973729000,8.14172900390625,0.14170388815104962,0.003276217792229727,-0.021418379875458776
1772461208983777000,8.151777099609374,-0.4315419897615909,0.009911765082878991,-0.0009227408681064844
1772461208993826000,8.161825927734375,-0.32768706301152706,0.011057263589883223,0.01210488207982853
1772461209003874000,8.1718740234375,0.18780980576574802,0.0018816307618282734,-0.002851608305145055
1772461209013923000,8.181923095703125,0.2901490672558546,-0.020623895896365863,-0.021738003751263023
1772461209023971000,8.19197119140625,-0.11626140385866164,-0.02601259406423196,-0.0012661657446064055
1772461209034019800,8.202019775390625,-0.3320283070862293,-0.007321301065105945,0.026640206176973876
1772461209044068000,8.212068115234375,-0.07240648004114628,0.017243587541999294,0.01552703854823485
1772461209054116900,8.222116943359374,0.19319325236976145,0.004597200730303302,-0.018103081315010785
1772461209064165000,8.2321650390625,0.08021218535602093,-0.009795262563740834,-0.033764139772765336
1772461209074214000,8.2422138671875,-0.18674129975140094,-0.008893436619499697,0.005983440057467669
1772461209084262100,8.25226220703125,-0.1762643294006586,-0.0021636899730656293,0.020570658738631755
1772461209094311000,8.262310791015626,0.025747604718804357,-0.009662146836519241,0.02479066932015121
1772461209104359200,8.272359130859375,0.11403320641517639,-0.02003491702727042,0.0032067418857477602
1772461209114407200,8.2824072265625,-0.04038812448978424,-0.015229087648121638,0.00351363414414227
1772461209124456200,8.292456298828125,-0.15560674129724503,0.005457845280785113,0.013433153275214134
1772461209134504200,8.302504150390625,-0.0813853207886219,0.005424016076419502,0.011813808445073664
1772461209144553000,8.312552978515624,0.053585459715127945,-0.0018930928707588462,-0.019533972634654492
1772461209154601200,8.322601318359375,0.02515197691321373,-0.011122766574146225,-0.021833134688809513
1772461209164650000,8.33264990234375,-0.06762742907106876,-0.0012684399000834673,0.0030057028883136807
1772461209174694100,8.342694091796876,-0.10024959573447703,0.013847898955410345,0.0352834948271513
1772461209184743000,8.352742919921875,-0.019298574709892272,-0.001059336327202618,0.01260013651717454
1772461209194791200,8.362791259765626,0.03247603619098663,-0.015283311186544597,-0.01158580837547779
1772461209204840000,8.37283984375,-0.014507833302021026,-0.013208267611311747,-0.004758610970247537
1772461209214888000,8.382887939453125,-0.09052315149009227,0.003273843172052875,0.025050982490461317
1772461209224937000,8.39293701171875,-0.07151449963748455,-0.008000497234612703,0.008276208903454244
1772461209234985000,8.40298486328125,0.006891513079404831,-0.013778176453756168,-0.017870825195405633
1772461209245033000,8.413032958984376,0.006741290953755378,-0.00669195365300402,-0.0036715281195938585
1772461209255082000,8.42308203125,-0.05506020844280719,0.013895564888883381,0.020657295842468736
1772461209265130000,8.4331298828125,-0.07256897712647914,-0.00008287424417212605,0.007271525372937321
1772461209275179000,8.443178955078125,-0.023187983363866804,-0.011884800455207005,-0.016543193320836872
1772461209285227000,8.45322705078125,0.0000011690437793731689,-0.0032675595617387442,-0.01070582893686369
1772461209295276000,8.463276123046874,-0.028131869506835935,0.004849467591475695,0.01680997276455164
1772461209305324000,8.473323974609375,-0.05297521886229515,0.0037165545714087783,0.01566657488308847
1772461209315373000,8.483373046875,-0.04309504536092281,-0.013033714762004092,-0.0030378698585554957
1772461209325420800,8.4934208984375,-0.009426584514975547,-0.004416921393107623,-0.0007683357576839625
1772461209335470000,8.503469970703126,-0.016909049224853513,0.0027949736139271405,0.004847640960570425
1772461209345517800,8.513517822265625,-0.04997837513387203,0.007663849158771336,0.006643584466632455
1772461209355566000,8.523566162109375,-0.049530046844482416,0.0003801310245413333,-0.0008297470887191593
1772461209365614800,8.53361474609375,-0.02274550029337406,-0.005623045779857784,-0.00445416639726609
1772461209375663000,8.5436630859375,-0.020954525223374366,0.0034310886935330926,0.010978216137457638
1772461209385711900,8.5537119140625,-0.026793898901343344,-0.005153619903512299,0.0022053828234784305
1772461209395760000,8.563760009765625,-0.03174947548210621,-0.011067063464689999,-0.000760919636208564
1772461209405809000,8.573808837890626,0.2844184146493673,-0.0018468425762373953,-0.001082808534335345
1772461209415857200,8.583857177734375,-0.01948328362703323,0.009013199674803763,0.008478216015268117
1772461209425906000,8.593906005859376,-0.6919307095259427,0.0016221213091164827,0.028673940494284032
1772461209435954200,8.6039541015625,-0.160116327676177,-0.010818833457818254,0.007634221205487847
1772461209446003000,8.6140029296875,0.5439116468787193,-0.011507381977559999,-0.021641904699336738
1772461209456051000,8.624051025390624,0.2733615985840559,-0.010346128778997809,0.0070984155620448285
1772461209466100000,8.634099853515625,-0.3958054904699325,-0.0020871358718257396,0.04543340691430494
1772461209476148000,8.64414794921875,-0.3784393451273441,0.00580478642177768,0.02445745531041175
1772461209486196000,8.654196044921875,0.13645488158166408,0.004757222730759531,-0.01701435449654236
1772461209496245000,8.664244873046876,0.29476386757493017,-0.0015643175741191953,-0.03649900809675455
1772461209506293000,8.67429296875,-0.06287409706413745,-0.012497772121243178,-0.014789974711649119
1772461209516342000,8.684342041015626,-0.27640345049798487,0.002269278372544795,0.00709991339938715
1772461209526390000,8.69439013671875,-0.1022293713748455,0.02188916659182869,0.03135307830935344
1772461209536439000,8.70443896484375,0.14107552711963653,0.01034577258597128,0.011144183821510523
1772461209546487000,8.714487060546874,0.06446107399463653,-0.013171086539234966,-0.024710790750663725
1772461209556536000,8.7245361328125,-0.15041501787304878,-0.011519976597651839,-0.01582010321067646
1772461209566583800,8.734583740234376,-0.1641729095906019,-0.012579559520026668,0.01081654103603214
1772461209576633000,8.744633056640625,0.0050648821741342545,-0.0055332212050911034,0.010149638092517852
1772461209586680800,8.754680908203126,0.07389467277228831,-0.004164544934080913,-0.0034317280143499372
1772461209596730000,8.764730224609375,-0.042971711242198944,-0.015584906215313821,0.003150152860302478
1772461209606777900,8.77477783203125,-0.1297580142915249,0.0020271127802785486,0.02360604437915608
1772461209616826000,8.784826171875,-0.05523614953160286,0.006510240410547703,0.00901946501880884
1772461209626875000,8.794875,0.04128010489344597,-0.010116174214333295,-0.009384663335699588
1772461209636923100,8.804923095703124,0.015094693279266356,-0.006416159785771742,-0.018655235305055976
1772461209646972000,8.814971923828125,-0.07708148611485957,0.0036232045989949254,0.0011333148788660763
1772461209657020200,8.825020263671876,-0.08261515484452248,0.012602602468896657,0.02053816297482699
1772461209667069000,8.83506884765625,-0.018420622831583022,0.006721344144269823,0.009061367931775748
1772461209677117000,8.845116943359375,0.0155459441781044,-0.015943081136373802,0.0005177767964079976
1772461209687166000,8.855166015625,-0.033087446087598796,-0.017731626787269486,0.004232358606439083
1772461209697214000,8.8652138671875,-0.06465747334957123,-0.006267316766455769,0.01569837652714923
1772461209707263000,8.875262939453124,-0.06944879927933216,0.006190269474871456,0.020856106350198387
1772461209717311000,8.88531103515625,-0.013491349735856055,-0.0024185141175054013,0.005279219044558704
1772461209727360000,8.895360107421874,0.0008703530937433242,-0.0046039501314982766,0.0005881386188790202
1772461209737408000,8.905407958984375,-0.03175356713533401,0.002911832326091826,0.002070193870179355
1772461209747456000,8.9154560546875,-0.06182721835970878,0.00969572944571264,0.015230284091364591
1772461209757505000,8.925505126953125,-0.04252221390902996,-0.0034937238672748208,-0.005061429841723293
1772461209767553000,8.935552978515625,-0.011098901641368866,-0.014441417002305388,-0.005542107764445245
1772461209777602000,8.94560205078125,-0.012746668848395346,0.011633812235668301,0.0027790727918967605
1772461209787649800,8.95564990234375,-0.05000467861890793,0.005899314571125433,0.016603508673328906
1772461209797699000,8.965698974609374,-0.05554243900179863,-0.006074077482987195,0.012515983631368726
1772461209807746800,8.975746826171875,-0.042674774122238156,-0.01755404173065908,-0.003369987889751792
1772461209817796000,8.985796142578126,-0.03144610862135887,-0.0027474720772355794,0.0006691131669096648
1772461209827843800,8.99584375,-0.025756957069039344,-0.0009239555776584893,0.009684924923907965
1772461209837893000,9.00589306640625,-0.031438509836792944,-0.0018955131567083298,0.00908507760092616
1772461209847940900,9.01594091796875,-0.029342414340376852,0.0037527766622602937,0.0017844539976678787
1772461209857990100,9.025990234375,-0.029047230786085128,0.0031059118597768247,0.00041020650239661333
1772461209868038000,9.036037841796874,-0.024860300490260123,0.004087287579942494,0.007605853627528995
1772461209878086100,9.046086181640625,-0.038331776481866836,0.005682502615824341,-0.005862425759993494
1772461209888135000,9.056135009765624,-0.04027355819940567,-0.0176962814792525,-0.002979253272805363
1772461209898183000,9.066182861328125,-0.033840894803404804,-0.020353581921849398,0.004983469234686345
1772461209908232000,9.07623193359375,-0.01962590696811676,-0.004698131220974028,0.0034568441892974078
1772461209918280000,9.086280029296875,-0.03863046716749668,0.0005555058577563614,0.011069547682721167
1772461209928329000,9.096328857421875,-0.03683540044426918,0.004107946775481105,0.0025130422668531533
1772461209938377000,9.106376953125,-0.040277649852633476,-0.00466817447412759,-0.010373765704594551
1772461209948426000,9.116426025390625,-0.029953239715099333,-0.0021947152989916503,-0.000018394173216074703
1772461209958474000,9.126473876953124,-0.03145136931836605,0.004620225412864238,0.007876487262453883
1772461209968523000,9.13652294921875,-0.03159983787834644,0.0027652999948710203,0.005999404811579734
1772461209978571000,9.146571044921876,-0.040732407882809636,0.0028947715934365984,0.0005605382259003818
1772461209988620000,9.1566201171875,-0.031160861939191816,-0.001637401076639071,0.007910572195146232
1772461209998668000,9.16666796875,-0.035354221975803374,-0.0107356030206196,0.004956179368961602
1772461210008717000,9.176717041015625,-0.03505494676828384,-0.010285712961805984,0.0026991759561002253
1772461210018765000,9.18676513671875,-0.023083353945612905,-0.016980287830159067,-0.0033879254052415486
1772461210028812800,9.196812744140624,-0.020393384209275243,-0.007146328090690076,-0.010207925884705036
1772461210038862000,9.206862060546875,-0.03955108914375305,0.007370072110276669,0.007609799150284379
1772461210048909800,9.216909912109376,-0.04479132788479328,0.005728844241891056,0.00720110875153914
1772461210058959000,9.226958984375,-0.03925532106757164,-0.002879774953704327,0.004614873384311795
1772461210069006800,9.2370068359375,-0.029829905596375463,-0.007528888534335419,-0.005192234880849719
1772461210079056100,9.24705615234375,-0.032521628898382185,-0.014923601895524188,-0.0006683642482385039
1772461210089104000,9.257103759765625,-0.030272388666868207,-0.0032269170240964737,0.008045633284281938
1772461210099153200,9.267153076171875,-0.030720132434368132,-0.0034708361820317804,-0.0019217983754351734
1772461210109201000,9.277200927734375,-0.03820201262235641,-0.013235648808581755,-0.0023287169422023
1772461210119250200,9.287250244140624,-0.029374563044309614,-0.0041806740849744525,0.006498787434771657
1772461210129298000,9.2972978515625,-0.029226094484329224,-0.0026299649110995233,0.00777101759398356
1772461210139347200,9.30734716796875,-0.05002805949449539,0.0017034063844010234,0.006191383719723671
1772461210149395000,9.31739501953125,-0.044341830551624294,-0.0025832396925427018,0.000889368321467191
1772461210159443000,9.32744287109375,-0.0236935947984457,0.004235911403549835,0.0026511720959097144
1772461210169492000,9.337491943359375,-0.024592589464783668,0.0029632519860751925,0.0006380969741381704
1772461210179541000,9.347541015625,-0.039406712237000464,-0.003438349551381543,-0.0005572502902708947
1772461210189589800,9.35758984375,-0.04360065679550171,-0.005865521899377927,0.0050421223530545825
1772461210199638000,9.367637939453125,-0.032976386928558345,-0.007196551307430491,0.006603453385643661
1772461210209686800,9.377686767578124,-0.03447451653182507,-0.0005734707727096974,0.005511182903219014
1772461210219734800,9.38773486328125,-0.029684359645843504,-0.0006455678945407271,0.007329319974780082
1772461210229783800,9.39778369140625,-0.024001053312420844,-0.00495633463258855,0.002102415639348328
1772461210239831800,9.407831787109375,-0.02415069091618061,0.0046134029464330525,-0.003297032251395285
1772461210249880800,9.417880859375,-0.037467268607020376,-0.001824110154621303,0.003333016880229115
1772461210259928600,9.427928466796875,-0.031333880418539045,-0.015336064287088811,0.004948050861433148
1772461210269977900,9.437977783203126,-0.03642681964337825,-0.006069008582225069,0.0036262094068340955
1772461210280025600,9.448025634765624,-0.031190672555565832,-0.007717542974231764,-0.0003859671102836728
1772461210290073900,9.458073974609375,-0.030296938586235046,-0.0064590490794274955,0.00472271767295897
1772461210300122600,9.46812255859375,-0.02267009696960449,-0.001566847457922995,0.005943254177551717
1772461210310171000,9.4781708984375,-0.030602059012651443,-0.004666813634103164,0.003229191179573536
1772461210320219600,9.4882197265625,-0.048257542690634724,-0.004767588861146942,0.001546918914746493
1772461210330268000,9.498267822265625,-0.034492636710405346,-0.00882313872911036,0.0026829554736614225
1772461210340316700,9.508316650390626,-0.028655601119995114,-0.0006428644808009267,0.006711918728798627
1772461210350365000,9.518364990234375,-0.04242401423156261,0.006022721755085512,0.012506905275769531
1772461210360413700,9.52841357421875,-0.038832711741328234,-0.0022990707226097583,0.005746854822617024
1772461210370461700,9.538461669921874,-0.04676701187193393,0.0005213661261368542,0.0018779775000177324
1772461210380510700,9.5485107421875,-0.03164601510763168,0.003207481671264395,0.007066212059184908
1772461210390558700,9.558558837890626,-0.02686170344054699,0.004634464000770822,0.0021787322785705326
1772461210400607700,9.568607666015625,-0.04032791873514652,0.001902353889448568,-0.00043994405353441833
1772461210410655700,9.57865576171875,-0.04107727579772472,0.0033768925545737145,0.006252977713849395
1772461210420704800,9.588704833984375,-0.04123217409849167,0.0018694653999991714,0.00696090678749606
1772461210430752800,9.598752685546875,-0.013562076884508133,-0.0013167634206824005,0.0025110329728573557
1772461210440801000,9.608801025390624,-0.004890110129117965,0.002456243178853765,-0.0021559541911818085
1772461210450849800,9.618849853515625,-0.029886019697785374,0.003945595820620656,0.008591759392339736
1772461210460898000,9.62889794921875,-0.04964110600352287,0.00009008030309341848,0.013830664692819118
1772461210470946800,9.63894677734375,-0.06460369733572006,0.00013448570040054618,0.010893332599289715
1772461210480994800,9.648994873046876,-0.026146833169460294,-0.009683929410064592,-0.0003565583527088165
1772461210491043800,9.6590439453125,-0.005341945549845695,-0.0016484430604614317,-0.0055713338589295745
1772461210501091800,9.669091796875,-0.020451251876354215,-0.0002785429467447102,-0.00294635565020144
1772461210511140900,9.679140869140625,-0.049772038906812664,0.00043966092574410136,-0.002276986754965037
1772461210521188600,9.689188720703125,-0.057848962378501886,0.006514651724183931,0.007241185033600777
1772461210531238000,9.69923779296875,-0.021039865419268607,0.0009867094824090599,0.008149970441590994
1772461210541285600,9.70928564453125,-0.01505319222509861,0.00002453165305778384,0.003428275681938976
