time,seconds_elapsed,z,y,x
1772461200908619500,0.07661962890625,-0.008871788159012794,0.004676776938140392,-0.00008495483780279756
1772461200918667500,0.08666748046875,-0.009620136581361294,0.007546066772192717,0.003353186184540391
1772461200928716500,0.096716552734375,-0.0076035913079977036,0.006963633466511965,0.0023310647811740637
1772461200938764500,0.1067646484375,-0.00754926260560751,0.006924751214683056,0.005508482456207275
1772461200948812500,0.1168125,-0.008509065955877304,0.008057394064962864,0.0017896442441269755
1772461200958861600,0.126861572265625,-0.007355917245149612,0.008794290944933891,0.002472212305292487
1772461200968909600,0.13690966796875,-0.007155114784836769,0.005930593237280846,0.0012876383261755109
1772461200978957300,0.146957275390625,-0.010877149179577827,0.009207879193127155,0.0022951122373342514
1772461200989006600,0.157006591796875,-0.008501875214278698,0.007708253338932991,0.0022503710351884365
1772461200999054300,0.167054443359375,-0.006980677600950003,0.006853378843516111,0.002575543010607362
1772461201009102600,0.1771025390625,-0.010381801053881645,0.009011871181428432,0.002439189236611128
1772461201019151400,0.1871513671875,-0.007376423571258783,0.008856075815856457,0.0048855687491595745
1772461201029199400,0.197199462890625,-0.011695537716150284,0.006342584267258644,0.006084790453314781
1772461201039247600,0.20724755859375,-0.006993194576352835,0.007171892561018467,0.003575559938326478
1772461201049296400,0.21729638671875,-0.00797297153621912,0.008016914129257202,0.0047087352722883224
1772461201059344600,0.2273447265625,-0.00959936436265707,0.00697907991707325,0.0031041805632412434
1772461201069393400,0.237393310546875,-0.008020109497010708,0.00836818479001522,0.004266916774213314
1772461201079441700,0.247441650390625,-0.008896289393305779,0.006222742144018412,0.002779008587822318
1772461201089489400,0.257489501953125,-0.007012635935097933,0.009740778245031834,0.0033393376506865025
1772461201099538700,0.26753857421875,-0.0067423246800899506,0.007157511543482542,0.000027430558475316502
1772461201109586400,0.27758642578125,-0.007020092569291592,0.007245395798236132,0.0035843485966324806
1772461201119634400,0.287634521484375,-0.008243282325565815,0.006845655385404825,0.003772101365029812
1772461201129683500,0.297683349609375,-0.008437693119049072,0.007424094248563051,0.0016615461790934205
1772461201139731500,0.3077314453125,-0.008335161954164505,0.005890113301575184,0.0020178770646452904
1772461201149779500,0.317779541015625,-0.008056861348450184,0.00899882148951292,-0.0011592740193009377
1772461201159828500,0.327828369140625,-0.008727711625397205,0.005906891077756882,0.0016186692519113421
1772461201169875500,0.33787548828125,-0.008500011637806892,0.006956709548830986,0.0017246630741283298
1772461201179923200,0.347923095703125,-0.008192948997020721,0.006338057108223438,0.004334827419370413
1772461201189972500,0.357972412109375,-0.0089365029707551,0.00703926756978035,0.0020532971248030663
1772461201200020200,0.368020263671875,-0.009093363769352436,0.007966313511133194,0.004532699938863516
1772461201210068500,0.378068359375,-0.006110889371484518,0.009316802956163883,0.005784119479358196
1772461201220117200,0.3881171875,-0.0097423754632473,0.009284045547246933,0.0013944311067461967
1772461201230165200,0.398165283203125,-0.008586031384766102,0.007838482037186623,0.003591272747144103
1772461201240214300,0.40821435546875,-0.008775648660957813,0.0075750951655209064,0.000568318588193506
1772461201250262300,0.41826220703125,-0.008474977687001228,0.0062307314947247505,0.0028045750223100185
1772461201260310500,0.428310546875,-0.005239236634224653,0.006992395501583815,0.0013792511308565736
1772461201270359300,0.438359375,-0.006543386727571487,0.009889914654195309,0.0035350800026208162
1772461201280407600,0.448407470703125,-0.009795372374355793,0.007874168455600739,0.004547880031168461
1772461201290455300,0.458455322265625,-0.006918360013514757,0.008582835085690022,0.0008948221220634878
1772461201300504300,0.46850439453125,-0.008154598996043205,0.006442452780902386,0.002517219865694642
1772461201310552300,0.47855224609375,-0.00945235788822174,0.006523679476231337,0.0006301039247773588
1772461201320600300,0.488600341796875,-0.009192433208227158,0.00606375141069293,0.004571582190692425
1772461201330649300,0.4986494140625,-0.009788980707526207,0.00797590147703886,-0.0002567287301644683
1772461201340697300,0.508697265625,-0.008054464124143124,0.0086054727435112,0.0009656621841713786
1772461201350745300,0.518745361328125,-0.00899589154869318,0.005391037091612816,0.001800030586309731
1772461201360794400,0.52879443359375,-0.008301339112222195,0.00920042209327221,0.0010668623726814985
1772461201370842400,0.53884228515625,-0.009548763744533062,0.007641674485057592,0.0011544802691787481
1772461201380891400,0.548891357421875,-0.008840629830956459,0.0059508332051336765,0.0012239888310432434
1772461201390939100,0.558939208984375,-0.009139169938862324,0.00845873262733221,0.0019560917280614376
1772461201400987400,0.5689873046875,-0.006930876523256302,0.008019044063985348,0.0013435647124424577
1772461201411036200,0.5790361328125,-0.007896538823843002,0.007696535438299179,0.0008671252289786935
1772461201421084400,0.58908447265625,-0.006324474699795246,0.006739395204931498,-0.0002593918761704117
1772461201431132400,0.59913232421875,-0.010114951990544796,0.007877896539866924,0.001663410454057157
1772461201441181400,0.609181396484375,-0.010174873284995556,0.008134093135595322,0.0003046656202059239
1772461201451229400,0.6192294921875,-0.0067937239073216915,0.008021174930036068,0.003168362658470869
1772461201461277200,0.629277099609375,-0.008109858259558678,0.007771636825054884,0.0006793724023737013
1772461201471326500,0.639326416015625,-0.007164968643337488,0.010038519278168678,0.0026405241806060076
1772461201481374200,0.649374267578125,-0.0070070428773760796,0.006361759267747402,0.0029230855870991945
1772461201491422500,0.65942236328125,-0.007818241603672504,0.00965555664151907,0.002895388752222061
1772461201501471200,0.66947119140625,-0.010459299199283123,0.008886702358722687,0.0009038768475875258
1772461201511519500,0.67951953125,-0.009070460684597492,0.008593488484621048,0.003929760307073593
1772461201521568300,0.689568359375,-0.008607869036495686,0.007740477565675974,0.0036336169578135014
1772461201531616500,0.699616455078125,-0.007809720002114773,0.009809753857553005,-0.0014032195322215557
1772461201541664300,0.709664306640625,-0.00788641907274723,0.004385427106171846,0.0027417242527008057
1772461201551713500,0.719713623046875,-0.00501153664663434,0.009195894934237003,0.0008689894457347691
1772461201561761300,0.72976123046875,-0.008381767198443413,0.011476093903183937,0.007796137593686581
1772461201571809300,0.739809326171875,-0.007998005487024784,0.013175723142921925,0.010935472324490547
1772461201581858300,0.7498583984375,-0.008347677998244762,0.01122122909873724,0.004800081718713045
1772461201591906300,0.75990625,-0.008917861618101597,0.0029435919132083654,-0.000218645524000749
1772461201601954600,0.76995458984375,-0.007449394091963768,0.0016178702935576439,-0.003913515247404575
1772461201612003300,0.78000341796875,-0.007266434840857983,0.009623599238693714,-0.0006601976347155869
1772461201622051300,0.79005126953125,-0.00746031291782856,0.008704009465873241,0.005763879511505365
1772461201632099300,0.800099365234375,-0.008095476776361465,0.010249707847833633,0.007334345486015081
1772461201642148400,0.8101484375,-0.008810536004602909,0.006380667444318533,0.003900199430063367
1772461201652196400,0.8201962890625,-0.009735718369483948,0.006435528863221407,0.0008671252289786935
1772461201662245400,0.830245361328125,-0.004877046681940556,0.009244364686310291,0.005360943265259266
1772461201672293400,0.84029345703125,-0.008332764729857445,0.010571950115263462,0.006505836267024279
1772461201682341400,0.85034130859375,-0.006158826407045126,0.008979912847280502,0.004815527703613043
1772461201692390400,0.860390380859375,-0.008928247727453709,0.008142614737153053,0.003979295492172241
1772461201702438400,0.8704384765625,-0.008354069665074348,0.008317318744957447,0.005057609174400568
1772461201712486100,0.880486083984375,-0.007170028518885374,0.007998005487024784,0.005825398489832878
1772461201722535400,0.890535400390625,-0.009862750768661499,0.007244597189128399,0.002581668319180608
1772461201732583200,0.900583251953125,-0.007809720002114773,0.0070885359309613705,0.00430260319262743
1772461201742631400,0.91063134765625,-0.00902918167412281,0.008593488484621048,0.0030056436080485582
1772461201752680200,0.92068017578125,-0.008044078014791012,0.009969277307391167,0.003183010034263134
1772461201762728400,0.930728515625,-0.00908803753554821,0.010232397355139256,0.0020780644845217466
1772461201772777200,0.940777099609375,-0.009400691837072372,0.00945022702217102,0.005399825517088175
1772461201782825200,0.9508251953125,-0.008311726152896881,0.006315686274319887,0.0008969526388682425
1772461201792873500,0.96087353515625,-0.009711217135190964,0.007349525578320026,0.0032929987646639347
1772461201802922200,0.970922119140625,-0.008511196821928024,0.008297877386212349,0.0035412053111940622
1772461201812970500,0.980970458984375,-0.009006810374557972,0.009102151729166508,0.0032288164366036654
1772461201823018200,0.991018310546875,-0.0070158313028514385,0.006098372396081686,0.0024708807468414307
1772461201833067500,1.001067626953125,-0.007395331747829914,0.010059824213385582,0.004085022956132889
1772461201843115300,1.011115234375,-0.00768721429631114,0.008162588812410831,0.004583832807838917
1772461201853163300,1.021163330078125,-0.008502141572535038,0.009068063460290432,0.004849616438150406
1772461201863212300,1.03121240234375,-0.008206264115869999,0.008534632623195648,0.005049087107181549
1772461201873260300,1.04126025390625,-0.008162322454154491,0.008319981396198273,0.002138784620910883
1772461201883308300,1.051308349609375,-0.007948470301926136,0.00830000825226307,0.002481533447280526
1772461201893357300,1.061357421875,-0.005117530468851328,0.00868989434093237,0.0028072381392121315
1772461201903405300,1.0714052734375,-0.008098140358924866,0.008670187555253506,0.001443166984245181
1772461201913454300,1.081454345703125,-0.007786017842590809,0.008472846820950508,0.0031944618094712496
1772461201923502300,1.09150244140625,-0.007510913070291281,0.007643272168934345,0.0029174929950386286
1772461201933550300,1.10155029296875,-0.004009655211120844,0.007456318475306034,0.00014434332842938602
1772461201943599400,1.111599365234375,-0.0076240976341068745,0.008779376745223999,0.004207528196275234
1772461201953647400,1.1216474609375,-0.00566960358992219,0.012201006524264812,0.00443922309204936
1772461201963695400,1.1316953125,-0.007349791936576366,0.009519202634692192,0.0017896442441269755
1772461201973744400,1.141744384765625,-0.00971734244376421,0.007258179131895304,0.006564425770193338
1772461201983792400,1.15179248046875,-0.009129848331212997,0.007881891913712025,0.0005962817813269794
1772461201993841400,1.16184130859375,-0.008993495255708694,0.007617173250764608,0.0038978024385869503
1772461202003889400,1.171889404296875,-0.008383630774915218,0.008760468102991581,0.005337507463991642
1772461202013937200,1.181937255859375,-0.008540225215256214,0.008190551772713661,0.0036610474344342947
1772461202023986400,1.191986328125,-0.007122890558093786,0.009881126694381237,0.00096086849225685
1772461202034034200,1.2020341796875,-0.008131962269544601,0.005988384131342173,0.0036943370942026377
1772461202044082400,1.21208251953125,-0.009163404814898968,0.008882706984877586,0.004259459674358368
1772461202054131200,1.222131103515625,-0.009557552635669708,0.008729309774935246,0.0034080471377819777
1772461202064179500,1.232179443359375,-0.010176471434533596,0.008294148370623589,0.003468767274171114
1772461202074227500,1.2422275390625,-0.008629441261291504,0.006388657260686159,0.0015837819082662463
1772461202084276500,1.2522763671875,-0.008107993751764297,0.008616391569375992,0.0018186726374551654
1772461202094324200,1.26232421875,-0.007524495478719473,0.007676295470446348,0.0003046656202059239
1772461202104373500,1.27237353515625,-0.007504255045205355,0.006361492909491062,0.0021228056866675615
1772461202114421200,1.282421142578125,-0.008348743431270123,0.005017395596951246,-0.0023646207991987467
1772461202124469200,1.29246923828125,-0.009984989650547504,0.008111190050840378,0.0027747475542128086
1772461202134518300,1.302518310546875,-0.0073167686350643635,0.00743128452450037,0.005822202656418085
1772461202144566300,1.312566162109375,-0.00842863880097866,0.009061405435204506,0.004572381265461445
1772461202154614500,1.322614501953125,-0.006892526987940073,0.005511678289622068,0.0031675638165324926
1772461202164663600,1.33266357421875,-0.005252286326140165,0.007383880205452442,0.0017334514996036887
1772461202174711800,1.3427119140625,-0.008700813166797161,0.009577792137861252,0.005114867351949215
1772461202184760600,1.352760498046875,-0.008694421499967575,0.008713330142199993,0.0046852994710206985
1772461202194808600,1.36280859375,-0.007620369084179401,0.007951400242745876,0.0022943131625652313
1772461202204856600,1.372856689453125,-0.008613727986812592,0.00854688324034214,0.002424009144306183
1772461202214905600,1.382905517578125,-0.00956634059548378,0.007528756279498339,0.0035513252951204777
1772461202224953600,1.39295361328125,-0.005705556366592646,0.008400674909353256,0.002935868687927723
1772461202235001600,1.403001708984375,-0.010025735944509506,0.00803262647241354,0.0023784691002219915
1772461202245050600,1.413050537109375,-0.008185491897165775,0.005334045272320509,0.003001915058121085
1772461202255098600,1.4230986328125,-0.010666492395102978,0.007938616909086704,0.0033505228348076344
1772461202265147600,1.433147705078125,-0.006972155533730984,0.006963899824768305,0.001297225710004568
1772461202275195600,1.443195556640625,-0.009459814056754112,0.008759669028222561,0.002304699504747987
1772461202285243400,1.453243408203125,-0.009983657859265804,0.007796936668455601,0.0022154836915433407
1772461202295292700,1.463292724609375,-0.005103948060423136,0.004818723537027836,0.0005797701887786388
1772461202305340400,1.47334033203125,-0.008976451121270657,0.007213970646262169,0.002275937469676137
1772461202315388700,1.483388671875,-0.008244081400334835,0.005622465629130602,0.002115348819643259
1772461202325437400,1.4934375,-0.009403355419635773,0.007151386234909296,0.0021734058391302824
1772461202335485700,1.503485595703125,-0.006134857889264822,0.005222725216299295,0.00024234765442088246
1772461202345534500,1.513534423828125,-0.00436172541230917,0.007369232829660177,0.00040293627534992993
1772461202355582700,1.523582763671875,-0.006207029335200787,0.00589623861014843,0.00008175904804375023
1772461202365630700,1.533630615234375,-0.009033176116645336,0.009837716817855835,-0.00003462109452812001
1772461202375679500,1.543679443359375,-0.007536213379353285,0.007823036052286625,0.0018136126454919577
1772461202385727700,1.553727783203125,-0.011212972924113274,0.009307214990258217,0.002472478663548827
1772461202395775500,1.563775390625,-0.006427805405110121,0.009488842450082302,0.0032109732273966074
1772461202405824800,1.57382470703125,-0.009439041838049889,0.008374043740332127,0.0025132251903414726
1772461202415872500,1.58387255859375,-0.008462460711598396,0.007988151162862778,0.002936135046184063
1772461202425920500,1.59392041015625,-0.00890747457742691,0.006368417292833328,0.004381432663649321
1772461202435969500,1.603969482421875,-0.007631554268300533,0.00785339530557394,0.0031103058718144894
1772461202446017500,1.614017578125,-0.009494967758655548,0.005872802808880806,0.002098038326948881
1772461202456066600,1.624066650390625,-0.008760468102991581,0.006946056615561247,0.003692472819238901
1772461202466114600,1.634114501953125,-0.007198524195700884,0.006917294580489397,0.003296993440017104
1772461202476162600,1.64416259765625,-0.00896633043885231,0.006670685950666666,0.0024381240364164114
1772461202486211600,1.654211669921875,-0.01002200786024332,0.00606428412720561,-0.0007627293234691024
1772461202496259600,1.664259521484375,-0.007151119876652956,0.007303719408810139,0.0016053534345701337
1772461202506308600,1.67430859375,-0.010102435015141964,0.008726646192371845,-0.00011930961773032323
1772461202516356600,1.684356689453125,-0.010001501068472862,0.00694925244897604,0.0013132047606632113
1772461202526404600,1.694404541015625,-0.008536229841411114,0.00618093041703105,0.002299639629200101
1772461202536453400,1.704453369140625,-0.008393485099077225,0.00839614775031805,0.001541171339340508
1772461202546501600,1.714501708984375,-0.009814014658331871,0.008580705150961876,0.004252003040164709
1772461202556549600,1.724549560546875,-0.008925584144890308,0.006937534548342228,0.0035459990613162518
1772461202566598700,1.7345986328125,-0.00980469398200512,0.006058158818632364,0.004799282643944025
1772461202576646700,1.744646728515625,-0.007948470301926136,0.008084557950496674,0.002805373864248395
1772461202586695700,1.75469580078125,-0.008286692202091217,0.007358580362051725,-0.0005107942852191627
1772461202596743700,1.76474365234375,-0.009867544285953045,0.007874168455600739,0.001910019083879888
1772461202606791400,1.77479150390625,-0.007771370466798544,0.00637960247695446,0.0028330706991255283
1772461202616840700,1.7848408203125,-0.008831840939819813,0.008253402076661587,0.00006604639202123508
1772461202626888400,1.794888427734375,-0.00881106872111559,0.00887791346758604,-0.0013672668719664216
1772461202636936700,1.804936767578125,-0.007803861051797867,0.007901598699390888,0.002183792181313038
1772461202646985500,1.8149853515625,-0.006205431651324034,0.006841660942882299,0.002142246812582016
1772461202657033700,1.82503369140625,-0.008770854212343693,0.008703210391104221,-0.000009054747351910919
1772461202667082500,1.83508251953125,-0.007201986387372017,0.008992429822683334,0.0012607404496520758
1772461202677130800,1.845130859375,-0.008807606063783169,0.006079996936023235,0.002624811604619026
1772461202687178500,1.855178466796875,-0.008852614089846611,0.007954595610499382,0.0033486587926745415
1772461202697227800,1.865227783203125,-0.008710933849215508,0.008244880475103855,0.0017241304740309715
1772461202707275500,1.875275634765625,-0.009036904200911522,0.008355401456356049,0.0033073797821998596
1772461202717324500,1.885324462890625,-0.008974053896963596,0.005025651305913925,0.0016410398529842496
1772461202727372500,1.89537255859375,-0.009433449245989323,0.008718656376004219,0.0029971215408295393
1772461202737420500,1.905420654296875,-0.007419033907353878,0.0064373929053545,0.0015342470724135637
1772461202747469600,1.915469482421875,-0.008225971832871437,0.00726457079872489,0.0016418388113379478
1772461202757517600,1.925517578125,-0.008146077394485474,0.007954329252243042,0.0009954896522685885
1772461202767565600,1.935565673828125,-0.010153301991522312,0.005855492316186428,0.0016884441720321774
1772461202777614600,1.945614501953125,-0.008304801769554615,0.007198257837444544,0.005066663958132267
1772461202787662600,1.95566259765625,-0.009708020836114883,0.008316786028444767,0.0009198558400385082
1772461202797711600,1.965711669921875,-0.008579906076192856,0.0067569720558822155,0.0016626114957034588
1772461202807759600,1.975759521484375,-0.008576709777116776,0.006069876719266176,-0.0005046690348535776
1772461202817807600,1.9858076171875,-0.007723699789494276,0.005251753609627485,-0.00037630466977134347
1772461202827856600,1.995856689453125,-0.006412359420210123,0.007833422161638737,0.0006045375484973192
1772461202837904600,2.005904541015625,-0.007084008306264877,0.007548197638243437,-0.0004519384237937629
1772461202847952600,2.01595263671875,-0.008335161954164505,0.005854693241417408,0.005494900047779083
1772461202858001700,2.026001708984375,-0.0070491209626197815,0.00507039250805974,0.0009494169498793781
1772461202868049700,2.036049560546875,-0.008686432614922523,0.008728244341909885,0.002784867538139224
1772461202878098400,2.046098388671875,-0.006131662055850029,0.0062826634384691715,0.0029236183036118746
1772461202888146700,2.056146728515625,-0.007465373259037733,0.008773784153163433,0.00006524744821945205
1772461202898194400,2.0661943359375,-0.008645686320960522,0.006795055698603392,0.001044491771608591
1772461202908243700,2.07624365234375,-0.008672317489981651,0.008766859769821167,0.0013723268639296293
1772461202918291500,2.08629150390625,-0.008790561929345131,0.006238454952836037,0.00028309403569437563
1772461202928340700,2.0963408203125,-0.007666175253689289,0.00993146002292633,-0.0003499393642414361
1772461202938388500,2.106388427734375,-0.008162322454154491,0.008207595907151699,0.0010183927370235324
1772461202948436500,2.1164365234375,-0.00875194650143385,0.007513043470680714,0.0011267834343016148
1772461202958485500,2.126485595703125,-0.008084557950496674,0.005915945861488581,0.006588927004486322
1772461202968533500,2.136533447265625,-0.007616107817739248,0.006923153530806303,0.0031374699901789427
1772461202978582500,2.14658251953125,-0.007713313214480877,0.007276288699358702,0.0027244137600064278
1772461202988630500,2.156630615234375,-0.00788402184844017,0.007552192080765963,0.003299656556919217
1772461202998678800,2.1666787109375,-0.00911466870456934,0.009199623949825764,0.0004261057765688747
1772461203008727600,2.1767275390625,-0.00845713447779417,0.00538437906652689,0.003727360162883997
1772461203018775800,2.18677587890625,-0.008491489104926586,0.006999852601438761,0.0018540926976129413
1772461203028823600,2.196823486328125,-0.009825732558965683,0.007739944849163294,0.0020064255222678185
1772461203038872800,2.206872802734375,-0.008218514733016491,0.008839298039674759,0.0024282701779156923
1772461203048920600,2.216920654296875,-0.009280317462980747,0.006999586243182421,0.004352936986833811
1772461203058969600,2.226969482421875,-0.008405735716223717,0.008037952706217766,0.0014293185668066144
1772461203069017600,2.237017578125,-0.007135673891752958,0.008237956091761589,-0.000054861116950633004
1772461203079065600,2.247065673828125,-0.007467503659427166,0.00768748065456748,0.004805940669029951
1772461203089114600,2.257114501953125,-0.008854477666318417,0.008655273355543613,0.004370513837784529
1772461203099162600,2.26716259765625,-0.007180680986493826,0.00765898497775197,0.005653358530253172
1772461203109211600,2.277211669921875,-0.007520766928792,0.00950641930103302,0.004496481269598007
1772461203119259600,2.287259765625,-0.006314621306955814,0.008291485719382763,0.0030988543294370174
1772461203129307400,2.297307373046875,-0.008821188472211361,0.008130630478262901,0.0026043052785098553
1772461203139356700,2.307356689453125,-0.008732238784432411,0.007480819243937731,0.0008609999786131084
1772461203149404400,2.317404296875,-0.00839614775031805,0.00726403808221221,0.0038751657120883465
1772461203159452700,2.32745263671875,-0.008527974598109722,0.008599613793194294,0.0035542547702789307
1772461203169502000,2.337501953125,-0.007315969560295343,0.0068214209750294685,0.003230147995054722
1772461203179550000,2.347550048828125,-0.0068331388756632805,0.007424626965075731,0.0031936627347022295
1772461203189599000,2.357598876953125,-0.01019857544451952,0.008503739722073078,0.0029606360476464033
1772461203199647000,2.36764697265625,-0.007495732977986336,0.00848696194589138,-0.0011353056179359555
1772461203209695000,2.377695068359375,-0.00823955424129963,0.008203068748116493,0.0012977584265172482
1772461203219744000,2.387743896484375,-0.005041630007326603,0.006082660052925348,0.0017310547409579158
1772461203229792000,2.3977919921875,-0.009861951693892479,0.0075849490240216255,0.002921221312135458
1772461203239841000,2.407841064453125,-0.007919441908597946,0.005850964691489935,-0.00015632755821570754
1772461203249889000,2.417888916015625,-0.008371380157768726,0.008136223070323467,0.0032029838766902685
1772461203259937000,2.42793701171875,-0.007424892857670784,0.0070802802219986916,0.0011701929615810513
1772461203269985800,2.43798583984375,-0.006417685654014349,0.010379936546087265,-0.0010924286907538772
1772461203280033800,2.44803369140625,-0.008261924609541893,0.006776147056370974,0.0019238675013184547
1772461203290082800,2.458082763671875,-0.00495161535218358,0.007107444107532501,0.0032842103391885757
1772461203300130800,2.468130859375,-0.00646695401519537,0.007675230037420988,0.0011909656459465623
1772461203310179000,2.478178955078125,-0.0070861391723155975,0.007200921420007944,0.00021784658019896597
1772461203320227800,2.488227783203125,-0.00606534956023097,0.008570585399866104,0.0005962817813269794
1772461203330276000,2.498276123046875,-0.007017962168902159,0.008903480134904385,-0.00040666470886208117
1772461203340324900,2.508324951171875,-0.006880542729049921,0.006137254647910595,0.0018751317402347922
1772461203350373000,2.518373046875,-0.009908556938171387,0.006268814671784639,0.001249821507371962
1772461203360420900,2.5284208984375,-0.008764729835093021,0.007248325273394585,0.0011667308863252401
1772461203370470100,2.53847021484375,-0.008145011961460114,0.006433132104575634,0.0025784724857658148
1772461203380518000,2.548517822265625,-0.008132494986057281,0.01031602080911398,0.0024487765040248632
1772461203390567000,2.55856689453125,-0.008598282001912594,0.00660677021369338,0.005426723510026932
1772461203400615000,2.568614990234375,-0.009494701400399208,0.007923436351120472,0.003870638320222497
1772461203410663000,2.578662841796875,-0.007125820033252239,0.007869374938309193,0.004831773228943348
1772461203420712000,2.5887119140625,-0.00817963294684887,0.006422212813049555,0.001591771375387907
1772461203430760000,2.598760009765625,-0.008142614737153053,0.008094944059848785,0.0029824741650372744
1772461203440808000,2.608807861328125,-0.009984723292291164,0.006792126223444939,-0.00025592977181077003
1772461203450857000,2.61885693359375,-0.011089934967458248,0.009119462221860886,0.002510561840608716
1772461203460905000,2.628905029296875,-0.007382282521575689,0.005662412848323584,0.00036458674003370106
1772461203470954000,2.6389541015625,-0.007961253635585308,0.009807356633245945,0.0021105550695210695
1772461203481001700,2.649001708984375,-0.008680573664605618,0.00791251752525568,0.0011430287268012762
1772461203491050000,2.659050048828125,-0.007798002101480961,0.0068267472088336945,0.001716939965263009
1772461203501098800,2.6690986328125,-0.009074987843632698,0.006305300164967775,0.0035486621782183647
1772461203511147000,2.67914697265625,-0.007673099637031555,0.005395031534135342,0.0028567728586494923
1772461203521195800,2.68919580078125,-0.00689199473708868,0.010544253513216972,0.002469016704708338
1772461203531244000,2.699244140625,-0.008537827990949154,0.00629065278917551,0.0037774275988340378
1772461203541292000,2.7092919921875,-0.006807305850088596,0.010061156004667282,0.003216299694031477
1772461203551340800,2.7193408203125,-0.006848052144050598,0.006031793542206287,0.0013347762869670987
1772461203561389000,2.72938916015625,-0.0075788237154483795,0.009911220520734787,0.002841326640918851
1772461203571437800,2.739437744140625,-0.009415872395038605,0.007639543619006872,0.003364904085174203
1772461203581486000,2.749486083984375,-0.01005290076136589,0.009673399850726128,0.0018242653459310532
1772461203591533800,2.759533935546875,-0.005087969359010458,0.010130930691957474,0.0031212246976792812
1772461203601583000,2.7695830078125,-0.008802279829978943,0.007623298559337854,-0.00011211907985853031
1772461203611630800,2.779630859375,-0.010034524835646152,0.007097324356436729,-0.0003683151735458523
1772461203621680000,2.78968017578125,-0.007553790230304003,0.010069678537547588,0.0012455604737624526
1772461203631727900,2.799727783203125,-0.00890987180173397,0.008821188472211361,0.0016924388473853469
1772461203641775900,2.80977587890625,-0.009797503240406513,0.008655273355543613,0.0018152105621993542
1772461203651825000,2.819824951171875,-0.008264321833848953,0.0073138391599059105,0.0006226470577530563
1772461203661873000,2.829872802734375,-0.009110141545534134,0.007962052710354328,-0.00014407701382879168
1772461203671922000,2.839921875,-0.008197742514312267,0.004885036498308182,-0.0000679106087773107
1772461203681970000,2.849969970703125,-0.006586263421922922,0.00999244675040245,0.0025334651581943035
1772461203692018000,2.860017822265625,-0.009602293372154236,0.006478139199316502,0.0015153386630117893
1772461203702067000,2.87006689453125,-0.008569519966840744,0.0064893243834376335,0.0036788906436413527
1772461203712115000,2.880114990234375,-0.007696535438299179,0.009941314347088337,0.003652791725471616
1772461203722164000,2.8901640625,-0.007719704881310463,0.006936469115316868,0.0031380027066916227
1772461203732211700,2.900211669921875,-0.00902731716632843,0.007510113995522261,0.004028830211609602
1772461203742260000,2.910260009765625,-0.006524744443595409,0.010445983149111271,0.0020532971248030663
1772461203752308700,2.920308837890625,-0.008716792799532413,0.006459497381001711,0.00011132013605674729
1772461203762357000,2.93035693359375,-0.005634183529764414,0.006975884083658457,0.0022237394005060196
1772461203772405800,2.94040576171875,-0.007165235001593828,0.00697881355881691,-0.0020567593164741993
1772461203782454000,2.9504541015625,-0.009106412529945374,0.00675351032987237,0.002341717481613159
1772461203792502000,2.960501953125,-0.00866379588842392,0.008927981369197369,0.003775563556700945
1772461203802551000,2.970551025390625,-0.00646668765693903,0.00869362335652113,0.00024288028362207115
1772461203812599000,2.98059912109375,-0.007676561828702688,0.008401740342378616,0.0033862092532217503
1772461203822648000,2.99064794921875,-0.008258729241788387,0.006117014680057764,0.006205698009580374
1772461203832696000,3.000696044921875,-0.007127950433641672,0.007297327741980553,0.0019475696608424187
1772461203842743800,3.010743896484375,-0.005966812372207642,0.008014783263206482,0.004232029430568218
1772461203852793000,3.02079296875,-0.007078948430716991,0.0079146483913064,0.0019289276096969843
1772461203862840800,3.0308408203125,-0.008742092177271843,0.006194512825459242,0.0032764871139079332
1772461203872890000,3.04089013671875,-0.008378570899367332,0.0073018549010157585,0.002987001556903124
1772461203882937900,3.050937744140625,-0.007360444404184818,0.008590292185544968,0.0033806166611611843
1772461203892985900,3.06098583984375,-0.007390005514025688,0.004240285139530897,-0.00006578007742064074
1772461203903035000,3.071034912109375,-0.009365804493427277,0.007600928191095591,0.0028642297256737947
1772461203913083000,3.081082763671875,-0.006623281631618738,0.0070579093880951405,0.0018498316640034318
1772461203923132000,3.0911318359375,-0.00962892547249794,0.008832107298076153,0.0023574302904307842
1772461203933180000,3.101179931640625,-0.006215285509824753,0.007540740538388491,0.005678392015397549
1772461203943228000,3.111227783203125,-0.007526892237365246,0.0049500176683068275,0.0022828616201877594
1772461203953277000,3.12127685546875,-0.008929844945669174,0.007737548090517521,0.0009808422764763236
1772461203963325000,3.131324951171875,-0.0076158419251441956,0.008792692795395851,0.002067412016913295
1772461203973374000,3.1413740234375,-0.008343683555722237,0.009217998944222927,0.005478388629853725
1772461203983422000,3.151421875,-0.00749093946069479,0.0060933125205338,0.0018847191240638494
1772461203993470000,3.161469970703125,-0.008129831403493881,0.008830242790281773,0.005166266113519669
1772461204003518700,3.171518798828125,-0.008335161954164505,0.00765871861949563,0.0020421119406819344
1772461204013567000,3.18156689453125,-0.0075426045805215836,0.005985986907035112,0.0009534116834402084
1772461204023615700,3.19161572265625,-0.009335977025330067,0.008231830783188343,0.0024863271974027157
1772461204033664000,3.2016640625,-0.01005050353705883,0.005931925028562546,0.002798982197418809
1772461204043712800,3.211712646484375,-0.007964183576405048,0.007448595017194748,0.0006868292111903429
1772461204053761000,3.221760986328125,-0.007588943932205439,0.008812665939331055,0.001958222361281514
1772461204063809000,3.23180908203125,-0.00817963294684887,0.006993993651121855,0.004749747924506664
1772461204073858000,3.241858154296875,-0.007143130525946617,0.005822202656418085,0.002385659608989954
1772461204083906000,3.251906005859375,-0.008212123066186905,0.008070177398622036,0.0020330571569502354
1772461204093953800,3.261953857421875,-0.007069360930472612,0.006016879808157682,0.003549993736669421
1772461204104003000,3.272003173828125,-0.0064805359579622746,0.007816111668944359,0.0025486452504992485
1772461204114050800,3.28205078125,-0.007918642833828926,0.006457899231463671,0.0052208611741662025
1772461204124100000,3.29210009765625,-0.007829693146049976,0.009378854185342789,0.0023877902422100306
1772461204134147800,3.30214794921875,-0.0059662796556949615,0.010546384379267693,0.0057620154693722725
1772461204144196900,3.31219677734375,-0.0059572248719632626,0.00501180300489068,0.0011459582019597292
1772461204154244900,3.322244873046875,-0.009080580435693264,0.00866193138062954,0.004989165812730789
1772461204164295700,3.332295654296875,-0.00752129964530468,0.0075753615237772465,0.005527923349291086
1772461204174344700,3.3423447265625,-0.007397196255624294,0.008647816255688667,0.0017385114915668964
1772461204184392700,3.352392822265625,-0.01122442539781332,0.006986802909523249,0.002329200739040971
1772461204194441700,3.362441650390625,-0.009046225808560848,0.008812932297587395,0.000854075769893825
1772461204204489700,3.37248974609375,-0.007645402569323778,0.007414506748318672,0.0013880395563319325
1772461204214537700,3.382537841796875,-0.012023639865219593,0.007705590222030878,0.0049010151997208595
1772461204224586800,3.392586669921875,-0.009779926389455795,0.008618255145847797,0.000996554852463305
1772461204234634800,3.402634765625,-0.0076065207831561565,0.009982326999306679,0.0008737831376492977
1772461204244683800,3.412683837890625,-0.00788402184844017,0.00881160143762827,0.0013781858142465353
1772461204254731800,3.422731689453125,-0.010460630059242249,0.006304501090198755,0.002778742229565978
1772461204264779500,3.432779541015625,-0.00863290298730135,0.009157545864582062,0.002888730727136135
1772461204274828800,3.442828857421875,-0.0076214345172047615,0.004811799619346857,0.0031443943735212088
1772461204284876500,3.45287646484375,-0.009088569320738316,0.007505586836487055,0.0036690370179712772
1772461204294925600,3.462925537109375,-0.007199855986982584,0.007785485126078129,0.002092445734888315
1772461204304973600,3.4729736328125,-0.00839508231729269,0.006879211403429508,0.0017510283505544066
1772461204315021800,3.483021728515625,-0.007918909192085266,0.00637933611869812,0.0025031049735844135
1772461204325070600,3.493070556640625,-0.008668056689202785,0.004030960611999035,0.0022738068364560604
1772461204335118800,3.503118896484375,-0.007667773403227329,0.009891779161989689,0.0006029396899975836
1772461204345167600,3.513167724609375,-0.008341020904481411,0.008668855763971806,0.0012575446162372828
1772461204355216000,3.5232158203125,-0.008123706094920635,0.0067814732901751995,0.003923102747648954
1772461204365263600,3.533263671875,-0.010009224526584148,0.008521849289536476,0.0009230516152456403
1772461204375312600,3.543312744140625,-0.005829659756273031,0.008852614089846611,0.0033047166652977467
1772461204385360600,3.553360595703125,-0.008809736929833889,0.006969226058572531,0.0024825986474752426
1772461204395409700,3.56340966796875,-0.007989216595888138,0.00740119069814682,0.0032714270055294037
1772461204405457700,3.573457763671875,-0.00990163255482912,0.009934656322002411,0.004575310740619898
1772461204415506700,3.583506591796875,-0.008651012554764748,0.006679208017885685,0.004275971557945013
1772461204425554700,3.5935546875,-0.0060299295000731945,0.0102592958137393,0.0043984767980873585
1772461204435602700,3.603602783203125,-0.00612154183909297,0.00621182331815362,0.0027169568929821253
1772461204445651700,3.613651611328125,-0.010070477612316608,0.007870174013078213,0.0016753945965319872
1772461204455699700,3.62369970703125,-0.009981261566281319,0.008362325839698315,0.0038029940333217382
1772461204465748700,3.633748779296875,-0.008480037562549114,0.0059995693154633045,0.002167813014239073
1772461204475796700,3.643796630859375,-0.009514409117400646,0.006730074528604746,0.004865062423050404
1772461204485844700,3.6538447265625,-0.008736765943467617,0.007567372173070908,0.0016559535870328546
1772461204495893800,3.663893798828125,-0.0072778863832354546,0.00830906257033348,0.002365685999393463
1772461204505941500,3.67394140625,-0.007984955795109272,0.00788561999797821,0.0008029430755414069
1772461204515990800,3.68399072265625,-0.008727711625397205,0.0073473951779305935,0.0032618397381156683
1772461204526038500,3.69403857421875,-0.008095210418105125,0.006417952012270689,0.0043742419220507145
1772461204536086800,3.704086669921875,-0.009388175792992115,0.008821721188724041,0.0024671524297446012
1772461204546135600,3.714135498046875,-0.008591890335083008,0.006018477492034435,0.0014737932942807674
1772461204556183600,3.72418359375,-0.007266168482601643,0.010042780078947544,0.0022021678742021322
1772461204566232600,3.734232666015625,-0.008441687561571598,0.007488276343792677,0.003835218260064721
1772461204576280600,3.744280517578125,-0.006747917737811804,0.00552392890676856,0.00558251840993762
1772461204586329600,3.75432958984375,-0.010339190252125263,0.006637929007411003,0.003114833263680339
1772461204596377600,3.764377685546875,-0.010131463408470154,0.0051625375635921955,0.003500991500914097
1772461204606425900,3.77442578125,-0.010625479742884636,0.008294681087136269,0.0009137305896729231
1772461204616474600,3.784474609375,-0.009601760655641556,0.008313323371112347,0.002359560690820217
1772461204626523000,3.79452294921875,-0.009189236909151077,0.00621155695989728,0.003052515210583806
1772461204636571600,3.804571533203125,-0.00962812639772892,0.006400907412171364,0.0016796556301414967
1772461204646620000,3.814619873046875,-0.010921357199549675,0.006511695217341185,0.003875698195770383
1772461204656667600,3.824667724609375,-0.009913350455462933,0.007555654272437096,0.0010908307740464807
1772461204666716700,3.834716552734375,-0.007728493306785822,0.0065167550928890705,0.0008436894277110696
1772461204676764700,3.8447646484375,-0.009588711895048618,0.008642756380140781,0.002880208659917116
1772461204686813700,3.854813720703125,-0.006010221783071756,0.006779342889785767,0.0015566176734864712
1772461204696861700,3.86486181640625,-0.008943960070610046,0.009937052614986897,0.0005957491230219603
1772461204706910700,3.87491064453125,-0.00669412175193429,0.005038434639573097,0.003424558788537979
1772461204716958700,3.884958740234375,-0.009981527924537659,0.006688795518130064,0.0021028320770710707
1772461204727006700,3.8950068359375,-0.008126636035740376,0.006933273747563362,0.0005914880894124508
1772461204737055700,3.9050556640625,-0.009556487202644348,0.006986270658671856,0.00439048744738102
1772461204747103700,3.915103759765625,-0.00860360823571682,0.007918642833828926,0.0037204360123723745
1772461204757152800,3.92515283203125,-0.009889914654195309,0.005882656667381525,0.002831739140674472
1772461204767200800,3.93520068359375,-0.007511978503316641,0.00896952673792839,0.0024114924017339945
1772461204777248500,3.94524853515625,-0.007387875113636255,0.006494651082903147,0.002213619416579604
1772461204787297800,3.9552978515625,-0.006972954608500004,0.006587595213204622,0.003058107802644372
1772461204797345500,3.965345458984375,-0.008187622763216496,0.007670170161873102,0.001811482128687203
1772461204807394800,3.975394775390625,-0.009049154818058014,0.0072837453335523605,0.003439206164330244
1772461204817442600,3.985442626953125,-0.010555438697338104,0.007375091779977083,0.002037584548816085
1772461204827491800,3.995491943359375,-0.008327704854309559,0.004571848548948765,0.0029728866647928953
1772461204837539600,4.00553955078125,-0.007435279432684183,0.008143147453665733,0.002862365450710058
1772461204847587600,4.015587646484375,-0.007695204112678766,0.008694954216480255,0.0005728459218516946
1772461204857636600,4.02563671875,-0.008926383219659328,0.009013202041387558,0.001817607437260449
1772461204867684600,4.0356845703125,-0.0089391665533185,0.007075486239045858,0.0006199838826432824
1772461204877733600,4.045733642578125,-0.010117881931364536,0.005859486758708954,0.005654956214129925
1772461204887781600,4.05578173828125,-0.0065260762348771095,0.007939948700368404,0.0041276332922279835
1772461204897830000,4.065829833984375,-0.007684817537665367,0.008103732950985432,0.0023451796732842922
1772461204907878700,4.075878662109375,-0.009935721755027771,0.006732471287250519,0.0002716424351092428
1772461204917927000,4.085927001953125,-0.007925833575427532,0.008791627362370491,0.0019659455865621567
1772461204927975700,4.0959755859375,-0.009616408497095108,0.007272293791174889,0.0032447953708469868
1772461204938023700,4.106023681640625,-0.008857673965394497,0.005905293393880129,0.004727909807115793
1772461204948072700,4.11607275390625,-0.00711729796603322,0.008858473040163517,0.0015571502735838294
1772461204958120700,4.12612060546875,-0.008378304541110992,0.00791225116699934,0.000028762138754245825
1772461204968168700,4.136168701171875,-0.009249957278370857,0.006195577792823315,0.0028613002505153418
1772461204978217700,4.1462177734375,-0.00914476253092289,0.004957207944244146,0.0033188313245773315
1772461204988265700,4.156265625,-0.008837433531880379,0.007233145646750927,0.0022485069930553436
1772461204998314500,4.166314453125,-0.011157579720020294,0.007311708759516478,0.0012373046483844519
1772461205008362800,4.17636279296875,-0.00893836747854948,0.007611047942191362,0.005887716542929411
1772461205018410800,4.18641064453125,-0.008628109470009804,0.006823285017162561,0.003114566905423999
1772461205028459800,4.196459716796875,-0.010386594571173191,0.008139685727655888,0.0026162895374000072
1772461205038507800,4.2065078125,-0.009645170532166958,0.008008391596376896,0.004032558295875788
1772461205048556500,4.216556640625,-0.008343417197465897,0.01028672605752945,0.001588841900229454
1772461205058604800,4.226604736328125,-0.008565524592995644,0.0075426045805215836,0.0018961706664413214
1772461205068653600,4.236653564453125,-0.0059257997199893,0.006345513742417097,0.0011787151452153921
1772461205078701800,4.246701904296875,-0.009348494000732899,0.005911152344197035,-0.0000655137628200464
1772461205088749600,4.25674951171875,-0.007425159215927124,0.0068267472088336945,0.0008916263468563557
1772461205098798800,4.266798828125,-0.008636098355054855,0.005905027035623789,0.003156644757837057
1772461205108846600,4.2768466796875,-0.007951932959258556,0.007529821712523699,0.0008878979133442044
1772461205118895900,4.286895751953125,-0.010517089627683163,0.005524993874132633,-0.0007936219917610288
1772461205128943600,4.296943603515625,-0.006464024540036917,0.0059540290385484695,0.0020900487434118986
1772461205138993000,4.306992919921875,-0.008194812573492527,0.0054733287543058395,0.0028360001742839813
1772461205149040600,4.31704052734375,-0.006149505265057087,0.007384679280221462,0.00221947836689651
1772461205159088600,4.327088623046875,-0.006323676090687513,0.008042213506996632,0.0005954828229732811
1772461205169134800,4.337134765625,-0.011871839873492718,0.00788402184844017,0.00020932445477228612
1772461205179182800,4.347182861328125,-0.008578574284911156,0.006767624989151955,0.0029622339643538
1772461205189231900,4.35723193359375,-0.009049953892827034,0.008343417197465897,0.0006471481174230576
1772461205199279900,4.36727978515625,-0.008079764433205128,0.006729541812092066,0.0029646309558302164
1772461205209327600,4.37732763671875,-0.006984672509133816,0.007761782966554165,0.003552923211827874
1772461205219377000,4.387376953125,-0.010872354730963707,0.009517871774733067,0.004846686962991953
1772461205229424600,4.397424560546875,-0.009828396141529083,0.005872536450624466,-0.00025273399660363793
1772461205239474000,4.407473876953125,-0.005072256550192833,0.00800492987036705,0.002591255819424987
1772461205249521700,4.417521728515625,-0.007318366784602404,0.006180131807923317,0.0021944446489214897
1772461205259571000,4.427571044921875,-0.008251005783677101,0.006175604183226824,0.0025395904667675495
1772461205269618700,4.43761865234375,-0.008103466592729092,0.009008142165839672,0.0031403994653373957
1772461205279667000,4.4476669921875,-0.008665925823152065,0.00962493009865284,0.001139033935032785
1772461205289715700,4.4577158203125,-0.009838515892624855,0.007439540233463049,0.0059748017229139805
1772461205299764000,4.467763916015625,-0.0078046596609056,0.006905043963342905,0.0022445120848715305
1772461205309812700,4.477812744140625,-0.008531702682375908,0.007248591631650925,0.0023728765081614256
1772461205319860700,4.48786083984375,-0.010424943640828133,0.007228085305541754,0.0030900659039616585
1772461205329909800,4.49790966796875,-0.0096861831843853,0.0073103769682347775,-0.00014993596414569765
1772461205339957800,4.507957763671875,-0.005948170088231564,0.006856308318674564,0.0019523634109646082
1772461205350005800,4.518005859375,-0.00971494521945715,0.0065314024686813354,0.002579271560534835
1772461205360054800,4.5280546875,-0.00851412583142519,0.006854443810880184,0.002126534003764391
1772461205370102800,4.538102783203125,-0.007099188398569822,0.0091732582077384,0.002031991956755519
1772461205380151800,4.54815185546875,-0.008645419962704182,0.008206796832382679,0.002653307281434536
1772461205390199800,4.55819970703125,-0.008840097114443779,0.00737242866307497,0.0021576930303126574
1772461205400247800,4.568247802734375,-0.009066198952496052,0.008826514706015587,-0.0005161206354387105
1772461205410296800,4.578296875,-0.008625978603959084,0.007207845337688923,0.0028389296494424343
1772461205420344800,4.5883447265625,-0.0076209018006920815,0.007784952409565449,0.002624545246362686
1772461205430393600,4.5983935546875,-0.008975119329988956,0.007976433262228966,0.0037052559200674295
1772461205440441900,4.60844189453125,-0.008821188472211361,0.00663473317399621,0.0030341395176947117
1772461205450490600,4.61849072265625,-0.009426258504390717,0.007141000125557184,0.0020487697329372168
1772461205460539000,4.628538818359375,-0.006995059084147215,0.005387308541685343,-0.00012836436508223414
1772461205470587000,4.6385869140625,-0.009635317139327526,0.008679774589836597,0.0023643544409424067
1772461205480636000,4.648635986328125,-0.010182596743106842,0.007669637445360422,0.0012343751732259989
1772461205490684000,4.658683837890625,-0.009180981665849686,0.008812399581074715,0.002951315138489008
1772461205500733000,4.66873291015625,-0.0065074339509010315,0.00660410663112998,0.0010466222884133458
1772461205510781000,4.678781005859375,-0.007571100722998381,0.008706938475370407,-0.00025060345069505274
1772461205520830000,4.688829833984375,-0.00857085082679987,0.007530354429036379,-0.0005837649223394692
1772461205530878000,4.6988779296875,-0.008430768735706806,0.006828611250966787,0.0026618295814841986
1772461205540925700,4.70892578125,-0.0070336745120584965,0.00996048841625452,0.0030240193009376526
1772461205550974700,4.718974609375,-0.007060039788484573,0.006816893350332975,0.0035204326268285513
1772461205561022700,4.729022705078125,-0.009794041514396667,0.00692022405564785,0.002269545802846551
1772461205571071700,4.73907177734375,-0.008036620914936066,0.0060147494077682495,0.0020327907986938953
1772461205581119700,4.74911962890625,-0.006322077941149473,0.0071157002821564674,-0.00034727618913166225
1772461205591168800,4.759168701171875,-0.006430202629417181,0.007710117381066084,0.000853809411637485
1772461205601216800,4.769216796875,-0.009836917743086815,0.008086422458291054,0.0020061591640114784
1772461205611264800,4.7792646484375,-0.011507518589496613,0.006695186719298363,0.002560895634815097
1772461205621313800,4.789313720703125,-0.00875274557620287,0.006939664948731661,0.001847967505455017
1772461205631361800,4.79936181640625,-0.00686269998550415,0.007923170924186707,0.0033153691329061985
1772461205641410800,4.809410888671875,-0.006001166999340057,0.005856557283550501,0.0017496967921033502
1772461205651458800,4.819458740234375,-0.0062821307219564915,0.006924218963831663,0.001398159540258348
1772461205661507800,4.8295078125,-0.007590008899569511,0.00708693778142333,0.0022130869328975677
1772461205671555800,4.839555908203125,-0.0055817193351686,0.005916478578001261,0.004379302263259888
1772461205681603800,4.849603759765625,-0.008158859796822071,0.0067716194316744804,0.0012871057260781527
1772461205691652900,4.85965283203125,-0.007259777281433344,0.008084291592240334,0.001955292886123061
1772461205701700900,4.869700927734375,-0.00842783972620964,0.007071491796523333,0.003186738584190607
1772461205711750000,4.87975,-0.007254716940224171,0.008993761613965034,0.001748897833749652
1772461205721797600,4.889797607421875,-0.012715795077383518,0.007283213082700968,0.004240285139530897
1772461205731847000,4.899846923828125,-0.008376440964639187,0.007357514929026365,0.0025829998776316643
1772461205741894700,4.909894775390625,-0.011090201325714588,0.008363657630980015,0.001722532557323575
1772461205751943000,4.91994287109375,-0.00660650385543704,0.0065380604937672615,0.002232261700555682
1772461205761991700,4.92999169921875,-0.010062221437692642,0.00606321869418025,0.004824316129088402
1772461205772040000,4.9400400390625,-0.007201453670859337,0.00675324397161603,0.0007757788407616317
1772461205782088700,4.950088623046875,-0.010125338099896908,0.008013717830181122,0.0022623552940785885
1772461205792137000,4.960136962890625,-0.008511463180184364,0.0057010287418961525,0.0030868700705468655
1772461205802185700,4.970185791015625,-0.009815879166126251,0.009900301694869995,0.003709783311933279
1772461205812234000,4.98023388671875,-0.008081628940999508,0.005547896958887577,0.003608316881582141
1772461205822281700,4.99028173828125,-0.007676295470446348,0.0054509579204022884,0.0016538230702280998
1772461205832330800,5.000330810546875,-0.007399326656013727,0.008583634160459042,-0.0004972121678292751
1772461205842378800,5.010378662109375,-0.009345032274723053,0.006045109126716852,0.004956941585987806
1772461205852427800,5.020427734375,-0.008434231393039227,0.008056062273681164,0.00469462014734745
1772461205862475800,5.030475830078125,-0.00950748473405838,0.008328503929078579,0.004465055651962757
1772461205872524800,5.04052490234375,-0.008359395898878574,0.007814779877662659,0.0013962953817099333
1772461205882572800,5.05057275390625,-0.009244897402822971,0.007507184520363808,0.003945739474147558
1772461205892620800,5.060620849609375,-0.009875800460577011,0.00759906368330121,0.003133208956569433
1772461205902669800,5.070669921875,-0.008616125211119652,0.008948487229645252,0.001716939965263009
1772461205912717800,5.0807177734375,-0.00782649777829647,0.004292749334126711,0.00011398329661460593
1772461205922766800,5.090766845703125,-0.00860227644443512,0.005849367007613182,0.0036280243657529354
1772461205932814800,5.10081494140625,-0.00818096473813057,0.004865328781306744,0.0036732980515807867
1772461205942863600,5.110863525390625,-0.009958358481526375,0.007880027405917645,0.0008623315370641649
1772461205952912000,5.120911865234375,-0.007314904592931271,0.008768724277615547,0.0011973571963608265
1772461205962960000,5.1309599609375,-0.009839581325650215,0.010039584711194038,0.0010418286547064781
1772461205973009000,5.1410087890625,-0.006608367897570133,0.007099987473338842,0.0027254789602011442
1772461205983057000,5.151056884765625,-0.007136738859117031,0.004585164599120617,0.0035720979794859886
1772461205993106000,5.16110595703125,-0.00854342058300972,0.0063063655979931355,0.004225105047225952
1772461206003154000,5.17115380859375,-0.008166050538420677,0.007731422781944275,0.003629355924203992
1772461206013203000,5.181202880859375,-0.004920722916722298,0.00640783179551363,0.0038067223504185677
1772461206023251000,5.1912509765625,-0.006887733470648527,0.007308779284358025,0.001868207473307848
1772461206033300000,5.201300048828125,-0.008253402076661587,0.0104739461094141,0.0035382758360356092
1772461206043347700,5.21134765625,-0.00703926756978035,0.007794273551553488,0.0032783513888716698
1772461206053395700,5.221395751953125,-0.007168963085860014,0.00768668157979846,0.0036072516813874245
1772461206063444700,5.23144482421875,-0.008992696180939674,0.00953891035169363,0.0027230822015553713
1772461206073492700,5.24149267578125,-0.008837699890136719,0.007760983891785145,0.0005550027708522975
1772461206083541800,5.251541748046875,-0.009492305107414722,0.006738862954080105,-0.00031878036679700017
1772461206093589800,5.26158984375,-0.007272560149431229,0.00863450113683939,0.00022184131375979632
1772461206103638800,5.271638671875,-0.006820089183747768,0.005868275184184313,0.0005105279851704836
1772461206113686800,5.281686767578125,-0.010090717114508152,0.004962534178048372,-0.000035952674807049334
1772461206123734800,5.29173486328125,-0.008636098355054855,0.00875141378492117,0.0006362291751429439
1772461206133783800,5.30178369140625,-0.007387875113636255,0.00914183259010315,0.00333161442540586
1772461206143831800,5.311831787109375,-0.00800120085477829,0.009548497386276722,0.0033281524665653706
1772461206153880800,5.321880859375,-0.008162056095898151,0.00669252360239625,0.001645300886593759
1772461206163928800,5.3319287109375,-0.008610266260802746,0.007469634059816599,0.003287405939772725
1772461206173976800,5.341976806640625,-0.007823302410542965,0.005646434146910906,0.004825381562113762
1772461206184025900,5.35202587890625,-0.007120760157704353,0.006080262828618288,0.0034935346338897943
1772461206194073900,5.362073974609375,-0.00703873485326767,0.009266468696296215,0.0031201594974845648
1772461206204123000,5.372122802734375,-0.009278719313442707,0.00809281412512064,0.0003123887872789055
1772461206214170600,5.382170654296875,-0.00999138131737709,0.00765871861949563,0.0035244273021817207
1772461206224220000,5.392219970703125,-0.006368949543684721,0.00860573910176754,0.00281948852352798
1772461206234267600,5.402267578125,-0.006995857693254948,0.007547931279987097,0.0012844426091760397
1772461206244316000,5.41231591796875,-0.008655006997287273,0.006819556467235088,0.0024517059791833162
1772461206254364700,5.42236474609375,-0.008246478624641895,0.006413158029317856,0.0009661948424763978
1772461206264413000,5.432412841796875,-0.009489375166594982,0.00848722830414772,0.003858387703076005
1772461206274461700,5.442461669921875,-0.00703926756978035,0.00794687308371067,0.003370763035491109
1772461206284510000,5.452510009765625,-0.009073656052350998,0.007715976797044277,0.0041151163168251514
1772461206294558700,5.462558837890625,-0.010467288084328175,0.009003348648548126,0.003088201628997922
1772461206304607000,5.47260693359375,-0.008104532025754452,0.006736465729773045,0.0011941614793613553
1772461206314654700,5.48265478515625,-0.008812133222818375,0.006825948134064674,0.0046386937610805035
1772461206324703700,5.492703857421875,-0.008212389424443245,0.008283495903015137,0.002974484581500292
1772461206334751700,5.502751708984375,-0.0064975805580616,0.0060110208578407764,0.0021140172611922026
1772461206344800800,5.51280078125,-0.007568437606096268,0.008507201448082924,0.00152306177187711
1772461206354848800,5.522848876953125,-0.007998271845281124,0.007051251363009214,0.0035380094777792692
1772461206364897800,5.532897705078125,-0.009865413419902325,0.006548979319632053,-0.0004117247008252889
1772461206374945800,5.54294580078125,-0.009101885370910168,0.007682420779019594,0.003337473375722766
1772461206384994800,5.552994873046875,-0.008231830783188343,0.006052832584828138,0.00011717908637365326
1772461206395042800,5.563042724609375,-0.009089901112020016,0.005585980135947466,0.0012234562309458852
1772461206405090800,5.5730908203125,-0.008942894637584686,0.006207562051713467,0.003655987558886409
1772461206415139800,5.583139892578125,-0.011796738021075726,0.00657587731257081,0.0012101404136046767
1772461206425187800,5.593187744140625,-0.007677360903471708,0.007449926808476448,0.0015385081060230732
1772461206435236600,5.603236572265625,-0.008133560419082642,0.006988401059061289,0.0023345269728451967
1772461206445284900,5.613284912109375,-0.007010238710790873,0.007194263394922018,0.0025478461757302284
1772461206455333600,5.623333740234375,-0.007127418182790279,0.00827737059444189,0.0007113303290680051
1772461206465382000,5.6333818359375,-0.0073687005788087845,0.007544202730059624,0.002797118155285716
1772461206475430000,5.643429931640625,-0.009635317139327526,0.008774583227932453,0.004475442226976156
1772461206485479000,5.65347900390625,-0.007721835747361183,0.00737269502133131,0.0022559636272490025
1772461206495527000,5.66352685546875,-0.010096309706568718,0.005948170088231564,0.0020277309231460094
1772461206505576000,5.673575927734375,-0.007840879261493683,0.008472846820950508,0.0018362496048212051
1772461206515623700,5.683623779296875,-0.007784153334796429,0.007951932959258556,0.0005187837523408234
1772461206525673000,5.6936728515625,-0.008647018112242222,0.007434213999658823,0.00040719733806326985
1772461206535720700,5.703720703125,-0.009061671793460846,0.005674663465470076,0.003037335118278861
1772461206545768700,5.713768798828125,-0.01010802760720253,0.007607585750520229,0.002776079112663865
1772461206555817700,5.723817626953125,-0.0073167686350643635,0.008104532025754452,0.002983273006975651
1772461206565865700,5.73386572265625,-0.008606537245213985,0.008684301748871803,0.002245843643322587
1772461206575914800,5.743914794921875,-0.009288307279348373,0.00869362335652113,0.003453587181866169
1772461206585962800,5.753962646484375,-0.008723982609808445,0.006012352649122477,0.0014327806420624256
1772461206596011800,5.76401171875,-0.007168430835008621,0.006573480553925037,0.0035686357878148556
1772461206606059800,5.774059814453125,-0.008561263792216778,0.006085855886340141,0.0016397082945331931
1772461206616108800,5.78410888671875,-0.007784153334796429,0.009589510038495064,0.0036610474344342947
1772461206626156800,5.79415673828125,-0.008743423968553543,0.0049675945192575455,0.002457564929500222
1772461206636204800,5.804204833984375,-0.007488809060305357,0.008138087578117847,0.0025363946333527565
1772461206646253800,5.81425390625,-0.006671485025435686,0.008839031681418419,0.0033776871860027313
1772461206656301800,5.8243017578125,-0.007727428339421749,0.004006459377706051,0.002276470186188817
1772461206666350800,5.834350830078125,-0.008408664725720882,0.007161772809922695,0.0007070692372508347
1772461206676398800,5.84439892578125,-0.007783886976540089,0.006023005116730928,0.0033278861083090305
1772461206686447900,5.85444775390625,-0.010774350725114346,0.008385495282709599,0.0038932752795517445
1772461206696495900,5.864495849609375,-0.007399593014270067,0.007225155830383301,0.003941211849451065
1772461206706543900,5.8745439453125,-0.01028512790799141,0.008190019056200981,0.00044794369023293257
1772461206716593000,5.884593017578125,-0.00552259711548686,0.006630206014961004,0.001960885478183627
1772461206726640600,5.894640625,-0.00848589651286602,0.008057926781475544,0.0044019389897584915
1772461206736690000,5.90468994140625,-0.008285626769065857,0.006613960489630699,0.003713511861860752
1772461206746737700,5.914737548828125,-0.006650179624557495,0.009333847090601921,0.0031915323343127966
1772461206756787000,5.924786865234375,-0.010060356929898262,0.008428905159235,0.002644518855959177
1772461206766834700,5.934834716796875,-0.007673365995287895,0.004643221385776997,0.0024778051301836967
1772461206776884000,5.944884033203125,-0.006323942448943853,0.007877097465097904,0.0005672533297911286
1772461206786931700,5.954931640625,-0.009733321145176888,0.004473578184843063,0.003320961957797408
1772461206796980700,5.964980712890625,-0.0073202308267354965,0.008783104829490185,0.0035507925786077976
1772461206807028700,5.97502880859375,-0.0065284729935228825,0.007396130822598934,0.004229632206261158
1772461206817077000,5.985076904296875,-0.008567389100790024,0.008777245879173279,0.0012591425329446793
1772461206827125800,5.995125732421875,-0.007113569416105747,0.006256830412894487,0.0010021475609391928
1772461206837173800,6.005173828125,-0.0090542146936059,0.008562329225242138,0.0006687197601422668
1772461206847222800,6.015222900390625,-0.007478688843548298,0.009004946798086166,0.0024953819811344147
1772461206857270800,6.025270751953125,-0.00948005449026823,0.00862997304648161,0.003206712193787098
1772461206867319800,6.03531982421875,-0.008346613496541977,0.005915945861488581,0.00063383235828951
1772461206877367800,6.045367919921875,-0.007102650590240955,0.007712248247116804,0.002579537918791175
1772461206887415800,6.055415771484375,-0.008833705447614193,0.008076834492385387,0.004085821565240622
1772461206897464800,6.06546484375,-0.007315703667700291,0.006138852797448635,0.0013560815714299679
1772461206907512800,6.075512939453125,-0.008991897106170654,0.0062483083456754684,0.002636795863509178
1772461206917561900,6.085561767578125,-0.006339388433843851,0.00842570886015892,0.0004953479510731995
1772461206927609900,6.09560986328125,-0.00762915750965476,0.008735168725252151,0.00464668357744813
1772461206937659000,6.105658935546875,-0.008228102698922157,0.008947688154876232,0.0035382758360356092
1772461206947706600,6.11570654296875,-0.008508799597620964,0.004503671545535326,0.0009374326909892261
1772461206957756000,6.125755859375,-0.009496565908193588,0.00866006687283516,0.001966744428500533
1772461206967803600,6.1358037109375,-0.007739146240055561,0.00589570589363575,0.0007440872141160071
1772461206977853000,6.14585302734375,-0.010588728822767735,0.008342085406184196,-0.000865793670527637
1772461206987900700,6.155900634765625,-0.008540491573512554,0.005904760677367449,0.004789961501955986
1772461206997949000,6.165948974609375,-0.0086603332310915,0.007102117873728275,0.004473311826586723
1772461207007997700,6.175997802734375,-0.00977300200611353,0.006351905409246683,0.0008261125767603517
1772461207018046000,6.1860458984375,-0.007848069071769714,0.007119428366422653,0.000737695605494082
1772461207028094700,6.1960947265625,-0.00754952896386385,0.0092334458604455,0.005649363622069359
1772461207038143000,6.20614306640625,-0.0067750816233456135,0.008821987546980381,0.003563842037692666
1772461207048191700,6.216191650390625,-0.009585781954228878,0.008310128003358841,0.001838646363466978
1772461207058239700,6.22623974609375,-0.008389756083488464,0.005032841581851244,0.00481472909450531
1772461207068288800,6.236288818359375,-0.008611331693828106,0.009060606360435486,0.002695385366678238
1772461207078336800,6.246336669921875,-0.00908777117729187,0.00538411270827055,0.003314836649224162
1772461207088384800,6.256384765625,-0.009983125142753124,0.005913282744586468,0.002341983839869499
1772461207098433800,6.266433837890625,-0.007515440694987774,0.006198240909725428,0.0018583538476377726
1772461207108481800,6.276481689453125,-0.00986434891819954,0.008765261620283127,0.0033095101825892925
1772461207118530800,6.28653076171875,-0.007681088987737894,0.007923702709376812,0.0035420041531324387
1772461207128578800,6.296578857421875,-0.008701878599822521,0.006872819736599922,0.0014242585748434067
1772461207138627800,6.3066279296875,-0.008200937882065773,0.009017463773488998,0.003936951048672199
1772461207148675800,6.31667578125,-0.007455785758793354,0.006188121158629656,0.004258394706994295
1772461207158723800,6.326723876953125,-0.008035289123654366,0.008009457029402256,0.0006237123161554337
1772461207168772400,6.3367724609375,-0.006939664948731661,0.007679757662117481,0.0025300029665231705
1772461207178820600,6.346820556640625,-0.0060235378332436085,0.007450725883245468,0.0020927118603140116
1772461207188869400,6.356869384765625,-0.008562595583498478,0.007006244268268347,0.003413107246160507
1772461207198917600,6.366917724609375,-0.006898918654769659,0.007931692525744438,0.0017409083666279912
1772461207208966400,6.37696630859375,-0.007152718026190996,0.008286425843834877,0.002898051869124174
1772461207219014700,6.3870146484375,-0.009105348028242588,0.005857090000063181,0.002855974016711116
1772461207229063400,6.3970634765625,-0.0072898706421256065,0.009984723292291164,0.0016490293201059103
1772461207239111700,6.407111572265625,-0.006374009884893894,0.005898369010537863,0.0008349010022357106
1772461207249159700,6.41715966796875,-0.008401207625865936,0.008506935089826584,0.0031915323343127966
1772461207259208400,6.42720849609375,-0.009791910648345947,0.007173224352300167,-0.0002641855680849403
1772461207269256700,6.437256591796875,-0.007437942549586296,0.009635848924517632,0.0017299894243478775
1772461207279305500,6.447305419921875,-0.00757935643196106,0.00851572398096323,0.0026253440883010626
1772461207289353700,6.457353759765625,-0.007799866143614054,0.005921538453549147,0.003138801548629999
1772461207299402500,6.467402587890625,-0.010012952610850334,0.005892243701964617,0.0009512811084277928
1772461207309450800,6.47745068359375,-0.00959723349660635,0.007977232336997986,0.0014136058744043112
1772461207319499500,6.48749951171875,-0.009722935035824776,0.00914582796394825,0.003920173272490501
1772461207329547500,6.497547607421875,-0.007302387617528439,0.007832623086869717,0.002767024328932166
1772461207339595500,6.507595458984375,-0.0086054727435112,0.00920068845152855,0.0028338697738945484
1772461207349644500,6.51764453125,-0.009700298309326172,0.007870972156524658,0.002977946773171425
1772461207359692500,6.527692626953125,-0.007533283904194832,0.007866444997489452,0.0008721852791495621
1772461207369741300,6.5377412109375,-0.008169246837496758,0.004826713353395462,0.0008322378271259367
1772461207379789600,6.54778955078125,-0.007565774489194155,0.005408081226050854,0.001472728094086051
1772461207389838300,6.55783837890625,-0.010973022319376469,0.00896846130490303,0.0032320122700184584
1772461207399886600,6.567886474609375,-0.006980943959206343,0.00640703272074461,0.0017664746847003698
1772461207409935400,6.577935302734375,-0.010132795199751854,0.007947671227157116,0.00040986048406921327
1772461207419983600,6.587983642578125,-0.008127168752253056,0.0060059609822928905,0.002576342085376382
1772461207430031600,6.598031494140625,-0.008587629534304142,0.007257912773638964,0.00299259414896369
1772461207440080600,6.60808056640625,-0.006554571911692619,0.006359096150845289,0.002070873975753784
1772461207450128600,6.618128662109375,-0.008403871208429337,0.008851815015077591,0.002121740486472845
1772461207460177700,6.628177734375,-0.008255000226199627,0.006305033806711435,0.0026104305870831013
1772461207470225700,6.6382255859375,-0.008313589729368687,0.006711432244628668,0.003591006388887763
1772461207480274700,6.648274658203125,-0.007759652566164732,0.009807090274989605,0.0017022925894707441
1772461207490322700,6.65832275390625,-0.006685599684715271,0.008859537541866302,0.004553206264972687
1772461207500371500,6.668371337890625,-0.00954024214297533,0.007127684075385332,0.0015361113473773003
1772461207510419700,6.678419677734375,-0.00902811624109745,0.006924218963831663,0.002365952357649803
1772461207520468500,6.688468505859375,-0.006863498594611883,0.00782809592783451,0.0043910201638937
1772461207530516700,6.698516845703125,-0.009437443688511848,0.0073655047453939915,0.0015765913994982839
1772461207540564500,6.708564453125,-0.008188687264919281,0.006952448282390833,0.0020157466642558575
1772461207550613800,6.71861376953125,-0.00917645450681448,0.008376706391572952,0.000708134553860873
1772461207560661500,6.72866162109375,-0.007509049028158188,0.006713829003274441,0.002168345730751753
1772461207570710800,6.738710693359375,-0.01050297450274229,0.007260043174028397,0.0017145430902019143
1772461207580758500,6.748758544921875,-0.008747418411076069,0.006419816054403782,0.00020825919636990875
1772461207590807600,6.7588076171875,-0.008466455154120922,0.007458981592208147,0.0011166634503751993
1772461207600855600,6.76885546875,-0.009381784126162529,0.005864547099918127,0.001764344167895615
1772461207610904600,6.778904541015625,-0.007166566327214241,0.00803049560636282,0.003434146288782358
1772461207620952600,6.78895263671875,-0.008286159485578537,0.007228618022054434,0.003734284546226263
1772461207631000600,6.79900048828125,-0.006096241995692253,0.007397728972136974,0.0031553131993860006
1772461207641049600,6.809049560546875,-0.008522648364305496,0.0073540532030165195,0.004296211525797844
1772461207651097600,6.81909765625,-0.008723184466362,0.001672198879532516,0.004650411661714315
1772461207661146600,6.829146728515625,-0.007044860161840916,0.006711432244628668,0.0032061797101050615
1772461207671194600,6.839194580078125,-0.009033176116645336,0.007547931279987097,0.0035689021460711956
1772461207681243600,6.84924365234375,-0.008594819344580173,0.007969509810209274,0.004232029430568218
1772461207691291600,6.859291748046875,-0.008113319985568523,0.007470166776329279,0.00045912896166555583
1772461207701340700,6.869340576171875,-0.00803422462195158,0.00959856528788805,0.0014343785587698221
1772461207711388700,6.879388671875,-0.009840114042162895,0.006171875633299351,0.0020303940400481224
1772461207721436400,6.8894365234375,-0.008629441261291504,0.007651794236153364,0.0016791230300441384
1772461207731485700,6.899485595703125,-0.007711715530604124,0.005691708065569401,0.0008878979133442044
1772461207741533400,6.909533447265625,-0.0104726143181324,0.005634716246277094,0.004254666157066822
1772461207751582700,6.919582763671875,-0.006048304960131645,0.007041131611913443,-0.0003451456723269075
1772461207761630500,6.92963037109375,-0.008791893720626831,0.005023787263780832,0.0025648903101682663
1772461207771679700,6.9396796875,-0.008976982906460762,0.007425425574183464,0.0027305390685796738
1772461207781727500,6.9497275390625,-0.008054464124143124,0.0052086105570197105,0.003180080559104681
1772461207791776800,6.95977685546875,-0.008570585399866104,0.008172708563506603,0.0020394488237798214
1772461207801824500,6.969824462890625,-0.008237956091761589,0.008363923989236355,-0.00014141385327093303
1772461207811873800,6.979873779296875,-0.008379902690649033,0.009517072699964046,0.0015789881581440568
1772461207821921500,6.989921630859375,-0.0072986590676009655,0.007829426787793636,0.0010929612908512354
1772461207831969500,6.999969482421875,-0.007878961972892284,0.006859237793833017,0.0057407100684940815
1772461207842018600,7.0100185546875,-0.006997455842792988,0.006229400169104338,0.001353418454527855
1772461207852066600,7.020066650390625,-0.00932346098124981,0.007499727886170149,0.0046445527113974094
1772461207862115600,7.030115478515625,-0.0076123797334730625,0.008492021821439266,-0.0013395700370892882
1772461207872163600,7.04016357421875,-0.009581787511706352,0.005073854699730873,0.0016522251535207033
1772461207882212600,7.050212646484375,-0.009848102927207947,0.006448578089475632,0.00458649592474103
1772461207892260600,7.060260498046875,-0.00965928565710783,0.007392934989184141,0.0013571468880400062
1772461207902309600,7.0703095703125,-0.00845526996999979,0.008560198359191418,0.003742273896932602
1772461207912357600,7.080357666015625,-0.006169478874653578,0.006786266807466745,0.0033601103350520134
1772461207922405400,7.0904052734375,-0.006610764656215906,0.008559132926166058,0.0020213392563164234
1772461207932454700,7.10045458984375,-0.008743690326809883,0.00848456472158432,0.0006846986943855882
1772461207942502400,7.11050244140625,-0.009229185059666634,0.008154332637786865,0.0028367992490530014
1772461207952551700,7.1205517578125,-0.005548163317143917,0.007722101639956236,0.0030740867368876934
1772461207962599400,7.130599365234375,-0.005260542035102844,0.006287723314017057,0.000854075769893825
1772461207972648700,7.140648681640625,-0.008340754546225071,0.008036887273192406,0.0018588864477351308
1772461207982696400,7.150696533203125,-0.009877397678792477,0.007358314003795385,0.0019257317762821913
1772461207992745700,7.160745849609375,-0.008892028592526913,0.007167898118495941,0.0017387778498232365
1772461208002793500,7.17079345703125,-0.008929046802222729,0.00857617799192667,-0.0004844290087930858
1772461208012842800,7.1808427734375,-0.00800546258687973,0.006330866366624832,-0.0011941614793613553
1772461208022890500,7.190890380859375,-0.009095493704080582,0.00959563534706831,0.0025872609112411737
1772461208032938500,7.2009384765625,-0.0072991917841136456,0.007000118959695101,0.0025214808993041515
1772461208042987500,7.210987548828125,-0.008115450851619244,0.007996140979230404,0.005579056218266487
1772461208053035500,7.221035400390625,-0.007620369084179401,0.006214486435055733,0.0035920715890824795
1772461208063084500,7.23108447265625,-0.009095227345824242,0.011012171395123005,0.00253426400013268
1772461208073132500,7.241132568359375,-0.009031577967107296,0.006535930093377829,0.002073803450912237
1772461208083181600,7.251181640625,-0.007791876792907715,0.004177967086434364,0.0009259810904040933
1772461208093229600,7.2612294921875,-0.007534881588071585,0.007035272661596537,0.002226136391982436
1772461208103278600,7.271278564453125,-0.00848456472158432,0.0049643986858427525,0.0018580874893814325
1772461208113326600,7.28132666015625,-0.007951932959258556,0.008619853295385838,0.002002430846914649
1772461208123375600,7.291375732421875,-0.007568703964352608,0.005873335525393486,0.0017502295086160302
1772461208133423600,7.301423583984375,-0.008350607939064503,0.007477889768779278,0.0032661007717251778
1772461208143471400,7.311471435546875,-0.007980162277817726,0.00694871973246336,-0.00005166532355360687
1772461208153520600,7.321520751953125,-0.007706122938543558,0.008288822136819363,0.004703941289335489
1772461208163568400,7.331568359375,-0.009661681950092316,0.0091732582077384,0.003049585735425353
1772461208173621000,7.34162109375,-0.009318666532635689,0.009386577643454075,0.0016474314033985138
1772461208183669000,7.3516689453125,-0.007010505069047213,0.008887235075235367,0.0023611586075276136
1772461208193718000,7.361718017578125,-0.009821205399930477,0.006299973931163549,0.0012942962348461151
1772461208203766000,7.37176611328125,-0.009660616517066956,0.00902571901679039,0.0036341496743261814
1772461208213815000,7.38181494140625,-0.0075697689317166805,0.007791344076395035,0.002811765531077981
1772461208223863000,7.391863037109375,-0.009227054193615913,0.009877131320536137,0.00199390877969563
1772461208233912000,7.401912109375,-0.00666456064209342,0.00920281931757927,0.0011371697764843702
1772461208243960000,7.4119599609375,-0.008945291861891747,0.00777776213362813,0.001442900625988841
1772461208254008000,7.422008056640625,-0.007228618022054434,0.00808908510953188,0.0018109495285898447
1772461208264057000,7.43205712890625,-0.00965768750756979,0.008674448356032372,0.001671666163019836
1772461208274105000,7.44210498046875,-0.005933522712439299,0.006822485942393541,-0.00017017599020618945
1772461208284154000,7.452154052734375,-0.007740211207419634,0.008900550194084644,0.0035412053111940622
1772461208294202000,7.4622021484375,-0.010157296434044838,0.006661364808678627,0.0018165421206504107
1772461208304251000,7.4722509765625,-0.010164753533899784,0.007198257837444544,0.003483414649963379
1772461208314299100,7.482299072265625,-0.007286408916115761,0.005884520709514618,0.002201901515945792
1772461208324348000,7.492347900390625,-0.008833971805870533,0.008676312863826752,0.0015278555219992995
1772461208334396200,7.502396240234375,-0.004855741746723652,0.00806431844830513,0.001418932224623859
1772461208344444200,7.512444091796875,-0.00993305817246437,0.006794256623834372,0.0032860743813216686
1772461208354493200,7.5224931640625,-0.005932724103331566,0.009485647082328796,0.0034738273825496435
1772461208364541000,7.532541015625,-0.008295213803648949,0.008049137890338898,0.0018908443162217736
1772461208374590200,7.542590087890625,-0.008013717830181122,0.005319930613040924,0.0018804579740390182
1772461208384638000,7.552637939453125,-0.008191350847482681,0.005941512528806925,0.0025896579027175903
1772461208394687200,7.562687255859375,-0.007277354132384062,0.004125502891838551,0.0005781722720712423
1772461208404735000,7.57273486328125,-0.006539658177644014,0.008677643723785877,0.004320978652685881
1772461208414784000,7.582783935546875,-0.009020659141242504,0.008594286628067493,0.0019837887957692146
1772461208424832000,7.59283203125,-0.007444067858159542,0.00980416126549244,0.0006202502408996224
1772461208434881000,7.602881103515625,-0.00942039955407381,0.008009723387658596,-0.0002798982313834131
1772461208444929000,7.612928955078125,-0.008808671496808529,0.006744189187884331,0.0016753945965319872
1772461208454978000,7.62297802734375,-0.005822735372930765,0.009978597983717918,0.0028868666850030422
1772461208465026000,7.633026123046875,-0.007127418182790279,0.007466171868145466,0.0021379857789725065
1772461208475074000,7.643073974609375,-0.010157296434044838,0.009982326999306679,0.0038488004356622696
1772461208485123000,7.653123046875,-0.01113627478480339,0.003855458227917552,0.0024370586033910513
1772461208495171000,7.663171142578125,-0.0062578958459198475,0.008076834492385387,0.002132659312337637
1772461208505220000,7.67322021484375,-0.006339122075587511,0.006767358630895615,0.004111388232558966
1772461208515268000,7.68326806640625,-0.00896499864757061,0.007986553944647312,0.003674895968288183
1772461208525316900,7.69331689453125,-0.005397961009293795,0.006218214984983206,0.0019867182709276676
1772461208535365000,7.703365234375,-0.006396380253136158,0.008241950534284115,0.00170815153978765
1772461208545414000,7.713413818359375,-0.009187373332679272,0.005842442624270916,0.0005259743193164468
1772461208555462100,7.723462158203125,-0.007140733767300844,0.007678692229092121,0.0020727382507175207
1772461208565511000,7.733510986328125,-0.008233428932726383,0.00842943787574768,0.0033475933596491814
1772461208575559200,7.74355908203125,-0.009006012231111526,0.006491987966001034,0.00358754419721663
1772461208585607200,7.753607177734375,-0.009455286897718906,0.007066697813570499,0.0035979305393993855
1772461208595656200,7.76365625,-0.007100253831595182,0.007591873407363892,-0.0006295712664723396
1772461208605704200,7.7737041015625,-0.009635317139327526,0.0065170214511454105,0.003440005239099264
1772461208615753200,7.783753173828125,-0.00851678941398859,0.00612313998863101,0.001591771375387907
1772461208625801000,7.793801025390625,-0.009544236585497856,0.006432599388062954,0.0027750139124691486
1772461208635850000,7.80385009765625,-0.007439274340867996,0.00875168014317751,0.004289553500711918
1772461208645898000,7.81389794921875,-0.009356217458844185,0.009784453548491001,0.0006380933918990195
1772461208655947000,7.823947021484375,-0.008345548063516617,0.008591623976826668,0.002159290947020054
1772461208665995000,7.8339951171875,-0.006339654792100191,0.004905276466161013,0.0018527611391618848
1772461208676044000,7.8440439453125,-0.008471781387925148,0.006678941659629345,0.0041159153915941715
1772461208686092000,7.854092041015625,-0.007171360310167074,0.006411027628928423,0.0010404969798400998
1772461208696140000,7.86414013671875,-0.0070432620123028755,0.008726379834115505,-0.0004058657505083829
1772461208706189000,7.87418896484375,-0.007416104432195425,0.007896805182099342,0.0028455876745283604
1772461208716237000,7.884237060546875,-0.007405451964586973,0.008579906076192856,0.0026296053547412157
1772461208726286000,7.8942861328125,-0.007013967260718346,0.009621202014386654,0.0009227853151969612
1772461208736334000,7.904333984375,-0.007453122641891241,0.003979029133915901,0.0007206514128483832
1772461208746382800,7.9143828125,-0.006673881784081459,0.006676012184470892,0.004096474498510361
1772461208756431000,7.92443115234375,-0.009186041541397572,0.005970807280391455,0.0013108078856021166
1772461208766480000,7.93447998046875,-0.009588711895048618,0.010096576064825058,0.0023310647811740637
1772461208776528100,7.944528076171875,-0.008657670579850674,0.006445115897804499,0.0008514125947840512
1772461208786577000,7.954576904296875,-0.008298942819237709,0.005115932319313288,0.001832787413150072
1772461208796625200,7.964625244140625,-0.011117099784314632,0.006989200133830309,0.0026764769572764635
1772461208806673200,7.974673095703125,-0.0059873186983168125,0.006705573294311762,-0.001526523963548243
1772461208816722200,7.98472216796875,-0.009150355122983456,0.003906857222318649,-0.002600576728582382
1772461208826770200,7.994770263671875,-0.007525027729570866,0.0017030915478244424,-0.0018008295446634293
1772461208836819200,8.004819091796875,-0.009342102333903313,0.003918308764696121,-0.0024074974935501814
1772461208846867200,8.0148671875,-0.010032127611339092,0.004307663068175316,-0.0008085357258096337
1772461208856916000,8.024916015625,-0.008387626148760319,0.003948136232793331,-0.0015150723047554493
1772461208866964200,8.034964111328126,-0.00860227644443512,0.0020903151016682386,-0.0013307816116139293
1772461208877013000,8.045012939453125,-0.0073202308267354965,0.003798999357968569,-0.0014721954939886928
1772461208887061000,8.05506103515625,-0.0070856064558029175,0.005554288625717163,-0.0007648598402738571
1772461208897110000,8.065110107421875,-0.010153301991522312,0.002549444092437625,-0.0015867113834246993
1772461208907158000,8.075157958984375,-0.006706904619932175,0.004400074947625399,0.00025992453447543085
1772461208917207000,8.08520703125,-0.008044078014791012,0.007833688519895077,-0.0007265103631652892
1772461208927255000,8.095255126953125,-0.008829976432025433,0.0007795072160661221,-0.0037864823825657368
1772461208937303000,8.105302978515626,-0.00824780948460102,0.00030546457855962217,-0.0043444144539535046
1772461208947352000,8.11535205078125,-0.006091182120144367,0.006007825024425983,0.003060770919546485
1772461208957400000,8.125400146484376,-0.006020075641572475,0.01619068719446659,0.006392918061465025
1772461208967448800,8.13544873046875,-0.008373511023819447,0.010553308762609959,0.004081560764461756
1772461208977497000,8.1454970703125,-0.007200388703495264,0.0025843314360827208,-0.0016903083305805922
1772461208987545900,8.1555458984375,-0.007420099340379238,0.00444002216681838,-0.000865793670527637
1772461208997594000,8.165593994140625,-0.006764695513993502,0.007138869725167751,0.0010724549647420645
1772461209007643000,8.175642822265624,-0.00814980547875166,0.01218449417501688,0.004295146092772484
1772461209017691100,8.185691162109375,-0.007062703371047974,0.007860586047172546,0.00122558674775064
1772461209027740000,8.195739990234374,-0.007580687757581472,0.0065537733025848866,-0.0014410364674404263
1772461209037788200,8.2057880859375,-0.006579872220754623,0.006779076531529427,0.0017457021167501807
1772461209047836200,8.215836181640626,-0.008414790034294128,0.009487245231866837,0.007964449934661388
1772461209057885200,8.22588525390625,-0.009634784422814846,0.009551960043609142,0.0023608922492712736
1772461209067933200,8.23593310546875,-0.006347111891955137,0.00595509447157383,0.0006466155173256993
1772461209077982000,8.24598193359375,-0.008650746196508408,0.006293848622590303,0.0014210627414286137
1772461209088030200,8.2560302734375,-0.008253135718405247,0.007656055502593517,0.0014628743520006537
1772461209098079000,8.266078857421874,-0.00887951161712408,0.00971387978643179,-0.00011824435205198824
1772461209108127200,8.276127197265625,-0.009994843043386936,0.004938299767673016,0.0015651397407054901
1772461209118176000,8.286176025390626,-0.008282430469989777,0.00746164470911026,0.0007590008899569511
1772461209128224300,8.296224365234375,-0.00951121374964714,0.0065527078695595264,0.0033627734519541264
1772461209138273000,8.30627294921875,-0.009043562225997448,0.006457100156694651,0.002103364560753107
1772461209148321000,8.316321044921875,-0.008231298066675663,0.00774820102378726,0.004018443636596203
1772461209158370000,8.3263701171875,-0.007024353835731745,0.009758355095982552,0.004085821565240622
1772461209168418000,8.33641796875,-0.008428905159235,0.0049095372669398785,0.0028658276423811913
1772461209178462000,8.3464619140625,-0.008736499585211277,0.01044465135782957,0.005547630600631237
1772461209188511000,8.356510986328125,-0.008173507638275623,0.00862970668822527,0.004092213232070208
1772461209198559000,8.36655908203125,-0.00890854001045227,0.005051217507570982,0.004120176658034325
1772461209208608000,8.37660791015625,-0.010059026069939137,0.006114351563155651,0.0027561055030673742
1772461209218656000,8.386656005859376,-0.007497863844037056,0.0075841499492526054,0.002998719457536936
1772461209228705000,8.396705078125,-0.008972189389169216,0.008812665939331055,0.003811516100540757
1772461209238753000,8.4067529296875,-0.010301639325916767,0.006630471907556057,0.004318049177527428
1772461209248802000,8.416802001953124,-0.00842677429318428,0.008155131712555885,-0.0001478054327890277
1772461209258849800,8.426849853515625,-0.008019310422241688,0.007497331127524376,0.003995540551841259
1772461209268899000,8.436899169921874,-0.009637447074055672,0.006990265101194382,0.0012756541837006807
1772461209278946800,8.44694677734375,-0.006630471907556057,0.01007926557213068,-0.00020266656065359712
1772461209288995000,8.4569951171875,-0.00908377580344677,0.008861934766173363,0.0017600831342861056
1772461209299043800,8.4670439453125,-0.008012918755412102,0.008577508851885796,0.003471164032816887
1772461209309092000,8.477092041015625,-0.0059937103651463985,0.008249141275882721,0.002398176584392786
1772461209319140900,8.487140869140624,-0.0065535069443285465,0.008610532619059086,0.004838963504880667
1772461209329189000,8.497189208984375,-0.007506918627768755,0.008279501460492611,0.0020130835473537445
1772461209339238000,8.50723779296875,-0.009956227615475655,0.006464823614805937,0.0007699198904447258
1772461209349286100,8.5172861328125,-0.008918659761548042,0.007003048434853554,0.0021254688035696745
1772461209359335000,8.5273349609375,-0.008309861645102501,0.005109274294227362,0.002412823960185051
1772461209369383000,8.5373828125,-0.008765794336795807,0.009893910028040409,0.002734001260250807
1772461209379432000,8.547431884765626,-0.00797377061098814,0.005923136603087187,0.0026314693968743086
1772461209389480000,8.55747998046875,-0.005112203769385815,0.012264389544725418,0.014474812895059586
1772461209399529000,8.567529052734375,-0.008194546215236187,0.016808807849884033,0.009584716521203518
1772461209409577000,8.577576904296874,-0.008281632326543331,0.007878162898123264,0.0015446334145963192
1772461209419625000,8.587625,-0.008684301748871803,-0.0021664814557880163,-0.007636880502104759
1772461209429674000,8.597674072265624,-0.009432117454707623,0.005200354848057032,0.0006410228670574725
1772461209439722000,8.607721923828125,-0.009081912226974964,0.014221013523638248,0.00797137338668108
1772461209449771000,8.61777099609375,-0.008305068127810955,0.00905474741011858,0.004477572627365589
1772461209459819000,8.627819091796875,-0.010068613104522228,0.0054269894026219845,-0.00020106865849811584
1772461209469868000,8.637867919921876,-0.009101086296141148,0.004466920159757137,0.00022077605535741895
1772461209479915800,8.647915771484374,-0.007956460118293762,0.00893597025424242,0.006311159115284681
1772461209489965000,8.657965087890625,-0.00794314406812191,0.009443568997085094,0.0028104339726269245
1772461209500012800,8.6680126953125,-0.0059993029572069645,0.009314938448369503,0.0024021712597459555
1772461209510062000,8.67806201171875,-0.007142597809433937,0.00791651289910078,-0.00006338323146337643
1772461209520109800,8.68810986328125,-0.008171376772224903,0.00586721021682024,0.0027379959356039762
1772461209530159000,8.6981591796875,-0.008095210418105125,0.008233428932726383,0.0010705908061936498
1772461209540206800,8.708206787109376,-0.008771919645369053,0.0063124909065663815,0.005403287708759308
1772461209550255000,8.718255126953125,-0.0059660132974386215,0.0059692091308534145,0.0010396981379017234
1772461209560303900,8.728303955078125,-0.006585464812815189,0.006149505265057087,0.002258360618725419
1772461209570352000,8.73835205078125,-0.007535680662840605,0.009772202931344509,0.004079164005815983
1772461209580401000,8.74840087890625,-0.009821205399930477,0.008832107298076153,0.0033742249943315983
1772461209590449000,8.758448974609376,-0.010145844891667366,0.007355118170380592,0.001406947965733707
1772461209600498000,8.768497802734375,-0.009651295840740204,0.006369215901941061,0.0012362393317744136
1772461209610546000,8.7785458984375,-0.008952482603490353,0.005655222572386265,0.001216798322275281
1772461209620595000,8.788594970703125,-0.007733553647994995,0.008734636008739471,0.0031939290929585695
1772461209630643000,8.798642822265625,-0.009770072996616364,0.0049675945192575455,0.001281779375858605
1772461209640692000,8.80869189453125,-0.008318383246660233,0.006918360013514757,0.002415753435343504
1772461209650740000,8.818739990234375,-0.010446515865623951,0.005219529382884502,0.0017417073249816895
1772461209660789000,8.8287890625,-0.009049421176314354,0.007996140979230404,-0.000431432097684592
1772461209670837000,8.8388369140625,-0.00729413190856576,0.007481085602194071,0.002055694116279483
1772461209680885000,8.848885009765626,-0.008266451768577099,0.004839496221393347,0.00469435378909111
1772461209690934000,8.85893408203125,-0.008591357618570328,0.005563876125961542,0.0007803061744198203
1772461209700982000,8.86898193359375,-0.008015049621462822,0.009096559137105942,0.0019089538836851716
1772461209711031000,8.879031005859375,-0.006370014976710081,0.008318915963172913,0.004080761689692736
1772461209721078800,8.889078857421875,-0.007390271872282028,0.008772186003625393,0.004311125259846449
1772461209731128000,8.899128173828124,-0.008472314104437828,0.007923702709376812,0.0056986319832503796
1772461209741175800,8.90917578125,-0.008680307306349277,0.004857339430600405,0.003257312346249819
1772461209751225000,8.91922509765625,-0.009180981665849686,0.007459514308720827,0.0023105584550648928
1772461209761272800,8.92927294921875,-0.006201436743140221,0.00529463030397892,0.003495931625366211
1772461209771322000,8.939322021484376,-0.009413741528987885,0.006671218667179346,0.004257329273968935
1772461209781369900,8.949369873046875,-0.009387110359966755,0.007769772317260504,0.0020178770646452904
1772461209791419100,8.959419189453126,-0.007355650886893272,0.007003581151366234,0.0020607539918273687
1772461209801467000,8.969466796875,-0.0073071811348199844,0.006930344272404909,0.0007227819296531379
1772461209811515100,8.97951513671875,-0.008198275230824947,0.006870689336210489,-0.00033955302205868065
1772461209821564000,8.98956396484375,-0.007366303354501724,0.00481393001973629,0.00005512743518920615
1772461209831612000,8.99961181640625,-0.00774660287424922,0.007436078507453203,-0.00037816885742358863
1772461209841661000,9.009660888671876,-0.008266984485089779,0.007635815534740686,0.0016370450612157583
1772461209851709000,9.019708984375,-0.00800173357129097,0.00887977797538042,-0.0019632822368294
1772461209861758000,9.029758056640626,-0.010075803846120834,0.008688562549650669,0.003322559641674161
1772461209871806000,9.039805908203125,-0.008952482603490353,0.007127950433641672,0.0018690064316615462
1772461209881855000,9.04985498046875,-0.01019724365323782,0.007548197638243437,0.0016463662032037973
1772461209891903000,9.059903076171874,-0.008220645599067211,0.006976949516683817,0.0019212043844163418
1772461209901952000,9.069951904296875,-0.007242466323077679,0.006536462344229221,0.0016887104138731956
1772461209912000000,9.08,-0.007652326952666044,0.007653658743947744,0.0017350494163110852
1772461209922049000,9.090049072265625,-0.008289354853332043,0.006470416206866503,0.001371527905575931
1772461209932097000,9.100096923828126,-0.008285893127322197,0.0076182386837899685,0.0029204224701970816
1772461209942146000,9.11014599609375,-0.0060416474007070065,0.0065654912032186985,-0.0003885551996063441
1772461209952194000,9.120194091796876,-0.007811317685991526,0.007843275554478168,0.0064954496920108795
1772461209962241800,9.13024169921875,-0.010377539321780205,0.006362558342516422,0.0013518205378204584
1772461209972291000,9.140291015625,-0.00887924525886774,0.00938950665295124,0.004067978356033564
1772461209982338800,9.1503388671875,-0.008220911957323551,0.009222260676324368,0.004465322010219097
1772461209992388000,9.16038818359375,-0.008715993724763393,0.008284827694296837,0.0035806200467050076
1772461210002435800,9.170435791015626,-0.008377505466341972,0.008084291592240334,0.00395585922524333
1772461210012485000,9.180485107421875,-0.008502674289047718,0.007580687757581472,0.00347435986623168
1772461210022532900,9.190532958984376,-0.008070443756878376,0.007962585426867008,0.0030061763245612383
1772461210032582100,9.20058203125,-0.008493619970977306,0.0071037160232663155,0.004033890087157488
1772461210042630000,9.2106298828125,-0.008944492787122726,0.009949036873877048,0.004093811381608248
1772461210052679200,9.22067919921875,-0.00839747954159975,0.008615059778094292,0.00005273058923194185
1772461210062727000,9.230726806640625,-0.00902944803237915,0.006951382849365473,0.0021228056866675615
1772461210072776200,9.240776123046874,-0.007725031115114689,0.007014233618974686,0.00170761882327497
1772461210082824000,9.250823974609375,-0.007363906595855951,0.0068326061591506,0.0028386632911860943
1772461210092872000,9.260871826171876,-0.008519718423485756,0.007447530049830675,0.0016799219883978367
1772461210102921000,9.2709208984375,-0.00863077212125063,0.007527690846472979,0.0022186795249581337
1772461210112969000,9.280968994140625,-0.008067780174314976,0.008351673372089863,0.003471696749329567
1772461210123018000,9.29101806640625,-0.008535430766642094,0.006983074825257063,0.001782453735359013
1772461210133066000,9.30106591796875,-0.007556719705462456,0.0049375006929039955,0.001612277701497078
1772461210143115000,9.311114990234374,-0.00977486651390791,0.0073138391599059105,0.0022538332268595695
1772461210153163000,9.3211630859375,-0.006517820525914431,0.0075697689317166805,0.004165982827544212
1772461210163212000,9.3312119140625,-0.007122624199837446,0.008711998350918293,0.0011345066595822573
1772461210173260800,9.3412607421875,-0.009619071148335934,0.007813448086380959,0.0019241338595747948
1772461210183309800,9.351309814453124,-0.008768457919359207,0.007096525281667709,0.002787530655041337
1772461210193357800,9.36135791015625,-0.008955411612987518,0.007873635739088058,0.003031742526218295
1772461210203405800,9.37140576171875,-0.008284561336040497,0.00827870238572359,0.0032629049383103848
1772461210213454800,9.381454833984375,-0.010032660327851772,0.005938050337135792,0.0010713896481320262
1772461210223502800,9.3915029296875,-0.0065135592594742775,0.008596417494118214,0.0014146711910143495
1772461210233551600,9.401551513671874,-0.007861651480197906,0.007445931900292635,0.00381391285918653
1772461210243600000,9.411599853515625,-0.0073258234187960625,0.006329801399260759,-0.0008551410282962024
1772461210253648600,9.421648681640624,-0.008669654838740826,0.006096774712204933,0.0031609057914465666
1772461210263697000,9.43169677734375,-0.00612420542165637,0.008641690947115421,0.005253884010016918
1772461210273745700,9.44174560546875,-0.005109807010740042,0.007910920307040215,0.0007816377910785377
1772461210283794000,9.4517939453125,-0.007337008602917194,0.006911968346685171,0.0005789712304249406
1772461210293842700,9.4618427734375,-0.007439274340867996,0.009366869926452637,0.003462375607341528
1772461210303890700,9.471890625,-0.008382831700146198,0.007676295470446348,-0.0016045545926317573
1772461210313939700,9.481939697265625,-0.007631021551787853,0.009709618985652924,0.0004822984628845006
1772461210323987700,9.49198779296875,-0.007390538230538368,0.006046973634511232,0.004690092988312244
1772461210334036700,9.50203662109375,-0.00706829596310854,0.004824582487344742,0.0041156490333378315
1772461210344084700,9.512084716796876,-0.007050186395645142,0.007768174633383751,0.0035537220537662506
1772461210354133000,9.522133056640625,-0.0070246197283267975,0.007803861051797867,0.0029736857395619154
1772461210364181800,9.532181640625,-0.008754342794418335,0.009649964049458504,0.0035228293854743242
1772461210374230000,9.54222998046875,-0.008678176440298557,0.005651760380715132,0.0016588830621913075
1772461210384278800,9.55227880859375,-0.006835002917796373,0.00983452145010233,-0.00047058056225068867
1772461210394327000,9.5623271484375,-0.010603642091155052,0.007505054119974375,0.0019449065439403057
1772461210404375800,9.572375732421875,-0.007415838539600372,0.00824754312634468,0.0007901599165052176
1772461210414423800,9.582423828125,-0.008531702682375908,0.00797590147703886,0.0006950850365683436
1772461210424472800,9.592472900390625,-0.006505836267024279,0.011108843609690666,0.000749679864384234
1772461210434520800,9.602520751953126,-0.007239270955324173,0.0092936335131526,0.0044173854403197765
1772461210444569900,9.61256982421875,-0.006740194279700518,0.008357532322406769,0.004731638357043266
1772461210454617900,9.622617919921876,-0.008857407607138157,0.008842493407428265,0.005910353269428015
1772461210464667000,9.6326669921875,-0.009180448949337006,0.007800132501870394,0.003614708548411727
1772461210474715000,9.64271484375,-0.009787117131054401,0.007412909064441919,0.0037646444980055094
1772461210484764000,9.652763916015624,-0.007000651676207781,0.005116997752338648,0.003519633784890175
1772461210494811600,9.662811767578125,-0.006050169467926025,0.006740726996213198,0.0007866977830417454
1772461210504860000,9.67285986328125,-0.0059750680811703205,0.005542038008570671,0.0009291769238188863
1772461210514908700,9.68290869140625,-0.010436927899718285,0.008410529233515263,0.002311623888090253
1772461210524956700,9.692956787109376,-0.007358314003795385,0.0076294238679111,0.0026383937802165747
1772461210535005700,9.703005615234375,-0.008525311015546322,0.004366252571344376,0.0031305458396673203
1772461210545053700,9.7130537109375,-0.008971656672656536,0.007911453023552895,0.001317998394370079
