time,seconds_elapsed,z,y,x
1772573106527077000,0.0950771484375,-0.14278975129127502,0.14278975129127502,-0.07162395119667053
1772573106544822000,0.112822021484375,-0.10155634582042694,0.20983220636844635,0.014049900695681572
1772573106562674400,0.13067431640625,-0.025045474991202354,0.16340644657611847,0.05375614017248154
1772573106580504300,0.14850439453125,0.00045814894838258624,0.10522153973579407,0.016340645030140877
1772573106598339800,0.16633984375,-0.010231993161141872,0.2376265823841095,0.02519819140434265
1772573106616174600,0.184174560546875,0.00733038317412138,0.32498031854629517,0.14492778480052948
1772573106634011100,0.20201123046875,-0.010537425056099892,0.17088955640792847,0.3605632185935974
1772573106651844000,0.219843994140625,-0.01863138936460018,-0.033139441162347794,0.6357579827308655
1772573106669680000,0.23768017578125,-0.00809396430850029,-0.13469578325748444,0.8797986507415771
1772573106687514400,0.255514404296875,-0.08628471940755844,-0.016951510682702065,1.0141890048980713
1772573106705351000,0.273350830078125,-0.07620543986558914,0.451123982667923,0.9370672702789307
1772573106723184000,0.29118408203125,0.34773504734039307,1.1119275093078613,0.6200281977653503
1772573106741019600,0.30901953125,0.5435173511505127,0.9958630800247192,-0.06643159687519073
1772573106758818000,0.326818115234375,0.4535674452781677,0.7336491346359253,-1.0731375217437744
1772573106776689200,0.344689208984375,0.323147714138031,1.1624765396118164,-1.3727669715881348
1772573106794523100,0.362523193359375,0.4772384762763977,1.4511103630065918,-0.9019425511360168
1772573106812359200,0.380359130859375,0.95462965965271,0.403323769569397,-0.27061331272125244
1772573106830194200,0.398194091796875,1.3069461584091187,-0.22479841113090515,0.43188172578811646
1772573106848030200,0.4160302734375,1.4561500549316406,-0.011453723534941673,1.1948524713516235
1772573106865863200,0.43386328125,1.0430524349212646,-0.07910704612731934,1.7997617721557617
1772573106883700200,0.4517001953125,0.3101668357849121,-0.9534079432487488,1.4378241300582886
1772573106901533700,0.46953369140625,-0.14095716178417206,-0.864679753780365,0.5229006409645081
1772573106919367200,0.4873671875,-0.2733621895313263,-0.3066543638706207,-0.204487144947052
1772573106937206800,0.505206787109375,-0.26771169900894165,-0.19746218621730804,-0.6172793507575989
1772573106955036000,0.523035888671875,-0.2695443034172058,0.06169738993048668,-0.9344711303710938
1772573106972876800,0.540876708984375,-0.18570303916931152,0.5878050923347473,-1.2371548414230347
1772573106990706400,0.55870654296875,-0.1134682223200798,0.9011789560317993,-1.5332717895507812
1772573107008546600,0.576546630859375,-0.37461310625076294,1.325730323791504,-1.7484490871429443
1772573107026378500,0.59437841796875,-0.7435756921768188,1.281595230102539,-2.0250182151794434
1772573107044213500,0.612213623046875,-1.0865765810012817,0.9870055317878723,-2.2928826808929443
1772573107062049800,0.6300498046875,-1.2527319192886353,0.43417248129844666,-2.3970351219177246
1772573107079883500,0.647883544921875,-1.085965633392334,0.05925392732024193,-2.267226457595825
1772573107097718300,0.66571826171875,-0.6690501570701599,0.10949759185314178,-1.9845484495162964
1772573107115553500,0.683553466796875,-0.2591595947742462,0.1267545372247696,-1.7366899251937866
1772573107133389300,0.701389404296875,0.04657847434282303,-0.0679587572813034,-1.4802792072296143
1772573107151223600,0.7192236328125,0.04963280260562897,-0.2730567753314972,-1.1740829944610596
1772573107169058600,0.73705859375,-0.24037547409534454,-0.8747590184211731,-0.927446186542511
1772573107186893300,0.754893310546875,-0.48747047781944275,-1.6702582836151123,-0.6287330389022827
1772573107204729300,0.772729248046875,-0.6346889734268188,-2.032806873321533,-0.23945917189121246
1772573107222547200,0.790547119140625,-0.6626361012458801,-1.542281985282898,0.27779096364974976
1772573107240393500,0.8083935546875,-0.6293439269065857,-0.6310238242149353,0.8028296232223511
1772573107258233000,0.826233154296875,-0.5233588218688965,0.46761733293533325,1.2887729406356812
1772573107276066000,0.844066162109375,-0.4499022662639618,1.5951218605041504,1.5951218605041504
1772573107293906200,0.86190625,-0.47418415546417236,2.107943296432495,1.568701982498169
1772573107311737900,0.87973779296875,-0.3888157308101654,1.0542006492614746,0.8767443299293518
1772573107329573000,0.897572998046875,-0.05650503560900688,0.8550586104393005,0.554818332195282
1772573107347409000,0.915408935546875,0.41752639412879944,1.2105822563171387,0.19394971430301666
1772573107365243400,0.933243408203125,0.6352998614311218,1.1192578077316284,-0.1359175145626068
1772573107383078000,0.951077880859375,0.20922134816646576,0.060475658625364304,-0.38148534297943115
1772573107400913200,0.9689130859375,0.39217549562454224,-0.3065016269683838,-0.16142113506793976
1772573107418747400,0.986747314453125,0.9248499870300293,0.1618792861700058,0.18875735998153687
1772573107436584700,1.004584716796875,0.9906707406044006,0.04138612002134323,0.19578230381011963
1772573107454417000,1.0224169921875,0.8185594081878662,-0.6597344875335693,0.2750420868396759
1772573107472254000,1.04025390625,0.7802276611328125,-0.6565274000167847,0.8483390808105469
1772573107490073600,1.058073486328125,0.7909177541732788,-0.3793473243713379,1.2909109592437744
1772573107507911200,1.0759111328125,0.6212499737739563,-0.9028588533401489,1.007927656173706
1772573107525760800,1.0937607421875,0.5229006409645081,-1.5673274993896484,0.593302845954895
1772573107543592700,1.1115927734375,0.721737265586853,-1.9868391752243042,0.42088615894317627
1772573107561416700,1.129416748046875,1.170875906944275,-1.8188512325286865,0.3208569586277008
1772573107579262500,1.147262451171875,1.6223053932189941,-1.209971308708191,0.12507465481758118
1772573107597097500,1.165097412109375,1.9662225246429443,-0.4450153410434723,-0.09422596544027328
1772573107614932700,1.1829326171875,2.0916025638580322,0.052839845418930054,-0.27320948243141174
1772573107632768800,1.200768798828125,1.7771596908569336,0.10583240538835526,-0.4260784983634949
1772573107650602200,1.218602294921875,1.0516045093536377,0.12095131725072861,-0.7137960195541382
1772573107668437500,1.2364375,0.2866485118865967,0.06123924255371094,-1.2457069158554077
1772573107686272500,1.2542724609375,-0.032681290060281754,0.06261368840932846,-1.6209309101104736
1772573107704108800,1.27210888671875,0.07590000331401825,0.43478333950042725,-1.5053247213363647
1772573107721942800,1.28994287109375,0.24648413062095642,0.569631814956665,-1.017396092414856
1772573107739777500,1.307777587890625,0.26801711320877075,0.5707008838653564,-0.4236350357532501
1772573107757612500,1.325612548828125,0.012828170321881771,0.6533203721046448,-0.10552696883678436
1772573107775448800,1.34344873046875,-0.2971859276294708,0.4473060667514801,-0.09773843735456467
1772573107793282600,1.361282470703125,-0.5271766781806946,0.03878994286060333,-0.23457226157188416
1772573107811117300,1.379117431640625,-0.570242702960968,-0.2698497176170349,-0.22586742043495178
1772573107828952000,1.3969521484375,-0.560468852519989,-0.2515237629413605,0.027641652151942253
1772573107846789600,1.41478955078125,-0.6166684627532959,0.1508837193250656,0.42042800784111023
1772573107864621600,1.43262158203125,-0.5923865437507629,0.6409503817558289,0.8684976696968079
1772573107882457600,1.45045751953125,-0.5551238059997559,0.7399105429649353,1.23394775390625
1772573107900296400,1.46829638671875,-0.6024658679962158,0.4683809280395508,1.3877331018447876
1772573107918125600,1.48612548828125,-0.6160575747489929,0.12400564551353455,1.41690194606781
1772573107935964400,1.50396435546875,-0.44394633173942566,-0.03878994286060333,1.4674509763717651
1772573107953798700,1.521798583984375,-0.28588494658470154,0.0010690141934901476,1.5425875186920166
1772573107971632400,1.53963232421875,-0.29367345571517944,0.2912299931049347,1.6940820217132568
1772573107989468700,1.55746875,-0.26374107599258423,0.6409503817558289,1.672243595123291
1772573108007302100,1.57530224609375,-0.4482223689556122,0.23258693516254425,1.1775954961776733
1772573108025137400,1.593137451171875,-0.7472409009933472,-0.06933320313692093,0.5054910182952881
1772573108042972400,1.610972412109375,-0.7440338730812073,-0.6259841322898865,-0.31383201479911804
1772573108060808400,1.628808349609375,-0.9250026941299438,-0.969443142414093,-1.2498302459716797
1772573108078642200,1.64664208984375,-1.225701093673706,-0.9008735418319702,-1.7780760526657104
1772573108096474400,1.664474365234375,-0.9005680680274963,-0.8054258227348328,-1.5332717895507812
1772573108114312700,1.682312744140625,-0.2076941877603531,-0.3758348524570465,-0.825584352016449
1772573108132148200,1.700148193359375,-0.21090123057365417,0.06108652427792549,-0.656680166721344
1772573108149983000,1.71798291015625,-0.8378016948699951,-0.6076582074165344,-1.0929906368255615
1772573108167817500,1.7358173828125,-1.4326317310333252,-2.0280725955963135,-1.2620476484298706
1772573108185652700,1.75365283203125,-1.6360498666763306,-2.6708555221557617,-0.8782715201377869
1772573108203488500,1.771488525390625,-1.340238332748413,-2.32586932182312,-0.4331034719944
1772573108221322200,1.789322265625,-0.6569855809211731,-1.3920091390609741,-0.02535090781748295
1772573108239157200,1.8071572265625,0.1408044397830963,-0.5693264007568359,0.403781920671463
1772573108256992300,1.8249921875,0.7600690722465515,-0.3404046595096588,0.6789767146110535
1772573108274828800,1.842828857421875,0.9140071272850037,-0.09254608303308487,0.4836525619029999
1772573108292659200,1.8606591796875,0.7638869881629944,0.5740606188774109,-0.17318029701709747
1772573108310500400,1.878500244140625,0.7116580009460449,1.3993395566940308,-0.88361656665802
1772573108328332300,1.896332275390625,0.7716755270957947,1.9399553537368774,-1.3420709371566772
1772573108346168600,1.91416845703125,0.8071057200431824,1.8706220388412476,-1.3794864416122437
1772573108364002300,1.932002197265625,0.8103127479553223,1.4430164098739624,-0.9970847964286804
1772573108381837300,1.94983740234375,0.7179193496704102,0.8972083330154419,-0.46150869131088257
1772573108399672600,1.967672607421875,0.49953505396842957,0.38759398460388184,-0.024434609338641167
1772573108417508400,1.98550830078125,0.2562579810619354,0.0029016099870204926,0.230448916554451
1772573108435342600,2.003342529296875,0.11270463466644287,-0.21991148591041565,0.3926336467266083
1772573108453177300,2.02117724609375,0.05146539583802223,-0.275347501039505,0.5247332453727722
1772573108471012600,2.0390126953125,0.02168571576476097,-0.1385136991739273,0.6572909951210022
1772573108488848600,2.0568486328125,-0.04184427112340927,-0.01878410577774048,0.760832667350769
1772573108506675000,2.074675048828125,-0.04657847434282303,-0.11163562536239624,0.8617781400680542
1772573108524506000,2.092506103515625,0.004123340360820293,0.013286318629980087,1.0031934976577759
1772573108542352600,2.1103525390625,0.04199698567390442,0.6079636216163635,1.1113165616989136
1772573108560190700,2.128190673828125,0.1742493063211441,0.9613491892814636,1.211498498916626
1772573108578022700,2.146022705078125,0.27061331272125244,0.836885392665863,1.3584115505218506
1772573108595857000,2.16385693359375,0.26145032048225403,0.7095199823379517,1.4811954498291016
1772573108613694000,2.18169384765625,0.1007927656173706,0.5393940210342407,1.4362969398498535
1772573108631529000,2.199529052734375,-0.19089539349079132,0.37797287106513977,1.0491610765457153
1772573108649363200,2.21736328125,-0.3251330256462097,0.4645630121231079,0.31673362851142883
1772573108667198200,2.2351982421875,-0.7263187766075134,-0.11530081182718277,-0.6424775123596191
1772573108685033200,2.253033203125,-1.052673578262329,-0.8593347072601318,-1.0618364810943604
1772573108702869000,2.270868896484375,-0.22876903414726257,-0.2539672255516052,-0.7086036801338196
1772573108720703000,2.288702880859375,0.7521278262138367,0.9695958495140076,-0.31001409888267517
1772573108738534700,2.30653466796875,1.2182179689407349,0.9671524167060852,-0.43875396251678467
1772573108756375300,2.324375244140625,1.2725850343704224,-0.3901901841163635,-0.6288857460021973
1772573108774210600,2.34221044921875,1.1545352935791016,-1.4613423347473145,-0.6548475623130798
1772573108792041000,2.360041015625,0.8662069439888,-2.0250182151794434,-0.8130616545677185
1772573108809880300,2.37788037109375,0.37339138984680176,-1.915215253829956,-0.8550586104393005
1772573108827713000,2.395713134765625,-0.03573561832308769,-0.9784533977508545,-0.641255795955658
1772573108845549000,2.413549072265625,0.10170906037092209,0.1290452778339386,-0.21807889640331268
1772573108863383000,2.431383056640625,0.6055201888084412,0.588263213634491,0.16737708449363708
1772573108881218300,2.44921826171875,0.9190467596054077,0.5410739183425903,0.3776674270629883
1772573108899053000,2.467052978515625,0.8436049222946167,-0.055283304303884506,0.31459560990333557
1772573108916889600,2.4848896484375,0.4662429094314575,-0.479834645986557,-0.09804387390613556
1772573108934723600,2.5027236328125,0.22021691501140594,-0.6017022728919983,-0.6872233748435974
1772573108952558300,2.520558349609375,0.1615738570690155,-0.30344730615615845,-1.0954340696334839
1772573108970388700,2.538388671875,0.10476338863372803,0.17150041460990906,-1.2255483865737915
1772573108988230000,2.55622998046875,0.08460483700037003,0.5271766781806946,-1.1258246898651123
1772573109006063600,2.574063720703125,0.20234911143779755,0.6502660512924194,-0.8869763612747192
1772573109023898600,2.591898681640625,0.3220787048339844,0.42012256383895874,-0.5873469114303589
1772573109041733600,2.609733642578125,0.290313720703125,-0.09865473955869675,-0.2499966025352478
1772573109059567400,2.6275673828125,0.1108720451593399,-0.6562219858169556,0.12370020896196365
1772573109077404200,2.645404052734375,-0.285121351480484,-1.031293272972107,0.4398229718208313
1772573109095239200,2.6632392578125,-0.679129421710968,-1.2311989068984985,0.579405665397644
1772573109113074000,2.681073974609375,-0.8718574047088623,-0.9973902106285095,0.6041457056999207
1772573109130909400,2.698909423828125,-0.9104946255683899,-0.5713117122650146,0.5429064631462097
1772573109148744000,2.716743896484375,-0.9702067375183105,0.051312681287527084,0.5042692422866821
1772573109166579000,2.734578857421875,-1.0088438987731934,0.9692904353141785,0.60429847240448
1772573109184414200,2.752414306640625,-0.873842716217041,1.5209017992019653,0.6821837425231934
1772573109202250500,2.77025048828125,-0.461355984210968,1.8486309051513672,0.669355571269989
1772573109220082200,2.788082275390625,-0.039095375686883926,2.046856641769409,0.6331618428230286
1772573109237921300,2.80592138671875,0.12980885803699493,2.2117903232574463,0.5516113042831421
1772573109255754500,2.82375439453125,0.0032070425804704428,0.9975429177284241,0.1745547503232956
1772573109273590800,2.8415908203125,-0.05451972410082817,-0.912021815776825,-0.04108068719506264
1772573109291424300,2.85942431640625,-0.043676864355802536,-0.978606104850769,0.16233743727207184
1772573109309259500,2.877259521484375,-0.03375030308961868,-0.04398229718208313,0.25244006514549255
1772573109327094300,2.89509423828125,0.1774563491344452,0.3975205719470978,0.2616030275821686
1772573109344930600,2.9129306640625,0.10186178237199783,-0.22632557153701782,0.23365595936775208
1772573109362764500,2.9307646484375,-0.29016098380088806,-0.598647952079773,0.010537425056099892
1772573109380599600,2.948599609375,-0.5035057067871094,-0.6296493411064148,-0.33108896017074585
1772573109398434800,2.966434814453125,-0.32986724376678467,-0.3188716471195221,-0.4109596014022827
1772573109416271000,2.98427099609375,0.31749722361564636,-0.010690141469240189,-0.24984388053417206
1772573109434105000,3.00210498046875,0.9269880056381226,0.06429356336593628,0.045204028487205505
1772573109451939800,3.01993994140625,1.2568552494049072,-0.06841690838336945,0.34636059403419495
1772573109469775000,3.037775146484375,1.4170546531677246,-0.1768454909324646,0.5824599862098694
1772573109487596300,3.05559619140625,1.5558737516403198,0.14095716178417206,0.7221954464912415
1772573109505435000,3.073434814453125,1.7270687818527222,0.9320276379585266,0.6178901791572571
1772573109523283500,3.091283447265625,1.834428310394287,1.8796323537826538,0.28985556960105896
1772573109541115100,3.109115234375,1.7298176288604736,2.3018929958343506,-0.20066922903060913
1772573109558939400,3.126939453125,1.2551753520965576,2.3205244541168213,-0.6757696866989136
1772573109576785400,3.144785400390625,0.527634859085083,2.2395846843719482,-0.9242390990257263
1772573109594620400,3.162620361328125,-0.13836097717285156,2.037540912628174,-0.9456194043159485
1772573109612455200,3.180455078125,-0.5343543887138367,1.5667166709899902,-0.7834346890449524
1772573109630295300,3.19829541015625,-0.5386304259300232,0.9294314980506897,-0.42241331934928894
1772573109648125700,3.216125732421875,-0.5064072608947754,0.265573650598526,0.013897184282541275
1772573109665959700,3.233959716796875,-0.84574294090271,-0.27030786871910095,0.28008171916007996
1772573109683796700,3.251796630859375,-1.3991868495941162,-0.7670940160751343,0.24526239931583405
1772573109701631700,3.2696318359375,-1.7140878438949585,-1.046717643737793,0.060933809727430344
1772573109719463000,3.287462890625,-1.6924021244049072,-1.0590876340866089,-0.07437284290790558
1772573109737304000,3.305303955078125,-1.4230105876922607,-0.7535023093223572,-0.04352414980530739
1772573109755136300,3.32313623046875,-0.9260717034339905,-0.031154127791523933,0.21853704750537872
1772573109772957000,3.34095703125,-0.4977024495601654,0.244804248213768,0.4648684561252594
1772573109790794200,3.358794189453125,-0.6914994716644287,-0.6311765313148499,0.49235737323760986
1772573109808644000,3.37664404296875,-1.0960450172424316,-1.7339409589767456,0.6342308521270752
1772573109826476300,3.394476318359375,-0.9621127843856812,-1.6895005702972412,1.0361801385879517
1772573109844312600,3.4123125,-0.5855143666267395,-0.675616979598999,1.4564554691314697
1772573109862145800,3.430145751953125,-0.2974913716316223,-0.14706580340862274,1.4433218240737915
1772573109879981600,3.447981689453125,-0.05955936014652252,-0.5099197626113892,1.003804326057434
1772573109897804300,3.46580419921875,-0.004428773187100887,-1.4118622541427612,0.3623957931995392
1772573109915653000,3.483653076171875,-0.17867808043956757,-1.4886785745620728,-0.1843285858631134
1772573109933486600,3.501486572265625,-0.24007004499435425,-0.48716503381729126,-0.27091872692108154
1772573109951321600,3.519321533203125,0.2226603776216507,0.6957755088806152,0.17928895354270935
1772573109969157400,3.537157470703125,0.6010913848876953,1.4314099550247192,0.5462662577629089
1772573109986993200,3.5549931640625,0.5158756971359253,0.9004153609275818,0.39965859055519104
1772573110004827400,3.572827392578125,0.08200865983963013,-0.40714168548583984,0.04046982154250145
1772573110022662000,3.590661865234375,-0.17577648162841797,-0.7893906235694885,0.22143864631652832
1772573110040504600,3.608504638671875,0.17821992933750153,-0.6192646622657776,0.3199406862258911
1772573110058334000,3.626333984375,0.5398521423339844,0.168751522898674,0.02580905705690384
1772573110076165000,3.6441650390625,0.4726569950580597,0.32009339332580566,-0.17256943881511688
1772573110094001700,3.662001708984375,0.08414668589830399,-0.3718642294406891,-0.17348572611808777
1772573110111840500,3.679840576171875,-0.3718642294406891,-1.0752755403518677,-0.4381431043148041
1772573110129673700,3.697673828125,-0.5929974317550659,-1.1586586236953735,-0.9312640428543091
1772573110147507500,3.715507568359375,-0.14340060949325562,-0.7817547917366028,-0.8097018599510193
1772573110165342700,3.7333427734375,0.37797287106513977,-0.20357084274291992,-0.28008171916007996
1772573110183177700,3.751177734375,0.6194173693656921,0.2880229651927948,0.31383201479911804
1772573110201014300,3.76901416015625,0.4112650156021118,0.4550946056842804,0.6001750826835632
1772573110218847700,3.78684765625,-0.027641652151942253,0.3923282027244568,0.39706242084503174
1772573110236683300,3.804683349609375,-0.49098294973373413,0.8217664957046509,-0.33368512988090515
1772573110254518500,3.8225185546875,-0.6052147150039673,1.3851369619369507,-0.9668469429016113
1772573110272354000,3.84035400390625,-0.40103304386138916,1.4193453788757324,-0.9668469429016113
1772573110290188800,3.858188720703125,-0.03680463135242462,0.4827362596988678,-0.3029891550540924
1772573110308024600,3.876024658203125,0.18157969415187836,-0.5899431109428406,0.1739438772201538
1772573110325850600,3.8938505859375,0.12339477986097336,-0.7762570381164551,0.35705074667930603
1772573110343700700,3.91170068359375,-0.10659598559141159,-0.2431243658065796,0.41172316670417786
1772573110361528600,3.929528564453125,-0.21502456068992615,0.4841107130050659,0.48426342010498047
1772573110379363600,3.947363525390625,-0.09437867999076843,0.9676105380058289,0.6409503817558289
1772573110397186600,3.9651865234375,0.07116580009460449,1.0276280641555786,0.8177958726882935
1772573110415031800,3.98303173828125,0.21639901399612427,0.6812674403190613,0.940732479095459
1772573110432867800,4.000867919921875,0.16982053220272064,0.11591167747974396,0.9556986689567566
1772573110450704000,4.018703857421875,-0.05390885844826698,-0.17516560852527618,0.7499898076057434
1772573110468539100,4.0365390625,-0.12400564551353455,-0.027488935738801956,0.47311514616012573
1772573110486374400,4.05437451171875,0.16172657907009125,0.08811730891466141,0.47311514616012573
1772573110504209400,4.07220947265625,0.6340781450271606,-0.025961773470044136,0.7924449443817139
1772573110522044400,4.09004443359375,0.8629998564720154,-0.6591235995292664,0.8788823485374451
1772573110539879400,4.10787939453125,0.4395175576210022,-1.5280793905258179,0.3865249752998352
1772573110557714700,4.125714599609375,-0.36071592569351196,-1.2050844430923462,-0.256868839263916
1772573110575549700,4.1435498046875,-0.889267086982727,0.5690209865570068,-0.5267185568809509
1772573110593384700,4.161384765625,-0.8139779567718506,1.8267924785614014,-0.3124575614929199
1772573110611219700,4.1792197265625,-0.38927388191223145,0.9723447561264038,0.30054569244384766
1772573110629055000,4.197054931640625,-0.01114829070866108,-0.45555275678634644,0.9462302923202515
1772573110646890000,4.214889892578125,-0.1459967941045761,-0.7037167549133301,1.0065531730651855
1772573110664724700,4.232724853515625,-0.8203920125961304,-0.11850785464048386,0.11255192011594772
1772573110682560500,4.250560546875,-1.1830933094024658,0.7864890098571777,-0.9891435503959656
1772573110700395000,4.26839501953125,-0.6044511795043945,0.9622654914855957,-1.3625348806381226
1772573110718218200,4.28621826171875,0.34086281061172485,0.32681289315223694,-0.9205739498138428
1772573110736064800,4.304064697265625,0.7550294399261475,-0.6351471543312073,-0.08964447677135468
1772573110753900500,4.321900634765625,0.6249151229858398,-1.6267341375350952,0.5653557777404785
1772573110771735600,4.339735595703125,0.3257438838481903,-1.9721784591674805,0.790154218673706
1772573110789569000,4.357569091796875,-0.027641652151942253,-1.5073100328445435,0.4590652287006378
1772573110807394800,4.375394775390625,-0.3119994103908539,-0.7458664774894714,-0.24785856902599335
1772573110825240600,4.393240478515625,-0.26053401827812195,-0.26343563199043274,-1.0566442012786865
1772573110843075600,4.41107568359375,0.1661553531885147,-0.32039880752563477,-1.532508134841919
1772573110860908500,4.428908447265625,0.48227810859680176,-0.4833471179008484,-1.5789339542388916
1772573110878733600,4.446733642578125,0.28328874707221985,-0.2145664244890213,-1.425148606300354
1772573110896569300,4.4645693359375,-0.16508632898330688,0.17409659922122955,-1.1568260192871094
1772573110914416400,4.48241650390625,-0.4453207552433014,0.3680463135242462,-0.765566885471344
1772573110932251400,4.50025146484375,-0.5209153294563293,0.4109596014022827,-0.3491095006465912
1772573110950086100,4.518086181640625,-0.49617528915405273,0.461355984210968,-0.06872233748435974
1772573110967921700,4.535921630859375,-0.45066583156585693,0.4248567819595337,0.00855211354792118
1772573110985756700,4.553756591796875,-0.48945578932762146,0.16798794269561768,-0.06291911751031876
1772573111003592000,4.571592041015625,-0.4999932050704956,-0.1609629988670349,-0.16752979159355164
1772573111021426700,4.5894267578125,-0.4265366494655609,-0.289244681596756,-0.2617557644844055
1772573111039261700,4.60726171875,-0.28619036078453064,-0.2177734673023224,-0.2574796974658966
1772573111057096700,4.6250966796875,-0.18555031716823578,0.2028072625398636,-0.020005837082862854
1772573111074932500,4.642932373046875,-0.2541199326515198,0.5833762884140015,0.3825543522834778
1772573111092766000,4.660765869140625,-0.3836233615875244,0.6779077053070068,0.7298312783241272
1772573111110603300,4.678603271484375,-0.535881519317627,0.7932085394859314,0.8720101118087769
1772573111128437000,4.69643701171875,-0.6337726712226868,1.1675162315368652,0.7629706859588623
1772573111146272000,4.71427197265625,-0.5812382698059082,1.6462818384170532,0.523511528968811
1772573111164107300,4.732107177734375,-0.3000875413417816,1.8639025688171387,0.33399057388305664
1772573111181942300,4.7499423828125,0.009162978269159794,1.422552466392517,-0.02977968007326126
1772573111199777500,4.767777587890625,-0.04398229718208313,0.26511552929878235,-1.09024178981781
1772573111217612500,4.785612548828125,-0.21868975460529327,0.14019356667995453,-2.275473117828369
1772573111235448000,4.803447998046875,0.009162978269159794,0.2996293902397156,-2.4193317890167236
1772573111253282800,4.82128271484375,0.07895433157682419,-0.2174680233001709,-1.906968593597412
1772573111271118300,4.839118408203125,-0.40882155299186707,-0.6400340795516968,-1.5584700107574463
1772573111288952800,4.856952880859375,-0.9524916410446167,-0.5795583724975586,-1.2695306539535522
1772573111306787800,4.874787841796875,-0.9453139901161194,-0.14385876059532166,-0.7718282341957092
1772573111324622800,4.892622802734375,-0.3065016269683838,0.04092797264456749,-0.17562375962734222
1772573111351376000,4.9193759765625,0.42562034726142883,-0.31413745880126953,0.2275473028421402
1772573111369210400,4.93721044921875,0.4415028691291809,-0.40256020426750183,0.46563202142715454
1772573111387046400,4.95504638671875,0.40882155299186707,-0.2909245789051056,0.8367326855659485
1772573111404880600,4.972880615234375,0.4715879559516907,0.11468994617462158,1.1163562536239624
1772573111425057000,4.99305712890625,0.804051399230957,0.5916230082511902,1.1985175609588623
1772573111442780400,5.010780517578125,0.9468411207199097,0.44226643443107605,1.1273517608642578
1772573111460603000,5.028602783203125,0.7302893996238708,-0.0682641938328743,0.9685268402099609
1772573111478437600,5.046437744140625,0.3156646192073822,-0.7293730974197388,0.7058547735214233
1772573111496279300,5.064279296875,-0.08155050873756409,-1.5092953443527222,0.09208793938159943
1772573111514108700,5.082108642578125,-0.2545780837535858,-2.1175644397735596,-0.82207190990448
1772573111531957500,5.09995751953125,-0.10293079167604446,-1.8771889209747314,-1.6792685985565186
1772573111549791500,5.11779150390625,0.2921462953090668,-1.0983357429504395,-2.1227567195892334
1772573111567626000,5.1356259765625,0.7203628420829773,-0.7099781036376953,-1.9631681442260742
1772573111585461500,5.15346142578125,0.8727737069129944,-0.6534730792045593,-1.3153456449508667
1772573111603296500,5.171296630859375,0.7099781036376953,-0.7290676832199097,-0.5500841736793518
1772573111621130000,5.1891298828125,0.5021312236785889,-0.8439103364944458,0.1797471046447754
1772573111638967800,5.2069677734375,0.17119498550891876,-0.8530732989311218,0.707840085029602
1772573111656801300,5.22480126953125,-0.16982053220272064,-0.8973610401153564,0.9587529897689819
1772573111674636300,5.24263623046875,-0.355981707572937,-0.6704245805740356,1.0462594032287598
1772573111692472000,5.26047216796875,-0.39095374941825867,-0.3572034537792206,1.062294602394104
1772573111710306600,5.278306640625,-0.380721777677536,0.040622539818286896,1.1612548828125
1772573111728137700,5.2961376953125,-0.4170682430267334,0.5827654600143433,1.4020884037017822
1772573111745976800,5.313976806640625,-0.4112650156021118,0.9683741331100464,1.5460999011993408
1772573111763811800,5.331811767578125,-0.3533855378627777,0.9271407127380371,1.5273158550262451
1772573111781646800,5.349646728515625,-0.31123584508895874,0.7165449261665344,1.560760736465454
1772573111799482000,5.367482177734375,-0.22708915174007416,0.7695375084877014,1.8828394412994385
1772573111817317000,5.385317138671875,0.18249599635601044,1.0163270235061646,2.4602596759796143
1772573111835152600,5.403152587890625,0.6731734871864319,0.7250970602035522,2.8687758445739746
1772573111852987600,5.420987548828125,0.9416487812995911,-0.33337971568107605,2.495537281036377
1772573111870822700,5.43882275390625,0.6734789609909058,-1.2415835857391357,1.1983648538589478
1772573111888657400,5.456657470703125,-0.11911872029304504,-2.009746551513672,-0.52702397108078
1772573111906482000,5.47448193359375,-0.5545129179954529,-1.7449365854263306,-1.5815300941467285
1772573111924315100,5.492315185546875,-0.3197879493236542,0.2269364446401596,-1.8274034261703491
1772573111942163200,5.5101630859375,0.2993239760398865,1.928807020187378,-1.5853480100631714
1772573111959997700,5.527997802734375,0.6046038866043091,1.569007396697998,-1.226617455482483
1772573111977833200,5.545833251953125,0.3446807265281677,-0.11621711403131485,-0.8190175890922546
1772573111995668200,5.563668212890625,-0.12828169763088226,-1.6786576509475708,-0.37950003147125244
1772573112013503500,5.58150341796875,-0.5119050741195679,-2.406809091567993,-0.16951510310173035
1772573112031338800,5.5993388671875,-0.4430300295352936,-1.793500304222107,-0.004734205547720194
1772573112049173500,5.617173583984375,0.06261368840932846,-0.5520694851875305,0.04932736977934837
1772573112067008300,5.63500830078125,0.44745880365371704,0.23060162365436554,-0.08811730891466141
1772573112084843800,5.65284375,0.5803219676017761,0.4335615932941437,-0.197004035115242
1772573112102679000,5.670678955078125,0.5450445413589478,-0.24434609711170197,-0.08765916526317596
1772573112120514000,5.68851416015625,0.5496259927749634,-1.131933331489563,0.18814650177955627
1772573112138348800,5.706348876953125,0.5177083015441895,-1.2733485698699951,0.24037547409534454
1772573112156183600,5.72418359375,0.43936482071876526,-0.5754350423812866,-0.014966198243200779
1772573112174019800,5.742019775390625,0.42898011207580566,0.6146831512451172,-0.4732678532600403
1772573112191853300,5.759853271484375,0.304669052362442,1.6418530941009521,-0.9418014883995056
1772573112209690000,5.777690185546875,-0.036193765699863434,1.9201022386550903,-1.2334896326065063
1772573112227524000,5.795524169921875,-0.4697553813457489,1.4315626621246338,-1.2066116333007812
1772573112245359400,5.813359375,-0.8235990405082703,0.6924157738685608,-0.8613200187683105
1772573112263194600,5.831194580078125,-0.8607091307640076,0.12095131725072861,-0.3481931984424591
1772573112281029400,5.849029296875,-0.6322455406188965,-0.11224649101495743,0.12431107461452484
1772573112298864600,5.86686474609375,-0.3452915847301483,-0.08536841720342636,0.41752639412879944
1772573112316700200,5.8847001953125,-0.15913039445877075,0.07391469180583954,0.4992296099662781
1772573112334535000,5.902534912109375,-0.08765916526317596,0.07987063378095627,0.42898011207580566
1772573112352370000,5.920369873046875,-0.055741455405950546,-0.026114489883184433,0.3758348524570465
1772573112370205000,5.938204833984375,-0.07635815441608429,-0.04749477282166481,0.49296826124191284
1772573112388040400,5.95604052734375,-0.16172657907009125,0.04902193695306778,0.764345109462738
1772573112405875700,5.973875732421875,-0.24297164380550385,-0.019089538604021072,1.00502610206604
1772573112423711500,5.99171142578125,-0.2724458873271942,-0.29336804151535034,1.1021536588668823
1772573112441546500,6.00954638671875,-0.2356412708759308,-0.693637490272522,0.9732610583305359
1772573112459380700,6.027380615234375,-0.20295998454093933,-0.9004153609275818,0.6611089110374451
1772573112477216300,6.04521630859375,-0.230448916554451,-0.5977316498756409,0.22159136831760406
1772573112495050800,6.06305078125,-0.1085812970995903,0.2151772826910019,-0.3090978264808655
1772573112512886300,6.08088623046875,0.23167064785957336,0.4082106947898865,-1.0493137836456299
1772573112530721300,6.09872119140625,0.31352660059928894,-0.0503963828086853,-1.6084082126617432
1772573112548556300,6.116556396484375,0.16783522069454193,0.038637228310108185,-1.504408359527588
1772573112566391000,6.13439111328125,-0.036193765699863434,0.389426589012146,-1.0939068794250488
1772573112584226600,6.1522265625,-0.1823432743549347,0.31093040108680725,-0.5914703011512756
1772573112602059000,6.17005908203125,-0.5166392922401428,-0.8071057200431824,0.12278391420841217
1772573112619899000,6.18789892578125,-1.2765556573867798,-1.974927306175232,0.3605632185935974
1772573112637731800,6.20573193359375,-1.6235270500183105,-1.24647057056427,-0.5723807215690613
1772573112655565000,6.22356494140625,-1.2324206829071045,0.33337971568107605,-1.7058411836624146
1772573112673403400,6.2414033203125,-0.4612032473087311,0.8295549750328064,-1.9175059795379639
1772573112691236900,6.25923681640625,0.16890424489974976,0.7243334650993347,-0.9894489645957947
1772573112709072000,6.27707177734375,0.28359419107437134,0.24266621470451355,0.09789115190505981
1772573112726907000,6.294906982421875,0.10201449692249298,-1.1284208297729492,1.0656543970108032
1772573112744742100,6.3127421875,-0.20173825323581696,-2.3994786739349365,1.8996381759643555
1772573112762577700,6.33057763671875,-0.5529857873916626,-2.3347270488739014,1.7033977508544922
1772573112780412200,6.348412109375,-0.4870123267173767,-1.3556627035140991,0.7286095023155212
1772573112798257200,6.366257080078125,0.11301007121801376,0.12110403180122375,-0.29306259751319885
1772573112816082700,6.384082763671875,0.6423248052597046,1.5167783498764038,-1.1259773969650269
1772573112833917700,6.401917724609375,0.8568912148475647,2.6528351306915283,-1.550986886024475
1772573112851753500,6.41975341796875,0.8110763430595398,3.1248812675476074,-1.4017829895019531
1772573112869588000,6.437587890625,0.5190827250480652,2.241722822189331,-0.9683741331100464
1772573112887423200,6.45542333984375,0.40653082728385925,0.8895725011825562,-0.5505422949790955
1772573112905258800,6.4732587890625,0.36453384160995483,0.05772676691412926,-0.28588494658470154
1772573112923093200,6.49109326171875,0.40851613879203796,-0.3407101035118103,-0.05115996301174164
1772573112940928500,6.508928466796875,0.2528982162475586,-0.8008443117141724,0.22708915174007416
1772573112958763800,6.526763671875,-0.14828753471374512,-1.1459832191467285,0.4392121136188507
1772573112976598800,6.544598876953125,-0.5053382515907288,-1.1134545803070068,0.6772968173027039
1772573112994432300,6.562432373046875,-0.7528914213180542,-1.035722017288208,0.9469938278198242
1772573113012270300,6.580270263671875,-1.0514518022537231,-0.5537493228912354,1.2067643404006958
1772573113030104600,6.5981044921875,-1.3435981273651123,0.023060163483023643,1.36482572555542
1772573113047939600,6.615939697265625,-1.2806789875030518,0.4254676401615143,1.372156023979187
1772573113065774000,6.633774169921875,-1.0693196058273315,0.5755877494812012,1.2040153741836548
1772573113083609900,6.65160986328125,-0.9628763198852539,0.542142927646637,1.0261008739471436
1772573113101443800,6.66944384765625,-1.0560332536697388,0.22418753802776337,0.813825249671936
1772573113119279900,6.68727978515625,-1.0545061826705933,0.11636982858181,0.6155994534492493
1772573113137114400,6.7051142578125,-0.5618433356285095,0.528245747089386,0.4486805200576782
1772573113154950000,6.722949951171875,-0.07941248267889023,0.13958270847797394,-0.03298672288656235
1772573113172785200,6.74078515625,-0.2620611786842346,-2.1620047092437744,-0.9860892295837402
1772573113190620200,6.7586201171875,-0.5546656250953674,-2.914438009262085,-1.5632041692733765
1772573113208455000,6.776454833984375,-0.5442809462547302,-1.2568552494049072,-1.688889741897583
1772573113226288400,6.794288330078125,-0.3084869384765625,0.5453499555587769,-1.0378600358963013
1772573113244125200,6.812125244140625,-0.26633724570274353,0.2168571650981903,0.08888089656829834
1772573113261948400,6.829948486328125,-0.408974289894104,-1.1033753156661987,0.8168795704841614
1772573113279795500,6.84779541015625,-0.5681046843528748,-1.1690434217453003,0.8078693151473999
1772573113297624600,6.86562451171875,-0.764955997467041,-0.48288896679878235,0.517861008644104
1772573113315466000,6.883466064453125,-0.7518224120140076,-0.31459560990333557,0.1592831164598465
1772573113333301000,6.901301025390625,-0.1267545372247696,0.4492913782596588,-0.13668109476566315
1772573113351136000,6.919135986328125,0.4360050559043884,0.7170031070709229,-0.2993239760398865
1772573113368971000,6.936970947265625,0.4964807331562042,-0.6747006773948669,-0.02474004216492176
1772573113386805500,6.954805419921875,0.25473082065582275,-2.2792909145355225,0.4225660264492035
1772573113404642600,6.972642578125,-0.18646661937236786,-1.3904820680618286,0.5155702829360962
1772573113422476500,6.9904765625,-0.5623014569282532,1.220050573348999,0.4008803069591522
1772573113440311800,7.008311767578125,-0.5455026626586914,2.1652119159698486,0.4786129295825958
1772573113458141700,7.0261416015625,-0.09178250283002853,0.793361246585846,0.8775079250335693
1772573113475981600,7.043981689453125,0.1160643994808197,-1.6675094366073608,1.0755809545516968
1772573113493805300,7.061805419921875,-0.2970332205295563,-3.363576650619507,0.9935722947120667
1772573113511640600,7.079640625,-0.688903272151947,-3.054173469543457,0.33246341347694397
1772573113529476900,7.097476806640625,-0.7498371005058289,-1.6120734214782715,-0.6186537742614746
1772573113547323000,7.115322998046875,-0.48456886410713196,0.31902438402175903,-1.599703311920166
1772573113565157000,7.1331572265625,-0.23151792585849762,2.0419697761535645,-2.02929425239563
1772573113582992100,7.1509921875,-0.1385136991739273,2.640770435333252,-1.757153868675232
1772573113600827400,7.168827392578125,-0.18600846827030182,1.7116444110870361,-1.1301007270812988
1772573113618662400,7.186662353515625,-0.13041973114013672,0.5845980644226074,-0.4737260043621063
1772573113636498000,7.204497802734375,-0.07131851464509964,0.19685132801532745,0.01863138936460018
1772573113654330000,7.222330078125,0.12889257073402405,0.11010845750570297,0.1892155110836029
1772573113672168000,7.24016796875,0.26282477378845215,0.555429220199585,0.1892155110836029
1772573113690003000,7.2580029296875,0.20143280923366547,1.3513866662979126,0.16661348938941956
1772573113707838500,7.27583837890625,0.1440114825963974,1.8970420360565186,0.3061962127685547
1772573113725659000,7.293658935546875,0.12339477986097336,1.7592918872833252,0.6620252132415771
1772573113743508500,7.311508544921875,0.1492038369178772,1.3894129991531372,1.2173017263412476
1772573113761331200,7.329331298828125,0.03787364438176155,1.1725558042526245,1.7146987915039062
1772573113779178200,7.34717822265625,-0.18020524084568024,1.0836749076843262,1.9921842813491821
1772573113797014000,7.365013916015625,-0.3523165285587311,0.7339546084403992,2.0586159229278564
1772573113814848500,7.3828486328125,-0.3234531581401825,0.37110063433647156,1.9995146989822388
1772573113832684300,7.400684326171875,-0.2770273983478546,0.3723223805427551,1.6409367322921753
1772573113850518500,7.4185185546875,-0.2698497176170349,0.22571471333503723,0.8643743395805359
1772573113868354300,7.436354248046875,-0.11133018881082535,-0.10735956579446793,-0.025503624230623245
1772573113886189600,7.454189453125,0.49006664752960205,0.004886921960860491,-0.5468770861625671
1772573113904024800,7.47202490234375,0.9980010986328125,0.4291328489780426,-0.7852672934532166
1772573113921858000,7.489858154296875,0.9008735418319702,1.1844676733016968,-1.4123204946517944
1772573113939695900,7.50769580078125,0.7199047207832336,0.7029531598091125,-2.283566951751709
1772573113957528800,7.52552880859375,0.7246388792991638,-0.2799290120601654,-2.464535713195801
1772573113975365600,7.54336572265625,1.0125091075897217,-1.0163270235061646,-2.2799017429351807
1772573113993198300,7.5611982421875,1.411251425743103,-1.5022703409194946,-2.032501459121704
1772573114011024000,7.57902392578125,1.4520267248153687,-1.0543533563613892,-0.944855809211731
1772573114028857300,7.596857421875,1.1951578855514526,-0.3243694305419922,0.483957976102829
1772573114046694400,7.6146943359375,0.6901249885559082,-0.01160643994808197,0.7932085394859314
1772573114064540000,7.632539794921875,0.5737552046775818,-0.7999280095100403,0.32391130924224854
1772573114082375400,7.65037548828125,0.7953465580940247,-2.428647518157959,0.47311514616012573
1772573114100210400,7.66821044921875,0.4821254014968872,-2.9796478748321533,1.0099129676818848
1772573114118045700,7.686045654296875,0.0013744467869400978,-2.052507162094116,0.9230173826217651
1772573114135880400,7.70388037109375,-0.2718350291252136,-0.793666660785675,0.6294966340065002
1772573114153715500,7.721715576171875,-0.2197587788105011,-0.2996293902397156,0.750142514705658
1772573114171551700,7.7395517578125,-0.03176499158143997,-0.9593638777732849,1.170875906944275
1772573114189386200,7.75738623046875,-0.16508632898330688,-1.735010027885437,1.3335188627243042
1772573114207221000,7.775220947265625,-0.3550654351711273,-1.7165313959121704,0.8915578126907349
1772573114225056300,7.79305615234375,-0.19058994948863983,-1.3048081398010254,0.14065171778202057
1772573114242891300,7.810891357421875,0.24633140861988068,-0.6855435371398926,-0.4726569950580597
1772573114260726500,7.8287265625,0.30970868468284607,0.6398813724517822,-0.6983717083930969
1772573114278549200,7.84654931640625,0.01237002108246088,1.7050776481628418,-0.41920626163482666
1772573114296396500,7.864396484375,-0.4607451260089874,1.726763367652893,0.4184426963329315
1772573114314232000,7.882232177734375,-0.988379955291748,0.5128213763237,1.208902359008789
1772573114332067000,7.900067138671875,-1.2820534706115723,-0.7863363027572632,1.407128095626831
1772573114349901800,7.91790185546875,-1.32863187789917,-1.253800868988037,1.1293370723724365
1772573114367736800,7.93573681640625,-1.203251838684082,-0.5742133259773254,0.7579310536384583
1772573114385572000,7.953572021484375,-0.8620835542678833,0.7305948138237,0.5798638463020325
1772573114403407000,7.971406982421875,-0.4769330322742462,1.5323554277420044,0.5293147563934326
1772573114421240800,7.98924072265625,-0.19043724238872528,1.858099341392517,0.4050036668777466
1772573114439078700,8.00707861328125,0.018325956538319588,1.9860756397247314,0.3491095006465912
1772573114456912400,8.024912353515624,-0.10552696883678436,2.1676552295684814,0.8397870063781738
1772573114474748000,8.042747802734375,-0.3943135142326355,1.2530373334884644,1.0974193811416626
1772573114492582700,8.060582763671874,-0.29336804151535034,0.098502017557621,0.9077457785606384
1772573114510417700,8.078417724609375,0.041233405470848083,-0.49205195903778076,0.8225300312042236
1772573114528253000,8.0962529296875,0.08491026610136032,-1.0532844066619873,0.44837507605552673
