time,seconds_elapsed,z,y,x
1772537107194497500,0.06649755859375,-0.8355560302734375,-0.1326904296875,0.16815185546875
1772537107204546800,0.076546875,-0.8059234619140625,-0.1357574462890625,0.1373291015625
1772537107214594600,0.086594482421875,-0.7602691650390625,-0.13934326171875,0.1077423095703125
1772537107224642800,0.096642822265625,-0.7421875,-0.140289306640625,0.1131134033203125
1772537107234691600,0.106691650390625,-0.7212677001953125,-0.141876220703125,0.123443603515625
1772537107244739600,0.116739501953125,-0.6929779052734375,-0.1274871826171875,0.0985107421875
1772537107254787600,0.12678759765625,-0.669952392578125,-0.086883544921875,0.0517425537109375
1772537107264836600,0.136836669921875,-0.6600799560546875,-0.062530517578125,0.0350341796875
1772537107274884600,0.146884521484375,-0.62164306640625,-0.0915069580078125,0.0496673583984375
1772537107284932600,0.1569326171875,-0.6309356689453125,-0.1247100830078125,0.05596923828125
1772537107294981600,0.166981689453125,-0.6461181640625,-0.1416015625,0.070281982421875
1772537107305029600,0.177029541015625,-0.6989593505859375,-0.1529083251953125,0.0782012939453125
1772537107315078700,0.18707861328125,-0.7102508544921875,-0.1427764892578125,0.1673583984375
1772537107325126700,0.197126708984375,-0.6918182373046875,-0.137054443359375,0.1791839599609375
1772537107335174700,0.207174560546875,-0.689208984375,-0.17388916015625,0.09613037109375
1772537107345223700,0.2172236328125,-0.6970367431640625,-0.2325439453125,0.037994384765625
1772537107355271700,0.227271728515625,-0.776885986328125,-0.2531585693359375,0.0590057373046875
1772537107365319700,0.237319580078125,-0.8220062255859375,-0.3408966064453125,0.207244873046875
1772537107375368700,0.24736865234375,-0.867156982421875,-0.2320709228515625,0.1976165771484375
1772537107385416700,0.257416748046875,-0.9062347412109375,-0.2424468994140625,0.2306671142578125
1772537107395464700,0.267464599609375,-0.8650970458984375,-0.3832855224609375,0.293060302734375
1772537107405513700,0.277513671875,-1.1329193115234375,-0.3348236083984375,0.2130889892578125
1772537107415561700,0.287561767578125,-1.289520263671875,-0.33819580078125,0.1041259765625
1772537107425609500,0.297609375,-1.41455078125,-0.4190521240234375,0.070465087890625
1772537107435658800,0.30765869140625,-1.5929412841796875,-0.456207275390625,0.090301513671875
1772537107445706500,0.31770654296875,-1.686767578125,-0.50433349609375,0.1648406982421875
1772537107455755800,0.327755859375,-1.7731475830078125,-0.6037445068359375,0.2082366943359375
1772537107465803500,0.337803466796875,-1.8123321533203125,-0.6893157958984375,0.131591796875
1772537107475851500,0.3478515625,-1.85760498046875,-0.706329345703125,0.0510406494140625
1772537107485900500,0.357900634765625,-1.925323486328125,-0.7274627685546875,0.0412139892578125
1772537107495948500,0.367948486328125,-2.030487060546875,-0.728118896484375,0.0214080810546875
1772537107505996800,0.377996826171875,-2.1530609130859375,-0.6904296875,0.01727294921875
1772537107516045600,0.388045654296875,-2.2367095947265625,-0.670257568359375,-0.015869140625
1772537107526093800,0.39809375,-2.3082275390625,-0.6093902587890625,-0.043426513671875
1772537107536141600,0.4081416015625,-2.291412353515625,-0.5336761474609375,0.0070343017578125
1772537107546190800,0.41819091796875,-2.258697509765625,-0.454803466796875,0.0942230224609375
1772537107556238600,0.428238525390625,-2.1485443115234375,-0.361236572265625,0.1909332275390625
1772537107566286600,0.43828662109375,-1.996673583984375,-0.280029296875,0.2565460205078125
1772537107576335600,0.448335693359375,-1.8629150390625,-0.1906280517578125,0.310455322265625
1772537107586383600,0.458383544921875,-1.7048187255859375,-0.1353912353515625,0.321044921875
1772537107596431600,0.468431640625,-1.521728515625,-0.07696533203125,0.342376708984375
1772537107606480600,0.478480712890625,-1.303924560546875,-0.0260772705078125,0.3501129150390625
1772537107616528600,0.488528564453125,-1.0733489990234375,0.024444580078125,0.3218994140625
1772537107626576600,0.49857666015625,-0.870025634765625,0.081634521484375,0.3209686279296875
1772537107636625700,0.508625732421875,-0.671844482421875,0.1180267333984375,0.2767333984375
1772537107646673700,0.518673583984375,-0.4812469482421875,0.126007080078125,0.1892242431640625
1772537107656722400,0.528722412109375,-0.32476806640625,0.1214599609375,0.1351318359375
1772537107666770700,0.538770751953125,-0.1886749267578125,0.1141204833984375,0.0826568603515625
1772537107676818700,0.548818603515625,-0.09429931640625,0.0968017578125,0.013946533203125
1772537107686867700,0.55886767578125,-0.0101470947265625,0.065460205078125,-0.0643768310546875
1772537107696915700,0.568915771484375,0.0011444091796875,0.06121826171875,-0.1035308837890625
1772537107706963500,0.57896337890625,0.0111236572265625,0.0364227294921875,-0.091827392578125
1772537107717012700,0.5890126953125,0.023834228515625,-0.0002593994140625,-0.0793609619140625
1772537107727060500,0.599060546875,-0.0100860595703125,-0.006988525390625,-0.0335693359375
1772537107737108700,0.609108642578125,0.004669189453125,0.0050506591796875,0.003875732421875
1772537107747157500,0.619157470703125,0.03424072265625,0.003448486328125,0.00958251953125
1772537107757205800,0.629205810546875,0.04998779296875,0.0140380859375,0.000091552734375
1772537107767254500,0.639254638671875,0.0860595703125,0.035552978515625,-0.01519775390625
1772537107777302800,0.649302734375,0.0814666748046875,0.026885986328125,-0.01214599609375
1772537107787350500,0.6593505859375,0.04803466796875,0.0088958740234375,0.004425048828125
1772537107797399800,0.66939990234375,0.0147247314453125,-0.0211181640625,0.000946044921875
1772537107807447600,0.679447509765625,-0.024505615234375,-0.0620574951171875,-0.0096282958984375
1772537107817495600,0.68949560546875,-0.0613555908203125,-0.1016693115234375,-0.04071044921875
1772537107827544600,0.699544677734375,-0.0993194580078125,-0.1189422607421875,-0.0592498779296875
1772537107837592600,0.709592529296875,-0.116180419921875,-0.1232147216796875,-0.067413330078125
1772537107847640800,0.719640869140625,-0.1561126708984375,-0.114410400390625,-0.068267822265625
1772537107857689600,0.729689697265625,-0.212127685546875,-0.097381591796875,-0.0712127685546875
1772537107867737600,0.739737548828125,-0.25909423828125,-0.0939788818359375,-0.076751708984375
1772537107877785600,0.74978564453125,-0.29473876953125,-0.1041259765625,-0.0472869873046875
1772537107887834600,0.759834716796875,-0.360107421875,-0.1282806396484375,0.013427734375
1772537107897882600,0.769882568359375,-0.4850921630859375,-0.16571044921875,0.119598388671875
1772537107907930600,0.7799306640625,-0.6569976806640625,-0.1768798828125,0.234039306640625
1772537107917979600,0.789979736328125,-0.8035888671875,-0.1980438232421875,0.2849578857421875
1772537107928027600,0.800027587890625,-0.9261627197265625,-0.2343902587890625,0.21917724609375
1772537107938075600,0.81007568359375,-1.0270843505859375,-0.2115325927734375,0.0825347900390625
1772537107948124700,0.820124755859375,-1.172454833984375,-0.022430419921875,-0.02301025390625
1772537107958172700,0.830172607421875,-1.2808837890625,-0.0385894775390625,-0.09503173828125
1772537107968221700,0.8402216796875,-1.5070343017578125,-0.18328857421875,0.0276336669921875
1772537107978269700,0.850269775390625,-1.741668701171875,-0.3415679931640625,0.215911865234375
1772537107988317700,0.860317626953125,-1.9568328857421875,-0.5118255615234375,0.2684783935546875
1772537107998366700,0.87036669921875,-2.1350860595703125,-0.621917724609375,0.2423553466796875
1772537108008414700,0.880414794921875,-2.3163909912109375,-0.615264892578125,0.2722320556640625
1772537108018462700,0.890462646484375,-2.501495361328125,-0.553680419921875,0.223388671875
1772537108028511700,0.90051171875,-2.64019775390625,-0.55889892578125,0.1254730224609375
1772537108038559700,0.910559814453125,-2.724395751953125,-0.5964202880859375,0.0577392578125
1772537108048607500,0.920607421875,-2.7053985595703125,-0.572113037109375,-0.00653076171875
1772537108058656800,0.93065673828125,-2.69659423828125,-0.5000457763671875,-0.0238494873046875
1772537108068704500,0.94070458984375,-2.6825714111328125,-0.4095001220703125,0.033905029296875
1772537108078752500,0.95075244140625,-2.6056671142578125,-0.3455810546875,0.0855865478515625
1772537108088801500,0.960801513671875,-2.5054779052734375,-0.2706146240234375,0.117645263671875
1772537108098849500,0.970849609375,-2.3618621826171875,-0.1726531982421875,0.1472015380859375
1772537108108898600,0.980898681640625,-2.196533203125,-0.08154296875,0.16217041015625
1772537108118946600,0.990946533203125,-1.9911956787109375,-0.0204620361328125,0.17474365234375
1772537108128994800,1.000994873046875,-1.7731781005859375,-0.011932373046875,0.177947998046875
1772537108139043600,1.011043701171875,-1.551849365234375,-0.012786865234375,0.1691436767578125
1772537108149091800,1.021091796875,-1.32330322265625,0.0193023681640625,0.1768646240234375
1772537108159139600,1.0311396484375,-1.0778350830078125,0.057281494140625,0.1829681396484375
1772537108169188600,1.041188720703125,-0.8398895263671875,0.1004486083984375,0.17010498046875
1772537108179236600,1.051236572265625,-0.6104583740234375,0.1497344970703125,0.134033203125
1772537108189284600,1.06128466796875,-0.4334716796875,0.18914794921875,0.0895233154296875
1772537108199333600,1.071333740234375,-0.2950286865234375,0.1744537353515625,0.0318450927734375
1772537108209381600,1.081381591796875,-0.1689453125,0.1197662353515625,-0.03118896484375
1772537108219429400,1.091429443359375,-0.0654296875,0.0823822021484375,-0.032684326171875
1772537108229478700,1.101478759765625,0.006072998046875,0.074676513671875,0.0104522705078125
1772537108239526400,1.1115263671875,0.0934295654296875,0.0959320068359375,0.0400543212890625
1772537108249575700,1.12157568359375,0.1976470947265625,0.1048431396484375,0.0443267822265625
1772537108259623400,1.13162353515625,0.252777099609375,0.1047210693359375,0.0725250244140625
1772537108269671700,1.141671630859375,0.2794952392578125,0.1036529541015625,0.081939697265625
1772537108279720400,1.151720458984375,0.2505035400390625,0.0994873046875,0.07867431640625
1772537108289768700,1.161768798828125,0.21258544921875,0.077667236328125,0.0799713134765625
1772537108299816700,1.171816650390625,0.196136474609375,0.03375244140625,0.0703887939453125
1772537108309865700,1.18186572265625,0.176025390625,0.0191650390625,0.0352783203125
1772537108319913700,1.191913818359375,0.152130126953125,-0.0073699951171875,0.009857177734375
1772537108329961500,1.20196142578125,0.096099853515625,-0.042816162109375,-0.0272369384765625
1772537108340010800,1.2120107421875,0.0294342041015625,-0.06146240234375,-0.07098388671875
1772537108350058500,1.22205859375,-0.0516510009765625,-0.10455322265625,-0.083831787109375
1772537108360106800,1.232106689453125,-0.144378662109375,-0.15386962890625,-0.1171417236328125
1772537108370155500,1.242155517578125,-0.1895599365234375,-0.1886444091796875,-0.17169189453125
1772537108380203800,1.252203857421875,-0.245147705078125,-0.22320556640625,-0.197509765625
1772537108390251500,1.26225146484375,-0.3335113525390625,-0.2678680419921875,-0.1692047119140625
1772537108400300500,1.272300537109375,-0.4870452880859375,-0.3024139404296875,-0.0479736328125
1772537108410348500,1.2823486328125,-0.6838531494140625,-0.33477783203125,0.153961181640625
1772537108420396500,1.292396484375,-0.91851806640625,-0.3916473388671875,0.3047637939453125
1772537108430445600,1.302445556640625,-1.1292572021484375,-0.404876708984375,0.3417816162109375
1772537108440493600,1.31249365234375,-1.176513671875,-0.4019012451171875,0.2316741943359375
1772537108450542600,1.32254248046875,-1.3415374755859375,-0.341461181640625,0.071380615234375
1772537108460590600,1.332590576171875,-1.4026031494140625,-0.386474609375,-0.0193939208984375
1772537108470638600,1.342638671875,-1.5628509521484375,-0.455291748046875,-0.0339813232421875
1772537108480687600,1.3526875,-1.686187744140625,-0.630767822265625,0.1317291259765625
1772537108490735600,1.362735595703125,-1.8863372802734375,-0.85931396484375,0.2910003662109375
1772537108500783600,1.37278369140625,-2.104217529296875,-1.0588531494140625,0.281005859375
1772537108510832600,1.38283251953125,-2.2881622314453125,-1.2062835693359375,0.1846923828125
1772537108520880600,1.392880615234375,-2.423248291015625,-1.1921234130859375,0.12860107421875
1772537108530928600,1.4029287109375,-2.5115509033203125,-1.1107177734375,0.0841827392578125
1772537108540977700,1.412977783203125,-2.5406646728515625,-1.1072540283203125,0.0794219970703125
1772537108551025700,1.423025634765625,-2.5468292236328125,-1.103057861328125,0.1278228759765625
1772537108561073700,1.43307373046875,-2.5316162109375,-1.06744384765625,0.1199493408203125
1772537108571122700,1.443122802734375,-2.4604034423828125,-0.9625091552734375,0.0498809814453125
1772537108581170400,1.45317041015625,-2.28497314453125,-0.7910308837890625,-0.0032501220703125
1772537108591219700,1.4632197265625,-2.0726165771484375,-0.65350341796875,0.0109710693359375
1772537108601267500,1.473267333984375,-1.8122100830078125,-0.503662109375,0.0427093505859375
1772537108611315700,1.483315673828125,-1.531524658203125,-0.43524169921875,0.072357177734375
1772537108621364500,1.493364501953125,-1.292633056640625,-0.336639404296875,0.1037750244140625
1772537108631412500,1.50341259765625,-1.062103271484375,-0.222137451171875,0.1256866455078125
1772537108641460700,1.513460693359375,-0.860931396484375,-0.126800537109375,0.1240692138671875
1772537108651509500,1.523509521484375,-0.672515869140625,-0.00445556640625,0.0930328369140625
1772537108661557800,1.533557861328125,-0.4980316162109375,0.1009368896484375,0.0731964111328125
1772537108671605500,1.54360546875,-0.34283447265625,0.150787353515625,0.035980224609375
1772537108681654800,1.55365478515625,-0.2186126708984375,0.16571044921875,0.0047607421875
1772537108691702500,1.56370263671875,-0.13104248046875,0.1553955078125,-0.0232696533203125
1772537108701750500,1.57375048828125,-0.0478057861328125,0.1386566162109375,-0.051666259765625
1772537108711799600,1.583799560546875,0.0523834228515625,0.1153564453125,-0.058868408203125
1772537108721847600,1.59384765625,0.1424713134765625,0.0781097412109375,-0.0377960205078125
1772537108731895800,1.603895751953125,0.2169189453125,0.0433197021484375,-0.0042724609375
1772537108741944600,1.613944580078125,0.2596435546875,0.0072479248046875,0.0388641357421875
1772537108751992600,1.62399267578125,0.296630859375,0.0178985595703125,0.076171875
1772537108762041600,1.63404150390625,0.3068389892578125,0.0400848388671875,0.1104736328125
1772537108772089600,1.644089599609375,0.2914581298828125,0.0570220947265625,0.1453399658203125
1772537108782137600,1.6541376953125,0.24884033203125,0.0669403076171875,0.15521240234375
1772537108792185600,1.664185546875,0.2017059326171875,0.0526580810546875,0.142608642578125
1772537108802234600,1.674234619140625,0.1241455078125,0.041046142578125,0.1112060546875
1772537108812282600,1.68428271484375,0.08740234375,0.01959228515625,0.07696533203125
1772537108822331600,1.69433154296875,0.024200439453125,-0.0140838623046875,0.02923583984375
1772537108832379600,1.704379638671875,-0.080047607421875,-0.0656890869140625,0.005859375
1772537108842427400,1.714427490234375,-0.163177490234375,-0.1219482421875,-0.01361083984375
1772537108852476700,1.7244765625,-0.2441864013671875,-0.1330413818359375,-0.0443115234375
1772537108862524400,1.7345244140625,-0.3548126220703125,-0.13653564453125,-0.066131591796875
1772537108872572700,1.74457275390625,-0.5233306884765625,-0.1829833984375,-0.066436767578125
1772537108882621400,1.754621337890625,-0.681884765625,-0.293548583984375,-0.0202789306640625
1772537108892669700,1.764669677734375,-0.7982940673828125,-0.4343109130859375,0.0304718017578125
1772537108902717700,1.7747177734375,-0.9251708984375,-0.580810546875,0.094207763671875
1772537108912766700,1.7847666015625,-1.1025238037109375,-0.674560546875,0.1263275146484375
1772537108922814700,1.794814697265625,-1.2903594970703125,-0.6764984130859375,0.0769195556640625
1772537108932862500,1.804862548828125,-1.4317626953125,-0.625732421875,-0.041046142578125
1772537108942911700,1.814911865234375,-1.4950103759765625,-0.568756103515625,-0.134246826171875
1772537108952959500,1.82495947265625,-1.5592498779296875,-0.554168701171875,0.0174713134765625
1772537108963008800,1.8350087890625,-1.7047119140625,-0.7065582275390625,0.1960906982421875
1772537108973056500,1.845056396484375,-1.9243927001953125,-0.981903076171875,0.2876739501953125
1772537108983104800,1.855104736328125,-2.1070404052734375,-1.18145751953125,0.3172149658203125
1772537108993153500,1.865153564453125,-2.2535858154296875,-1.2081451416015625,0.356536865234375
1772537109003201800,1.875201904296875,-2.36328125,-1.132415771484375,0.3723297119140625
1772537109013249500,1.88524951171875,-2.406768798828125,-1.0533294677734375,0.315032958984375
1772537109023298600,1.895298583984375,-2.50604248046875,-0.972198486328125,0.256134033203125
1772537109033346600,1.9053466796875,-2.582550048828125,-0.9001617431640625,0.158172607421875
1772537109043394300,1.915394287109375,-2.603363037109375,-0.799713134765625,0.0442657470703125
1772537109053443000,1.925443115234375,-2.538360595703125,-0.677642822265625,-0.02044677734375
1772537109063491300,1.9354912109375,-2.3657073974609375,-0.568695068359375,-0.056182861328125
1772537109073539300,1.945539306640625,-2.1595458984375,-0.5147552490234375,-0.05816650390625
1772537109083588000,1.955588134765625,-1.935821533203125,-0.4652557373046875,-0.050048828125
1772537109093636400,1.96563623046875,-1.7023468017578125,-0.38909912109375,-0.043243408203125
1772537109103684000,1.97568408203125,-1.4508819580078125,-0.3183441162109375,-0.021514892578125
1772537109113733400,1.9857333984375,-1.2254791259765625,-0.2637176513671875,-0.00152587890625
1772537109123781000,1.995781005859375,-1.014495849609375,-0.196990966796875,0.0343017578125
1772537109133829000,2.0058291015625,-0.8010406494140625,-0.123504638671875,0.061614990234375
1772537109143878100,2.015878173828125,-0.5924835205078125,-0.0611114501953125,0.0500640869140625
1772537109153926100,2.025926025390625,-0.4155120849609375,0.0070953369140625,0.009765625
1772537109163975200,2.03597509765625,-0.2622222900390625,0.0863800048828125,-0.03662109375
1772537109174023200,2.046023193359375,-0.118408203125,0.1552581787109375,-0.0659027099609375
1772537109184071400,2.056071533203125,0.009063720703125,0.18048095703125,-0.052093505859375
1772537109194120200,2.0661201171875,0.1021270751953125,0.1636962890625,-0.0106048583984375
1772537109204168200,2.076168212890625,0.1968231201171875,0.157623291015625,0.037933349609375
1772537109214216200,2.08621630859375,0.2618408203125,0.1433563232421875,0.0835723876953125
1772537109224265200,2.09626513671875,0.2938232421875,0.103973388671875,0.12249755859375
1772537109234313200,2.106313232421875,0.329498291015625,0.0700531005859375,0.1338653564453125
1772537109244361200,2.116361328125,0.3596038818359375,0.086090087890625,0.1414794921875
1772537109254410200,2.12641015625,0.3529815673828125,0.109954833984375,0.131378173828125
1772537109264458200,2.136458251953125,0.3342437744140625,0.0843658447265625,0.1304168701171875
1772537109274506200,2.14650634765625,0.30804443359375,0.036895751953125,0.1146697998046875
1772537109284555300,2.15655517578125,0.25701904296875,0.0084228515625,0.0827789306640625
1772537109294603300,2.166603271484375,0.1696319580078125,-0.023895263671875,0.0345306396484375
1772537109304651300,2.1766513671875,0.095672607421875,-0.080657958984375,-0.022216796875
1772537109314700000,2.186699951171875,0.0243072509765625,-0.1191253662109375,-0.096099853515625
1772537109324748300,2.196748291015625,-0.0726165771484375,-0.1600341796875,-0.14202880859375
1772537109334797000,2.206797119140625,-0.2022552490234375,-0.2659454345703125,-0.1028594970703125
1772537109344845300,2.21684521484375,-0.412384033203125,-0.4390869140625,0.0204925537109375
1772537109354893300,2.226893310546875,-0.7147674560546875,-0.648284912109375,0.1838836669921875
1772537109364942300,2.2369423828125,-1.017822265625,-0.7715301513671875,0.2685089111328125
1772537109374990300,2.246990234375,-1.252349853515625,-0.676971435546875,0.2153778076171875
1772537109385038000,2.2570380859375,-1.4156646728515625,-0.5616607666015625,0.10052490234375
1772537109395087400,2.26708740234375,-1.5772705078125,-0.52545166015625,-0.035491943359375
1772537109405135000,2.277135009765625,-1.7241058349609375,-0.4484100341796875,-0.084503173828125
1772537109415183400,2.287183349609375,-1.855010986328125,-0.36260986328125,0.0507049560546875
1772537109425232100,2.297232177734375,-1.9775543212890625,-0.5254669189453125,0.228546142578125
1772537109435280400,2.3072802734375,-2.118560791015625,-0.90228271484375,0.1828460693359375
1772537109445328100,2.317328125,-2.2697906494140625,-1.221282958984375,0.0616912841796875
1772537109455377400,2.32737744140625,-2.391448974609375,-1.326324462890625,0.0184478759765625
1772537109465425200,2.337425048828125,-2.390167236328125,-1.3365631103515625,0.027801513671875
1772537109475474200,2.34747412109375,-2.3107147216796875,-1.3301849365234375,0.014312744140625
1772537109485522200,2.357522216796875,-2.2734222412109375,-1.3860015869140625,-0.0067901611328125
1772537109495570200,2.367570068359375,-2.2703704833984375,-1.385986328125,-0.0343170166015625
1772537109505619200,2.377619140625,-2.1583404541015625,-1.218780517578125,-0.098846435546875
1772537109515667200,2.387667236328125,-2.03826904296875,-1.0010833740234375,-0.1218109130859375
1772537109525715500,2.397715576171875,-1.9724578857421875,-0.8078155517578125,-0.0742645263671875
1772537109535764200,2.40776416015625,-1.761749267578125,-0.604888916015625,-0.028289794921875
1772537109545812200,2.417812255859375,-1.5605926513671875,-0.4461669921875,0.0207061767578125
1772537109555860200,2.427860107421875,-1.40228271484375,-0.3021087646484375,0.06781005859375
1772537109565909200,2.4379091796875,-1.20147705078125,-0.1773223876953125,0.090667724609375
1772537109575957200,2.447957275390625,-0.99072265625,-0.1053314208984375,0.1052093505859375
1772537109586005200,2.458005126953125,-0.7783203125,-0.0406036376953125,0.116302490234375
1772537109596054300,2.46805419921875,-0.5652008056640625,0.01458740234375,0.12554931640625
1772537109606102300,2.478102294921875,-0.3650970458984375,0.0558929443359375,0.1279144287109375
1772537109616150000,2.48814990234375,-0.194976806640625,0.0716094970703125,0.13226318359375
1772537109626199300,2.49819921875,-0.0595703125,0.0544891357421875,0.1370391845703125
1772537109636247000,2.5082470703125,0.0764617919921875,0.020660400390625,0.1204833984375
1772537109646295300,2.51829541015625,0.2034454345703125,-0.000885009765625,0.086944580078125
1772537109656344000,2.528343994140625,0.269439697265625,0.0155181884765625,0.07183837890625
1772537109666392300,2.538392333984375,0.2926025390625,0.0353546142578125,0.061981201171875
1772537109676441000,2.548441162109375,0.313262939453125,0.0691070556640625,0.0394134521484375
1772537109686489300,2.5584892578125,0.314849853515625,0.0799713134765625,0.030364990234375
1772537109696537300,2.568537353515625,0.273590087890625,0.0561370849609375,0.025177001953125
1772537109706586000,2.578586181640625,0.2205657958984375,0.031951904296875,0.017181396484375
1772537109716634400,2.58863427734375,0.183990478515625,0.0225372314453125,0.00762939453125
1772537109726682000,2.59868212890625,0.1404266357421875,0.0205535888671875,-0.0219268798828125
1772537109736731400,2.6087314453125,0.0923309326171875,0.001800537109375,-0.05963134765625
1772537109746779100,2.618779052734375,0.025360107421875,-0.042816162109375,-0.0900421142578125
1772537109756827100,2.6288271484375,-0.0670166015625,-0.080413818359375,-0.1170196533203125
1772537109766876200,2.638876220703125,-0.170135498046875,-0.1078033447265625,-0.1525726318359375
1772537109776924200,2.648924072265625,-0.2739410400390625,-0.143707275390625,-0.1728515625
1772537109786972200,2.65897216796875,-0.353668212890625,-0.1971893310546875,-0.14453125
1772537109797021200,2.669021240234375,-0.4403839111328125,-0.2628173828125,-0.041534423828125
1772537109807069200,2.679069091796875,-0.5948333740234375,-0.3501739501953125,0.1138916015625
1772537109817117200,2.6891171875,-0.7681732177734375,-0.456695556640625,0.2823638916015625
1772537109827166200,2.699166259765625,-0.988372802734375,-0.543670654296875,0.407470703125
1772537109837214200,2.709214111328125,-1.2382659912109375,-0.6209259033203125,0.4808807373046875
1772537109847262200,2.71926220703125,-1.518035888671875,-0.65618896484375,0.4276275634765625
1772537109857311200,2.729311279296875,-1.7070770263671875,-0.620513916015625,0.2725067138671875
1772537109867359200,2.739359130859375,-1.7007598876953125,-0.5687103271484375,0.0955352783203125
1772537109877408300,2.749408203125,-1.68157958984375,-0.4954376220703125,-0.031585693359375
1772537109887456300,2.759456298828125,-1.79791259765625,-0.5303192138671875,0.15765380859375
1772537109897504300,2.769504150390625,-2.12713623046875,-0.75262451171875,0.4365081787109375
1772537109907553300,2.77955322265625,-2.269317626953125,-1.0381317138671875,0.507232666015625
1772537109917601300,2.789601318359375,-2.389617919921875,-1.0952911376953125,0.4822235107421875
1772537109927649300,2.799649169921875,-2.447662353515625,-1.0678253173828125,0.3462677001953125
1772537109937698000,2.809697998046875,-2.53887939453125,-1.016357421875,0.09613037109375
1772537109947746300,2.819746337890625,-2.5899810791015625,-0.9253082275390625,-0.0730438232421875
1772537109957794300,2.829794189453125,-2.626617431640625,-0.7823486328125,-0.142120361328125
1772537109967843300,2.83984326171875,-2.4613494873046875,-0.5930633544921875,-0.2487945556640625
1772537109977891300,2.849891357421875,-2.2178802490234375,-0.4442596435546875,-0.295562744140625
1772537109987939000,2.85993896484375,-1.968841552734375,-0.3112335205078125,-0.21490478515625
1772537109997988400,2.86998828125,-1.6948089599609375,-0.2215118408203125,-0.1393585205078125
1772537110008036000,2.8800361328125,-1.459686279296875,-0.1559600830078125,-0.0247802734375
1772537110018084400,2.89008447265625,-1.2762908935546875,-0.122406005859375,0.09320068359375
1772537110028133000,2.900133056640625,-1.0792236328125,-0.044525146484375,0.148681640625
1772537110038181400,2.910181396484375,-0.8731689453125,0.0342864990234375,0.166290283203125
1772537110048230400,2.92023046875,-0.6799163818359375,0.0836029052734375,0.1453704833984375
1772537110058279200,2.930279052734375,-0.477020263671875,0.11297607421875,0.0886688232421875
1772537110068327400,2.940327392578125,-0.3178863525390625,0.1422271728515625,0.0260772705078125
1772537110078376200,2.950376220703125,-0.170867919921875,0.1558074951171875,-0.0276031494140625
1772537110088424400,2.960424560546875,-0.037994384765625,0.1540985107421875,-0.0629119873046875
1772537110098472400,2.970472412109375,0.0661468505859375,0.1200103759765625,-0.058624267578125
1772537110108521500,2.980521484375,0.147979736328125,0.0806121826171875,-0.0408935546875
1772537110118569500,2.990569580078125,0.2159423828125,0.063934326171875,-0.0126800537109375
1772537110128617200,3.0006171875,0.2701263427734375,0.0531768798828125,0.013397216796875
1772537110138666500,3.01066650390625,0.3004150390625,0.046722412109375,0.0483856201171875
1772537110148714200,3.02071435546875,0.2985992431640625,0.06268310546875,0.0775299072265625
1772537110158762500,3.030762451171875,0.29278564453125,0.1184234619140625,0.095550537109375
1772537110168811300,3.040811279296875,0.3438720703125,0.1565399169921875,0.1519622802734375
1772537110178859500,3.050859619140625,0.2878875732421875,0.0738372802734375,0.114837646484375
1772537110188907300,3.0609072265625,0.21832275390625,-0.0238494873046875,0.10638427734375
1772537110198956300,3.070956298828125,0.1943206787109375,-0.03948974609375,0.0736541748046875
1772537110209004300,3.08100439453125,0.1292572021484375,-0.0289764404296875,0.0377044677734375
1772537110219052300,3.09105224609375,-0.01519775390625,-0.07940673828125,0.03009033203125
1772537110229101300,3.101101318359375,-0.183319091796875,-0.1611175537109375,0.0531005859375
1772537110239149300,3.1111494140625,-0.3977203369140625,-0.30548095703125,0.1535491943359375
1772537110249198300,3.1211982421875,-0.481201171875,-0.67926025390625,0.3048553466796875
1772537110259246300,3.131246337890625,-0.609039306640625,-0.690582275390625,0.1558380126953125
1772537110269294300,3.14129443359375,-0.8514251708984375,-0.43206787109375,0.2290191650390625
1772537110279343400,3.15134326171875,-1.103668212890625,-0.412139892578125,0.1505126953125
1772537110289391400,3.161391357421875,-1.2565460205078125,-0.3549041748046875,0.028106689453125
1772537110299439400,3.171439453125,-1.3140106201171875,-0.24365234375,-0.023162841796875
1772537110309488400,3.18148828125,-1.3914031982421875,-0.27197265625,0.0099945068359375
1772537110319536400,3.191536376953125,-1.4960174560546875,-0.437957763671875,0.159698486328125
1772537110329584400,3.20158447265625,-1.591766357421875,-0.688720703125,0.2735443115234375
1772537110339633400,3.21163330078125,-1.7268829345703125,-0.9487152099609375,0.3131866455078125
1772537110349681400,3.221681396484375,-1.9653472900390625,-1.127349853515625,0.29290771484375
1772537110359729400,3.2317294921875,-2.186676025390625,-1.236297607421875,0.2621612548828125
1772537110369778400,3.2417783203125,-2.2707977294921875,-1.2216033935546875,0.2245941162109375
1772537110379826400,3.251826416015625,-2.2900543212890625,-1.187469482421875,0.1700897216796875
1772537110389874400,3.26187451171875,-2.3332977294921875,-1.167205810546875,0.1656646728515625
1772537110399923200,3.271923095703125,-2.3517608642578125,-1.1022186279296875,0.18804931640625
1772537110409971500,3.281971435546875,-2.2847442626953125,-1.0323486328125,0.1783447265625
1772537110420019500,3.29201953125,-2.195892333984375,-0.9243927001953125,0.1498260498046875
1772537110430068200,3.302068115234375,-2.056732177734375,-0.8259735107421875,0.140289306640625
1772537110440116500,3.312116455078125,-1.9188232421875,-0.7480621337890625,0.15142822265625
1772537110450165200,3.322165283203125,-1.7421875,-0.6799468994140625,0.17156982421875
1772537110460213500,3.332213623046875,-1.5401153564453125,-0.620635986328125,0.1865386962890625
1772537110470261200,3.34226123046875,-1.3800506591796875,-0.5596466064453125,0.2104949951171875
1772537110480310500,3.352310546875,-1.24395751953125,-0.4744415283203125,0.1975250244140625
1772537110490358300,3.362358154296875,-1.0676116943359375,-0.3568115234375,0.1473236083984375
1772537110500406300,3.37240625,-0.9057464599609375,-0.2379913330078125,0.1048431396484375
1772537110510455300,3.382455322265625,-0.7537384033203125,-0.127197265625,0.090972900390625
1772537110520503300,3.39250341796875,-0.648529052734375,-0.0319366455078125,0.09588623046875
1772537110530551600,3.402551513671875,-0.5747222900390625,0.061920166015625,0.077545166015625
1772537110540600300,3.412600341796875,-0.5090484619140625,0.1302490234375,0.06536865234375
1772537110550648600,3.422648681640625,-0.433685302734375,0.180572509765625,0.02691650390625
1772537110560696300,3.4326962890625,-0.3206329345703125,0.223358154296875,-0.020416259765625
1772537110570745300,3.442745361328125,-0.2091522216796875,0.2216796875,-0.0467681884765625
1772537110580793300,3.45279345703125,-0.125457763671875,0.1834869384765625,-0.0430145263671875
1772537110590841300,3.46284130859375,-0.0504608154296875,0.138824462890625,-0.01287841796875
1772537110600890400,3.472890380859375,0.0290679931640625,0.08819580078125,0.0165863037109375
1772537110610938400,3.4829384765625,0.1020965576171875,0.058837890625,0.0476531982421875
1772537110620986400,3.492986328125,0.1597900390625,0.0463409423828125,0.0651397705078125
1772537110631035400,3.503035400390625,0.2127838134765625,0.02978515625,0.0762939453125
1772537110641083100,3.513083251953125,0.22479248046875,0.020263671875,0.069061279296875
1772537110651132400,3.52313232421875,0.22186279296875,0.01715087890625,0.059814453125
1772537110661180200,3.53318017578125,0.213775634765625,0.012420654296875,0.03363037109375
1772537110671228400,3.543228515625,0.1917724609375,-0.0084075927734375,0.00982666015625
1772537110681277200,3.553277099609375,0.14617919921875,-0.0452728271484375,-0.027008056640625
1772537110691325400,3.563325439453125,0.083526611328125,-0.102386474609375,-0.075225830078125
1772537110701373400,3.57337353515625,0.0170440673828125,-0.1668243408203125,-0.102935791015625
1772537110711422500,3.58342236328125,-0.059478759765625,-0.229736328125,-0.0854339599609375
1772537110721470500,3.593470458984375,-0.1806640625,-0.310272216796875,-0.0206146240234375
1772537110731518200,3.603518310546875,-0.348663330078125,-0.417144775390625,0.116485595703125
1772537110741567500,3.6135673828125,-0.5306549072265625,-0.5318756103515625,0.2659454345703125
1772537110751615200,3.623615234375,-0.7391204833984375,-0.55902099609375,0.3014068603515625
1772537110761663500,3.63366357421875,-0.961700439453125,-0.5282440185546875,0.2644500732421875
1772537110771712300,3.643712158203125,-1.1700897216796875,-0.59307861328125,0.202301025390625
1772537110781760500,3.653760498046875,-1.4006805419921875,-0.566375732421875,0.1180877685546875
1772537110791808300,3.663808349609375,-1.5630340576171875,-0.4771270751953125,0.0414886474609375
1772537110801857500,3.673857421875,-1.6674346923828125,-0.552276611328125,0.05712890625
1772537110811905300,3.6839052734375,-1.772918701171875,-0.778839111328125,0.1407928466796875
1772537110821953300,3.693953369140625,-1.9408721923828125,-1.0456390380859375,0.180084228515625
1772537110832002300,3.704002197265625,-2.1737823486328125,-1.224853515625,0.146881103515625
1772537110842050300,3.71405029296875,-2.4198760986328125,-1.305877685546875,0.09765625
1772537110852099300,3.724099365234375,-2.52960205078125,-1.3408660888671875,0.0400848388671875
1772537110862147300,3.734147216796875,-2.566864013671875,-1.2616119384765625,-0.021942138671875
1772537110872195300,3.7441953125,-2.5553741455078125,-1.1395263671875,-0.0217132568359375
1772537110882244400,3.754244384765625,-2.468017578125,-1.0120086669921875,-0.013336181640625
1772537110892292400,3.764292236328125,-2.337738037109375,-0.88311767578125,-0.004150390625
1772537110902340400,3.77434033203125,-2.1935882568359375,-0.7634124755859375,0.0094757080078125
1772537110912389400,3.784389404296875,-2.03973388671875,-0.6728363037109375,0.028533935546875
1772537110922437400,3.794437255859375,-1.8708953857421875,-0.5923614501953125,0.075439453125
1772537110932485400,3.8044853515625,-1.686370849609375,-0.5029296875,0.1109161376953125
1772537110942534400,3.814534423828125,-1.50640869140625,-0.4212799072265625,0.1404876708984375
1772537110952582400,3.82458251953125,-1.3326263427734375,-0.33453369140625,0.142486572265625
1772537110962630100,3.834630126953125,-1.15899658203125,-0.24578857421875,0.12677001953125
1772537110972679400,3.844679443359375,-0.997039794921875,-0.1623382568359375,0.1077728271484375
1772537110982727200,3.85472705078125,-0.8427734375,-0.0808868408203125,0.0923309326171875
1772537110992775400,3.864775390625,-0.735931396484375,-0.0021209716796875,0.0797119140625
1772537111002824200,3.87482421875,-0.62847900390625,0.0757904052734375,0.062744140625
1772537111012872400,3.88487255859375,-0.504119873046875,0.14501953125,0.05035400390625
1772537111022920400,3.89492041015625,-0.3849639892578125,0.1739959716796875,0.0425567626953125
1772537111032969500,3.904969482421875,-0.272735595703125,0.1533966064453125,0.0308074951171875
1772537111043016400,3.915016357421875,-0.1788482666015625,0.120361328125,0.0385894775390625
1772537111053064700,3.925064697265625,-0.0972747802734375,0.1070556640625,0.05419921875
1772537111063113500,3.935113525390625,-0.00689697265625,0.096099853515625,0.0411529541015625
1772537111073161700,3.94516162109375,0.0926513671875,0.089996337890625,0.014068603515625
1772537111083210500,3.95521044921875,0.1724090576171875,0.0915069580078125,-0.0032958984375
1772537111093258500,3.965258544921875,0.220184326171875,0.0779876708984375,0.000640869140625
1772537111103306500,3.975306396484375,0.260955810546875,0.0637054443359375,0.0291748046875
1772537111113355500,3.98535546875,0.295745849609375,0.05743408203125,0.0740966796875
1772537111123403500,3.995403564453125,0.3447265625,0.0498809814453125,0.1011962890625
1772537111133451500,4.005451416015625,0.3339996337890625,0.021240234375,0.1082305908203125
1772537111143500500,4.01550048828125,0.2922821044921875,0.0067901611328125,0.10015869140625
1772537111153548500,4.025548583984375,0.2298736572265625,0.0146484375,0.0665740966796875
1772537111163596500,4.035596435546875,0.15704345703125,-0.00177001953125,0.0534210205078125
1772537111173645600,4.0456455078125,0.07562255859375,-0.052825927734375,0.054779052734375
1772537111183693300,4.055693359375,-0.024505615234375,-0.15087890625,0.09893798828125
1772537111193741600,4.065741455078125,-0.135101318359375,-0.2745361328125,0.1830291748046875
1772537111203790300,4.075790283203125,-0.2672119140625,-0.37200927734375,0.26641845703125
1772537111213838600,4.085838623046875,-0.418609619140625,-0.4542694091796875,0.336822509765625
1772537111223886600,4.095886474609375,-0.581298828125,-0.4947662353515625,0.337860107421875
1772537111233935600,4.105935546875,-0.7686309814453125,-0.49725341796875,0.303131103515625
1772537111243983600,4.115983642578125,-0.936065673828125,-0.51898193359375,0.2544708251953125
1772537111254031400,4.12603125,-1.0998382568359375,-0.560943603515625,0.1921234130859375
1772537111264080600,4.13608056640625,-1.3267059326171875,-0.4879608154296875,0.22412109375
1772537111274128400,4.14612841796875,-1.5025634765625,-0.516265869140625,0.2583465576171875
1772537111284177700,4.156177734375,-1.730010986328125,-0.7496795654296875,0.313995361328125
1772537111294225400,4.166225341796875,-1.919952392578125,-1.0659332275390625,0.2975921630859375
1772537111304273700,4.176273681640625,-2.0540008544921875,-1.2368927001953125,0.2626953125
1772537111314322400,4.186322509765625,-2.1850433349609375,-1.2170562744140625,0.247528076171875
1772537111324370700,4.19637060546875,-2.3713836669921875,-1.2310638427734375,0.219451904296875
1772537111334418400,4.20641845703125,-2.527984619140625,-1.2581787109375,0.196746826171875
1772537111344467700,4.2164677734375,-2.53521728515625,-1.1569976806640625,0.2107391357421875
1772537111354515500,4.226515380859375,-2.4771728515625,-1.0016632080078125,0.2413330078125
1772537111364563500,4.2365634765625,-2.40155029296875,-0.8190765380859375,0.2809600830078125
1772537111374612500,4.246612548828125,-2.2957611083984375,-0.661651611328125,0.3203582763671875
1772537111384660500,4.256660400390625,-2.0877685546875,-0.5681610107421875,0.3564910888671875
1772537111394708700,4.266708740234375,-1.849517822265625,-0.518463134765625,0.3692626953125
1772537111404757500,4.276757568359375,-1.662506103515625,-0.490386962890625,0.36871337890625
1772537111414805500,4.286805419921875,-1.4746856689453125,-0.4564056396484375,0.34490966796875
1772537111424853500,4.296853515625,-1.30755615234375,-0.4147186279296875,0.294281005859375
1772537111434902500,4.306902587890625,-1.135986328125,-0.3763580322265625,0.2254180908203125
1772537111444950500,4.316950439453125,-0.9799652099609375,-0.31494140625,0.1572113037109375
1772537111454998500,4.32699853515625,-0.8593597412109375,-0.2216033935546875,0.1150360107421875
1772537111465047600,4.337047607421875,-0.7962799072265625,-0.107147216796875,0.0922393798828125
1772537111475095600,4.347095458984375,-0.7274627685546875,0.009490966796875,0.069580078125
1772537111485144600,4.35714453125,-0.6282501220703125,0.1099090576171875,0.0532684326171875
1772537111495192600,4.367192626953125,-0.5142669677734375,0.144256591796875,-0.00921630859375
1772537111505240300,4.377240234375,-0.40594482421875,0.1034393310546875,-0.0588531494140625
1772537111515289600,4.38728955078125,-0.356658935546875,0.12115478515625,-0.074554443359375
1772537111525337300,4.39733740234375,-0.3041534423828125,0.163482666015625,-0.061279296875
1772537111535385600,4.407385498046875,-0.2357330322265625,0.1638641357421875,-0.068511962890625
1772537111545434400,4.417434326171875,-0.16943359375,0.1183319091796875,-0.0600738525390625
1772537111555482600,4.427482666015625,-0.1123046875,0.074310302734375,-0.0364990234375
1772537111565530600,4.437530517578125,-0.06427001953125,0.04266357421875,0.0041656494140625
1772537111575579600,4.44757958984375,-0.011260986328125,0.0079193115234375,0.0318603515625
1772537111585627600,4.457627685546875,0.0384979248046875,-0.013763427734375,0.0587005615234375
1772537111595675400,4.46767529296875,0.0961151123046875,-0.0163116455078125,0.0641632080078125
1772537111605724700,4.477724609375,0.156982421875,-0.019683837890625,0.066436767578125
1772537111615772400,4.4877724609375,0.1284942626953125,0.00189208984375,0.0909576416015625
1772537111625820700,4.497820556640625,0.135040283203125,-0.0071258544921875,0.0783843994140625
1772537111635869400,4.507869384765625,0.135833740234375,-0.0212554931640625,0.063934326171875
1772537111645917400,4.51791748046875,0.083953857421875,-0.041595458984375,0.0588226318359375
1772537111655965400,4.52796533203125,0.032623291015625,-0.1022491455078125,0.036376953125
1772537111666014500,4.538014404296875,-0.0470428466796875,-0.2218780517578125,0.0249176025390625
1772537111676062500,4.5480625,-0.156036376953125,-0.334228515625,0.089691162109375
1772537111686110500,4.5581103515625,-0.3195343017578125,-0.432708740234375,0.1814117431640625
1772537111696159500,4.568159423828125,-0.4942169189453125,-0.5316314697265625,0.2193603515625
1772537111706207500,4.57820751953125,-0.6837158203125,-0.5889739990234375,0.17864990234375
1772537111716256500,4.588256591796875,-0.899505615234375,-0.561248779296875,0.1478118896484375
1772537111726304500,4.598304443359375,-1.1195526123046875,-0.4398193359375,0.141693115234375
1772537111736352500,4.6083525390625,-1.3013153076171875,-0.3458709716796875,0.09283447265625
1772537111746401500,4.618401611328125,-1.542236328125,-0.2947845458984375,0.120025634765625
1772537111756449500,4.628449462890625,-1.7438812255859375,-0.355377197265625,0.210968017578125
1772537111766497500,4.63849755859375,-1.900543212890625,-0.6041412353515625,0.19537353515625
1772537111776546600,4.648546630859375,-2.0212554931640625,-0.88348388671875,0.12249755859375
1772537111786594600,4.658594482421875,-2.1295318603515625,-1.04254150390625,0.0673828125
1772537111796642600,4.668642578125,-2.3953094482421875,-1.10699462890625,0.02325439453125
1772537111806691300,4.67869140625,-2.584808349609375,-1.119720458984375,-0.0129241943359375
1772537111816739600,4.688739501953125,-2.63421630859375,-1.00616455078125,-0.02130126953125
1772537111826787600,4.69878759765625,-2.5745849609375,-0.868988037109375,0.0090789794921875
1772537111836836600,4.708836669921875,-2.482421875,-0.697265625,0.0356903076171875
1772537111846884600,4.718884521484375,-2.300567626953125,-0.5446624755859375,0.0872650146484375
1772537111856932600,4.7289326171875,-2.0674591064453125,-0.45465087890625,0.1413726806640625
1772537111866981600,4.738981689453125,-1.8700714111328125,-0.4076080322265625,0.1910858154296875
1772537111877029400,4.749029296875,-1.6649322509765625,-0.3894195556640625,0.231689453125
1772537111887077600,4.75907763671875,-1.461761474609375,-0.365386962890625,0.2432098388671875
1772537111897126400,4.76912646484375,-1.270904541015625,-0.347412109375,0.24212646484375
1772537111907174700,4.779174560546875,-1.107086181640625,-0.29248046875,0.2256317138671875
1772537111917222400,4.789222412109375,-0.9462432861328125,-0.2148590087890625,0.1806182861328125
1772537111927271700,4.799271728515625,-0.8298187255859375,-0.1191253662109375,0.118011474609375
1772537111937319400,4.8093193359375,-0.7745513916015625,-0.016265869140625,0.0732421875
1772537111947368700,4.81936865234375,-0.740386962890625,0.0890960693359375,0.0207366943359375
1772537111957416400,4.82941650390625,-0.6889495849609375,0.183685302734375,-0.025787353515625
1772537111967464400,4.83946435546875,-0.6091461181640625,0.2231292724609375,-0.043975830078125
1772537111977513500,4.849513427734375,-0.545684814453125,0.2375335693359375,-0.0611114501953125
1772537111987561500,4.8595615234375,-0.4527587890625,0.2421722412109375,-0.06842041015625
1772537111997609700,4.869609619140625,-0.339385986328125,0.2151641845703125,-0.0722198486328125
1772537112007658500,4.879658447265625,-0.2269134521484375,0.160980224609375,-0.047210693359375
1772537112017706800,4.889706787109375,-0.1322021484375,0.0853271484375,-0.0108489990234375
1772537112027754500,4.89975439453125,-0.033966064453125,0.0119476318359375,0.0348663330078125
1772537112037803500,4.909803466796875,0.0577545166015625,-0.0447540283203125,0.081329345703125
1772537112047851500,4.9198515625,0.129791259765625,-0.092529296875,0.101654052734375
1772537112057899800,4.929899658203125,0.190460205078125,-0.1412353515625,0.1038665771484375
1772537112067948500,4.939948486328125,0.218658447265625,-0.1417999267578125,0.0954132080078125
1772537112077996500,4.94999658203125,0.24859619140625,-0.097900390625,0.062591552734375
1772537112088044500,4.96004443359375,0.25048828125,-0.0444793701171875,0.0278472900390625
1772537112098093600,4.970093505859375,0.1846160888671875,-0.0092926025390625,0.0035858154296875
1772537112108141600,4.9801416015625,0.111114501953125,-0.013671875,-0.0214385986328125
1772537112118189600,4.990189453125,0.0276641845703125,-0.08099365234375,-0.0252838134765625
1772537112128238600,5.000238525390625,-0.1209564208984375,-0.21807861328125,0.006805419921875
1772537112138286600,5.01028662109375,-0.3126220703125,-0.3470001220703125,0.0733489990234375
1772537112148335600,5.020335693359375,-0.442138671875,-0.391998291015625,0.1103363037109375
1772537112158383600,5.030383544921875,-0.5600433349609375,-0.354644775390625,0.0819244384765625
1772537112168431600,5.040431640625,-0.6739654541015625,-0.338470458984375,0.10516357421875
1772537112178480600,5.050480712890625,-0.7813720703125,-0.3665313720703125,0.171112060546875
1772537112188528600,5.060528564453125,-0.9422149658203125,-0.36175537109375,0.226837158203125
1772537112198576600,5.07057666015625,-1.1059417724609375,-0.3153839111328125,0.2969512939453125
1772537112208625700,5.080625732421875,-1.29443359375,-0.216949462890625,0.3864593505859375
1772537112218673700,5.090673583984375,-1.461761474609375,-0.22198486328125,0.4083709716796875
1772537112228721700,5.1007216796875,-1.678466796875,-0.3694915771484375,0.3797149658203125
1772537112238770700,5.110770751953125,-1.819732666015625,-0.590972900390625,0.293121337890625
1772537112248818700,5.120818603515625,-1.9461517333984375,-0.70965576171875,0.224884033203125
1772537112258866400,5.130866455078125,-2.1012420654296875,-0.6682281494140625,0.160675048828125
1772537112268915700,5.140915771484375,-2.254852294921875,-0.56854248046875,0.0875091552734375
1772537112278963500,5.15096337890625,-2.3883056640625,-0.5125274658203125,0.0436859130859375
1772537112289011700,5.16101171875,-2.40997314453125,-0.4770660400390625,0.014862060546875
1772537112299060500,5.171060546875,-2.37738037109375,-0.4427947998046875,0.0089569091796875
1772537112309108500,5.1811083984375,-2.3012542724609375,-0.413970947265625,0.0273590087890625
1772537112319156700,5.19115673828125,-2.2095489501953125,-0.3732452392578125,0.0588226318359375
1772537112329205500,5.20120556640625,-2.095611572265625,-0.380126953125,0.11981201171875
1772537112339253800,5.211253662109375,-1.950714111328125,-0.4499053955078125,0.17608642578125
1772537112349301500,5.221301513671875,-1.8361968994140625,-0.5384674072265625,0.2010650634765625
1772537112359350800,5.231350830078125,-1.708465576171875,-0.5824127197265625,0.227325439453125
1772537112369398500,5.2413984375,-1.567657470703125,-0.5853118896484375,0.2804718017578125
1772537112379446500,5.251446533203125,-1.435699462890625,-0.56591796875,0.2982025146484375
1772537112389495600,5.26149560546875,-1.27081298828125,-0.50445556640625,0.2641754150390625
1772537112399543600,5.27154345703125,-1.138153076171875,-0.4086456298828125,0.231842041015625
1772537112409592600,5.281592529296875,-1.0425262451171875,-0.2849884033203125,0.2062225341796875
1772537112419640600,5.291640625,-0.9946136474609375,-0.148468017578125,0.152862548828125
1772537112429688600,5.3016884765625,-0.9722747802734375,-0.0451812744140625,0.09783935546875
1772537112439737600,5.311737548828125,-0.894256591796875,0.0431365966796875,0.035614013671875
1772537112449785600,5.32178564453125,-0.8094329833984375,0.134429931640625,-0.0247955322265625
1772537112459833600,5.33183349609375,-0.7230682373046875,0.1831817626953125,-0.0590362548828125
1772537112469881600,5.341881591796875,-0.6257781982421875,0.192230224609375,-0.078216552734375
1772537112479930600,5.3519306640625,-0.526763916015625,0.1708831787109375,-0.0818328857421875
1772537112489978600,5.361978515625,-0.3886260986328125,0.1203155517578125,-0.063262939453125
1772537112500027600,5.372027587890625,-0.2477874755859375,0.0604248046875,-0.0351715087890625
1772537112510075600,5.38207568359375,-0.1354217529296875,0.02423095703125,-0.006378173828125
1772537112520123600,5.39212353515625,-0.03515625,0.0173187255859375,0.01629638671875
1772537112530172700,5.402172607421875,0.045623779296875,0.0165863037109375,0.0476226806640625
1772537112540220400,5.412220458984375,0.10546875,0.0068817138671875,0.0648193359375
1772537112550268700,5.4222685546875,0.1667327880859375,0.0064697265625,0.0710601806640625
1772537112560317400,5.4323173828125,0.22247314453125,0.0115966796875,0.0703125
1772537112570365700,5.44236572265625,0.2489776611328125,-0.000152587890625,0.053314208984375
1772537112580413700,5.45241357421875,0.228973388671875,-0.0233154296875,0.0250091552734375
1772537112590462700,5.462462646484375,0.2008056640625,-0.039581298828125,-0.01141357421875
1772537112600510700,5.4725107421875,0.189483642578125,-0.0723876953125,-0.041717529296875
1772537112610558500,5.482558349609375,0.14593505859375,-0.1147308349609375,-0.0778961181640625
1772537112620607500,5.492607421875,0.069854736328125,-0.1865081787109375,-0.0699310302734375
1772537112630655500,5.502655517578125,-0.04010009765625,-0.2582244873046875,-0.00140380859375
1772537112640703700,5.512703857421875,-0.193206787109375,-0.3205413818359375,0.0844879150390625
1772537112650752500,5.52275244140625,-0.4127197265625,-0.4014892578125,0.1796417236328125
1772537112660800800,5.53280078125,-0.6273651123046875,-0.403594970703125,0.1875
1772537112670848500,5.5428486328125,-0.8199462890625,-0.344482421875,0.21197509765625
1772537112680897800,5.552897705078125,-0.9793548583984375,-0.3380584716796875,0.23565673828125
1772537112690945500,5.562945556640625,-1.087738037109375,-0.3405914306640625,0.2343292236328125
1772537112700993500,5.57299365234375,-1.16790771484375,-0.2919158935546875,0.2140045166015625
1772537112711042600,5.58304248046875,-1.3362884521484375,-0.1750335693359375,0.1591796875
1772537112721090600,5.593090576171875,-1.504302978515625,-0.19195556640625,0.10577392578125
1772537112731139600,5.6031396484375,-1.647491455078125,-0.3683624267578125,0.1417083740234375
1772537112741187600,5.6131875,-1.7979583740234375,-0.60247802734375,0.1481781005859375
1772537112751235800,5.62323583984375,-1.99267578125,-0.7786712646484375,0.0688323974609375
1772537112761284600,5.63328466796875,-2.1750335693359375,-0.95806884765625,0.0162811279296875
1772537112771332600,5.64333251953125,-2.29083251953125,-1.08843994140625,0.0086212158203125
1772537112781380600,5.653380615234375,-2.3603973388671875,-1.0949859619140625,-0.0094146728515625
1772537112791429600,5.6634296875,-2.413604736328125,-1.042755126953125,-0.0052490234375
1772537112801477600,5.6734775390625,-2.456939697265625,-0.9155731201171875,0.0195465087890625
1772537112811525600,5.683525634765625,-2.4425201416015625,-0.7599945068359375,0.052703857421875
1772537112821574700,5.69357470703125,-2.3507843017578125,-0.6214752197265625,0.0680389404296875
1772537112831622700,5.70362255859375,-2.2060699462890625,-0.5241241455078125,0.0753631591796875
1772537112841670400,5.71367041015625,-2.0556640625,-0.4704742431640625,0.11981201171875
1772537112851719700,5.7237197265625,-1.87982177734375,-0.4291839599609375,0.1902618408203125
1772537112861767400,5.733767333984375,-1.6752471923828125,-0.39556884765625,0.259735107421875
1772537112871815700,5.743815673828125,-1.4766693115234375,-0.345245361328125,0.2967987060546875
1772537112881864400,5.753864501953125,-1.292083740234375,-0.2547454833984375,0.2980804443359375
1772537112891912700,5.76391259765625,-1.1215057373046875,-0.14910888671875,0.2639923095703125
1772537112901960700,5.773960693359375,-0.9428863525390625,-0.05828857421875,0.1989593505859375
1772537112912009700,5.784009765625,-0.8001708984375,0.0117034912109375,0.1265716552734375
1772537112922057700,5.7940576171875,-0.6739654541015625,0.05987548828125,0.0637359619140625
1772537112932105500,5.80410546875,-0.5743408203125,0.0897216796875,0.011962890625
1772537112942154800,5.81415478515625,-0.50213623046875,0.1032867431640625,-0.0338134765625
1772537112952202500,5.824202392578125,-0.448577880859375,0.096221923828125,-0.05133056640625
1772537112962251800,5.834251708984375,-0.388702392578125,0.081756591796875,-0.0661468505859375
1772537112972299500,5.844299560546875,-0.324676513671875,0.0624847412109375,-0.071868896484375
1772537112982347800,5.85434765625,-0.26458740234375,0.038543701171875,-0.07281494140625
1772537112992395500,5.8643955078125,-0.204833984375,0.01446533203125,-0.061187744140625
1772537113002444500,5.874444580078125,-0.13555908203125,-0.0163726806640625,-0.056121826171875
1772537113012492500,5.884492431640625,-0.071563720703125,-0.0556640625,-0.0438232421875
1772537113022541600,5.89454150390625,-0.01690673828125,-0.06854248046875,-0.0178985595703125
1772537113032589600,5.904589599609375,0.0429840087890625,-0.0577239990234375,0.0056915283203125
1772537113042637600,5.914637451171875,0.080596923828125,-0.0601959228515625,0.02362060546875
1772537113052686300,5.924686279296875,0.095001220703125,-0.0652008056640625,0.03741455078125
1772537113062734000,5.934734130859375,0.08709716796875,-0.0486602783203125,0.01788330078125
1772537113072782000,5.944781982421875,0.06158447265625,-0.022186279296875,-0.0194854736328125
1772537113082831000,5.9548310546875,0.055389404296875,-0.0218048095703125,-0.06475830078125
1772537113092879000,5.964879150390625,0.027496337890625,-0.0039520263671875,-0.1262664794921875
1772537113102927000,5.974927001953125,-0.0318145751953125,-0.01873779296875,-0.1766510009765625
1772537113112976100,5.98497607421875,-0.1470489501953125,-0.067535400390625,-0.1832733154296875
1772537113123024100,5.995024169921875,-0.2911376953125,-0.1428985595703125,-0.135589599609375
1772537113133072100,6.005072021484375,-0.4237518310546875,-0.245574951171875,-0.021453857421875
1772537113143121000,6.015120849609375,-0.573333740234375,-0.3551177978515625,0.1265411376953125
1772537113153169200,6.025169189453125,-0.7182159423828125,-0.4423828125,0.27227783203125
1772537113163218000,6.035218017578125,-0.8842620849609375,-0.4637451171875,0.320220947265625
1772537113173266200,6.04526611328125,-1.0756378173828125,-0.454071044921875,0.2779693603515625
1772537113183314200,6.055314208984375,-1.230926513671875,-0.4330596923828125,0.2249908447265625
1772537113193363200,6.06536328125,-1.379302978515625,-0.369720458984375,0.1359710693359375
1772537113203411200,6.0754111328125,-1.588043212890625,-0.3478240966796875,0.0888519287109375
1772537113213459000,6.085458984375,-1.8280181884765625,-0.363037109375,0.1713714599609375
1772537113223508200,6.09550830078125,-1.963043212890625,-0.4913787841796875,0.3076324462890625
1772537113233556000,6.105555908203125,-1.9911956787109375,-0.6762542724609375,0.4174652099609375
1772537113243604200,6.115604248046875,-2.0478668212890625,-0.7740325927734375,0.47943115234375
1772537113253653000,6.125653076171875,-2.1654052734375,-0.7826690673828125,0.498016357421875
1772537113263701200,6.135701171875,-2.2708740234375,-0.7623443603515625,0.387451171875
1772537113273749000,6.1457490234375,-2.33062744140625,-0.778900146484375,0.2100830078125
1772537113283798300,6.15579833984375,-2.316253662109375,-0.71099853515625,0.1220245361328125
1772537113293846000,6.165845947265625,-2.2749176025390625,-0.62530517578125,0.1555633544921875
1772537113303894000,6.17589404296875,-2.184906005859375,-0.5795135498046875,0.192626953125
1772537113313943000,6.185943115234375,-2.0634002685546875,-0.5362548828125,0.2062530517578125
1772537113323991000,6.195990966796875,-1.8949127197265625,-0.4777069091796875,0.207305908203125
1772537113334039300,6.206039306640625,-1.705078125,-0.416107177734375,0.2284088134765625
1772537113344088000,6.216088134765625,-1.51361083984375,-0.3602142333984375,0.2565460205078125
1772537113354136000,6.226135986328125,-1.2840576171875,-0.2940826416015625,0.2651214599609375
1772537113364184000,6.23618408203125,-1.0665740966796875,-0.21551513671875,0.2469940185546875
1772537113374233000,6.246233154296875,-0.8861236572265625,-0.151458740234375,0.2068634033203125
1772537113384281000,6.256281005859375,-0.7621917724609375,-0.07879638671875,0.1432037353515625
1772537113394330000,6.266330078125,-0.6406402587890625,-0.03509521484375,0.0670318603515625
1772537113404378000,6.276378173828125,-0.5573577880859375,-0.0043182373046875,0.015655517578125
1772537113414426000,6.286426025390625,-0.478271484375,0.0346527099609375,-0.0283355712890625
1772537113424474000,6.29647412109375,-0.423126220703125,0.076751708984375,-0.0625457763671875
1772537113434523100,6.306523193359375,-0.3869476318359375,0.1042633056640625,-0.0604400634765625
1772537113444571100,6.316571044921875,-0.3558349609375,0.1236724853515625,-0.059722900390625
1772537113454620200,6.3266201171875,-0.29364013671875,0.1380767822265625,-0.062896728515625
1772537113464668200,6.336668212890625,-0.249176025390625,0.1249847412109375,-0.053741455078125
1772537113474716200,6.346716064453125,-0.2318878173828125,0.0848236083984375,-0.0290374755859375
1772537113484765000,6.356764892578125,-0.203460693359375,0.044036865234375,-0.028594970703125
1772537113494813200,6.366813232421875,-0.1458892822265625,0.0053253173828125,-0.0289459228515625
1772537113504861200,6.376861083984375,-0.080413818359375,-0.018218994140625,-0.0015869140625
1772537113514910200,6.38691015625,-0.031646728515625,-0.0391387939453125,0.0375518798828125
1772537113524958200,6.396958251953125,-0.013580322265625,-0.074005126953125,0.0744476318359375
1772537113535006000,6.407005859375,-0.0061187744140625,-0.080322265625,0.0908966064453125
1772537113545055200,6.41705517578125,-0.00042724609375,-0.05364990234375,0.096221923828125
1772537113555103000,6.42710302734375,0.0147857666015625,-0.023590087890625,0.0786590576171875
1772537113565151200,6.437151123046875,0.02783203125,-0.027008056640625,0.034271240234375
1772537113575200000,6.447199951171875,-0.0324249267578125,-0.05072021484375,0.0062713623046875
1772537113585248000,6.457248046875,-0.1439971923828125,-0.0396881103515625,0.0938720703125
1772537113595296300,6.467296142578125,-0.28271484375,-0.0953216552734375,0.1519622802734375
1772537113605345000,6.477344970703125,-0.4154052734375,-0.2011566162109375,0.1793365478515625
1772537113615393300,6.487393310546875,-0.5661468505859375,-0.308624267578125,0.1634674072265625
1772537113625441000,6.49744091796875,-0.674560546875,-0.3931732177734375,0.115875244140625
1772537113635490300,6.507490234375,-0.754241943359375,-0.425018310546875,0.074493408203125
1772537113645538000,6.5175380859375,-0.876739501953125,-0.4613189697265625,0.102447509765625
1772537113655586000,6.5275859375,-1.0931854248046875,-0.4400482177734375,0.136932373046875
1772537113665635000,6.537635009765625,-1.29345703125,-0.357818603515625,0.165924072265625
1772537113675683000,6.54768310546875,-1.430938720703125,-0.2731170654296875,0.254150390625
1772537113685732000,6.557732177734375,-1.5898895263671875,-0.2328948974609375,0.3000335693359375
1772537113695780000,6.567780029296875,-1.766326904296875,-0.3843536376953125,0.3661956787109375
1772537113705828000,6.577828125,-1.8769378662109375,-0.5925140380859375,0.3780975341796875
1772537113715877000,6.587877197265625,-1.9776611328125,-0.6991424560546875,0.344512939453125
1772537113725925000,6.597925048828125,-2.1555633544921875,-0.7493438720703125,0.312957763671875
1772537113735973000,6.60797314453125,-2.2840576171875,-0.771820068359375,0.256866455078125
1772537113746022100,6.618022216796875,-2.284820556640625,-0.759765625,0.1138916015625
1772537113756070100,6.628070068359375,-2.2501983642578125,-0.68096923828125,0.019683837890625
1772537113766118100,6.6381181640625,-2.1823577880859375,-0.5926971435546875,0.012176513671875
1772537113776167200,6.648167236328125,-2.1042327880859375,-0.5191802978515625,0.0489044189453125
1772537113786215200,6.658215087890625,-2.02001953125,-0.446136474609375,0.1097564697265625
1772537113796263200,6.66826318359375,-1.8942718505859375,-0.417755126953125,0.139739990234375
1772537113806312200,6.678312255859375,-1.8313446044921875,-0.4178466796875,0.155487060546875
1772537113816360000,6.68835986328125,-1.78302001953125,-0.3810577392578125,0.1842498779296875
1772537113826408200,6.698408203125,-1.704986572265625,-0.3292388916015625,0.1982269287109375
1772537113836457000,6.70845703125,-1.581787109375,-0.2933197021484375,0.2066802978515625
1772537113846505200,6.718505126953125,-1.4473114013671875,-0.2784881591796875,0.1968994140625
1772537113856553000,6.728552978515625,-1.3123931884765625,-0.2754974365234375,0.1620635986328125
1772537113866602200,6.738602294921875,-1.16741943359375,-0.25848388671875,0.1254730224609375
1772537113876650000,6.74864990234375,-1.034576416015625,-0.196990966796875,0.0982818603515625
1772537113886698000,6.758697998046875,-0.935699462890625,-0.1279449462890625,0.080596923828125
1772537113896747000,6.7687470703125,-0.8391571044921875,-0.0794525146484375,0.0644378662109375
1772537113906795000,6.778794921875,-0.7288665771484375,-0.0467071533203125,0.0328826904296875
1772537113916843300,6.78884326171875,-0.650054931640625,-0.0221099853515625,0.0165252685546875
1772537113926892000,6.79889208984375,-0.5858306884765625,0.008087158203125,0.0201568603515625
1772537113936940300,6.808940185546875,-0.4990081787109375,0.0413360595703125,0.0124969482421875
1772537113946988000,6.818988037109375,-0.4122314453125,0.0521697998046875,0.009918212890625
1772537113957037300,6.829037353515625,-0.3354644775390625,0.0435791015625,0.0096893310546875
1772537113967085000,6.8390849609375,-0.2432708740234375,0.0196533203125,0.00933837890625
1772537113977133000,6.849133056640625,-0.153045654296875,-0.004119873046875,0.0083465576171875
1772537113987182000,6.85918212890625,-0.0773773193359375,-0.021331787109375,0.020294189453125
1772537113997230000,6.86922998046875,-0.0058746337890625,-0.03314208984375,0.0322113037109375
1772537114007279000,6.879279052734375,0.057647705078125,-0.02789306640625,0.035919189453125
1772537114017327000,6.8893271484375,0.107940673828125,-0.0122833251953125,0.0308837890625
1772537114027375000,6.899375,0.134765625,-0.0156097412109375,0.0358123779296875
1772537114037424000,6.909424072265625,0.1329345703125,-0.0264434814453125,0.0349273681640625
1772537114047472600,6.91947265625,0.0921173095703125,-0.0140838623046875,0.008575439453125
1772537114057520600,6.929520751953125,0.0446014404296875,-0.0220489501953125,-0.0392913818359375
1772537114067569700,6.939569580078125,-0.0383758544921875,-0.0397186279296875,-0.0915069580078125
1772537114077617700,6.94961767578125,-0.1290435791015625,-0.0653076171875,-0.1130218505859375
1772537114087666000,6.959666015625,-0.239501953125,-0.1401824951171875,-0.1252899169921875
1772537114097714700,6.969714599609375,-0.4297637939453125,-0.2288970947265625,-0.033660888671875
1772537114107762700,6.9797626953125,-0.621124267578125,-0.2928924560546875,0.1416168212890625
1772537114117810700,6.989810791015625,-0.7389068603515625,-0.324127197265625,0.2492523193359375
1772537114127859700,6.999859619140625,-0.8404998779296875,-0.31365966796875,0.2996673583984375
1772537114137907700,7.00990771484375,-0.85369873046875,-0.279083251953125,0.2948150634765625
1772537114147955700,7.019955810546875,-0.90069580078125,-0.2425384521484375,0.2478179931640625
1772537114158004700,7.030004638671875,-0.999053955078125,-0.2476348876953125,0.24176025390625
1772537114168052700,7.040052734375,-1.124755859375,-0.2862548828125,0.1851348876953125
1772537114178100700,7.050100830078125,-1.2775115966796875,-0.3183135986328125,0.121917724609375
1772537114188149800,7.060149658203125,-1.5080718994140625,-0.327117919921875,0.1723480224609375
1772537114198197800,7.07019775390625,-1.7237548828125,-0.5135040283203125,0.27978515625
1772537114208245800,7.080245849609375,-1.8940277099609375,-0.783660888671875,0.361968994140625
1772537114218294500,7.09029443359375,-2.0179290771484375,-0.8773040771484375,0.3706512451171875
1772537114228342800,7.1003427734375,-2.09844970703125,-0.9843902587890625,0.336944580078125
1772537114238390800,7.110390869140625,-2.3231353759765625,-0.96044921875,0.219329833984375
1772537114248439800,7.120439697265625,-2.5236663818359375,-0.9066009521484375,0.0837860107421875
1772537114258487800,7.13048779296875,-2.6386566162109375,-0.778076171875,-0.0088043212890625
1772537114268536800,7.140536865234375,-2.6160430908203125,-0.5733642578125,-0.0169677734375
1772537114278584800,7.150584716796875,-2.4903106689453125,-0.4427032470703125,0.0755615234375
1772537114288632600,7.160632568359375,-2.3678741455078125,-0.3331146240234375,0.159149169921875
1772537114298681900,7.170681884765625,-2.18499755859375,-0.324493408203125,0.235565185546875
1772537114308729600,7.1807294921875,-1.9677581787109375,-0.27960205078125,0.280609130859375
1772537114318777900,7.19077783203125,-1.68505859375,-0.2003021240234375,0.282318115234375
1772537114328826600,7.20082666015625,-1.4010467529296875,-0.1738433837890625,0.247100830078125
1772537114338875000,7.210875,-1.154388427734375,-0.1569976806640625,0.21856689453125
1772537114348922600,7.220922607421875,-0.968353271484375,-0.141448974609375,0.1648712158203125
1772537114358972000,7.230971923828125,-0.7898712158203125,-0.139404296875,0.0966949462890625
1772537114369019600,7.24101953125,-0.6052398681640625,-0.1224822998046875,0.032196044921875
1772537114379067600,7.251067626953125,-0.4600067138671875,-0.099334716796875,-0.0070648193359375
1772537114389116700,7.26111669921875,-0.331329345703125,-0.1019439697265625,-0.031707763671875
1772537114399164700,7.27116455078125,-0.197296142578125,-0.0767822265625,-0.04937744140625
1772537114409213000,7.281212890625,-0.108367919921875,-0.024566650390625,-0.0473175048828125
1772537114419261700,7.29126171875,-0.0461883544921875,0.0080108642578125,-0.0261993408203125
1772537114429310000,7.30131005859375,-0.0116424560546875,-0.00128173828125,-0.0164947509765625
1772537114439357700,7.311357666015625,0.049560546875,-0.0140533447265625,-0.0213165283203125
1772537114449406700,7.32140673828125,0.117340087890625,-0.018035888671875,-0.0369720458984375
1772537114459454700,7.331454833984375,0.1484222412109375,-0.0180511474609375,-0.04095458984375
1772537114469502700,7.341502685546875,0.177032470703125,-0.000335693359375,-0.01556396484375
1772537114479551700,7.3515517578125,0.14373779296875,0.0238189697265625,0.0245819091796875
1772537114489599700,7.361599853515625,0.11419677734375,0.029998779296875,0.0883636474609375
1772537114499647700,7.371647705078125,0.097198486328125,0.0321807861328125,0.117584228515625
1772537114509696800,7.38169677734375,0.0687713623046875,0.0310211181640625,0.1195526123046875
1772537114519744500,7.39174462890625,0.02386474609375,0.029052734375,0.11004638671875
1772537114529792800,7.401792724609375,-0.007049560546875,0.0211029052734375,0.079132080078125
1772537114539841500,7.411841552734375,-0.0318450927734375,0.003570556640625,0.0224609375
1772537114549889800,7.421889892578125,-0.083526611328125,-0.0353546142578125,-0.0189208984375
1772537114559938600,7.4319384765625,-0.152618408203125,-0.1195220947265625,-0.011260986328125
1772537114569986800,7.44198681640625,-0.2913970947265625,-0.2338409423828125,0.0407257080078125
1772537114580034800,7.452034912109375,-0.4823150634765625,-0.3341827392578125,0.0932159423828125
1772537114590083800,7.462083740234375,-0.660247802734375,-0.3970947265625,0.1175079345703125
1772537114600131800,7.4721318359375,-0.7958831787109375,-0.4551849365234375,0.114593505859375
1772537114610179600,7.4821796875,-0.9051361083984375,-0.4820098876953125,0.0748291015625
1772537114620228900,7.492228759765625,-1.05792236328125,-0.50872802734375,0.016204833984375
1772537114630276600,7.502276611328125,-1.221038818359375,-0.5586090087890625,-0.0687713623046875
1772537114640324900,7.512324951171875,-1.4051666259765625,-0.5347900390625,-0.1790008544921875
1772537114650373600,7.52237353515625,-1.564239501953125,-0.4742431640625,-0.209991455078125
1772537114660422000,7.532421875,-1.760223388671875,-0.5022735595703125,-0.1038970947265625
1772537114670470000,7.542469970703125,-1.9457550048828125,-0.6253204345703125,0.0586090087890625
1772537114680518700,7.5525185546875,-2.1844329833984375,-0.787200927734375,0.1504974365234375
1772537114690566700,7.562566650390625,-2.3824005126953125,-0.89013671875,0.2127685546875
1772537114700614700,7.57261474609375,-2.54644775390625,-0.828643798828125,0.2685394287109375
1772537114710663700,7.58266357421875,-2.5807952880859375,-0.7820587158203125,0.2556915283203125
1772537114720711700,7.592711669921875,-2.5469970703125,-0.726959228515625,0.1602630615234375
1772537114730759700,7.602759765625,-2.5285491943359375,-0.63006591796875,0.0517730712890625
1772537114740808700,7.61280859375,-2.5065155029296875,-0.4923248291015625,0.0411376953125
1772537114750856700,7.622856689453125,-2.413299560546875,-0.3711700439453125,0.0641937255859375
1772537114760904700,7.63290478515625,-2.24200439453125,-0.3055267333984375,0.04461669921875
1772537114770953700,7.64295361328125,-2.023040771484375,-0.27734375,0.0410919189453125
1772537114781001700,7.653001708984375,-1.8095245361328125,-0.240570068359375,0.0688018798828125
1772537114791049700,7.6630498046875,-1.58062744140625,-0.2007904052734375,0.1050567626953125
1772537114801098800,7.6730986328125,-1.3338165283203125,-0.163238525390625,0.1195831298828125
1772537114811146800,7.683146728515625,-1.1432037353515625,-0.099029541015625,0.1373443603515625
1772537114821194800,7.69319482421875,-0.934417724609375,-0.0122528076171875,0.1216278076171875
1772537114831243800,7.703243896484375,-0.7164459228515625,0.0306243896484375,0.0619354248046875
1772537114841291800,7.713291748046875,-0.54022216796875,0.0305938720703125,0.019317626953125
1772537114851339800,7.72333984375,-0.4158935546875,0.009857177734375,0.0042266845703125
1772537114861388800,7.733388916015625,-0.3671722412109375,-0.0835418701171875,-0.0036163330078125
1772537114871436800,7.743436767578125,-0.19525146484375,-0.128082275390625,-0.0706939697265625
1772537114881485800,7.75348583984375,-0.06585693359375,-0.140045166015625,-0.0809326171875
1772537114891533800,7.763533935546875,-0.03924560546875,-0.1584014892578125,-0.0327606201171875
1772537114901581800,7.773581787109375,-0.0198211669921875,-0.1016998291015625,0.020111083984375
1772537114911630600,7.783630615234375,0.0266876220703125,-0.0097808837890625,0.062744140625
1772537114921678800,7.793678955078125,0.0639801025390625,0.050018310546875,0.1064300537109375
1772537114931726600,7.8037265625,0.0632781982421875,0.0751953125,0.1508941650390625
1772537114941776000,7.81377587890625,0.055328369140625,0.069427490234375,0.1560211181640625
1772537114951823600,7.82382373046875,0.086395263671875,0.058502197265625,0.13897705078125
1772537114961871600,7.83387158203125,0.079864501953125,0.0442352294921875,0.1279296875
1772537114971920600,7.843920654296875,0.05560302734375,0.017913818359375,0.1263580322265625
1772537114981968600,7.85396875,0.029144287109375,-0.018096923828125,0.1157073974609375
1772537114992017000,7.864016845703125,0.002899169921875,-0.04095458984375,0.070526123046875
1772537115002065700,7.874065673828125,-0.0190887451171875,-0.04803466796875,-0.013824462890625
1772537115012114000,7.884114013671875,-0.0335540771484375,-0.0634002685546875,-0.06707763671875
1772537115022161700,7.89416162109375,-0.130889892578125,-0.0845184326171875,-0.0646820068359375
1772537115032211000,7.9042109375,-0.303985595703125,-0.1261138916015625,-0.01397705078125
1772537115042258700,7.9142587890625,-0.4579010009765625,-0.1848297119140625,0.0972747802734375
1772537115052306000,7.924305908203125,-0.5987091064453125,-0.2227325439453125,0.1785430908203125
1772537115062355000,7.93435498046875,-0.731597900390625,-0.23583984375,0.2021484375
1772537115072403000,7.94440283203125,-0.85101318359375,-0.3069915771484375,0.1823883056640625
1772537115082451000,7.954450927734375,-1.0139007568359375,-0.3002166748046875,0.177093505859375
1772537115092500000,7.9645,-1.1404266357421875,-0.2199859619140625,0.1393280029296875
1772537115102548000,7.9745478515625,-1.2305755615234375,-0.1815948486328125,0.0692138671875
1772537115112597000,7.984596923828125,-1.3283538818359375,-0.1502685546875,-0.0087738037109375
1772537115122645000,7.99464501953125,-1.4059906005859375,-0.1678009033203125,-0.0828094482421875
1772537115132693000,8.00469287109375,-1.4603118896484375,-0.24981689453125,-0.040618896484375
1772537115142741000,8.014740966796875,-1.5228118896484375,-0.3502044677734375,0.08709716796875
1772537115152790000,8.0247900390625,-1.698150634765625,-0.4593353271484375,0.168548583984375
1772537115162838000,8.034838134765625,-1.9157867431640625,-0.567901611328125,0.2268524169921875
1772537115172887000,8.044886962890626,-2.0753326416015625,-0.6034393310546875,0.231536865234375
1772537115182935000,8.05493505859375,-2.137542724609375,-0.5466461181640625,0.172943115234375
1772537115192983000,8.064983154296876,-2.1510467529296875,-0.5289154052734375,0.1006927490234375
1772537115203032000,8.075031982421875,-2.154388427734375,-0.512603759765625,0.0335845947265625
1772537115213079800,8.085079833984375,-2.0997161865234375,-0.46014404296875,0.036376953125
1772537115223128000,8.095128173828124,-2.0463409423828125,-0.395294189453125,0.0983734130859375
1772537115233176800,8.1051767578125,-1.9771575927734375,-0.408447265625,0.104766845703125
1772537115243225000,8.11522509765625,-1.9431915283203125,-0.427886962890625,0.13671875
1772537115253273000,8.125273193359375,-1.930328369140625,-0.4513397216796875,0.1840667724609375
1772537115263321900,8.13532177734375,-1.8741607666015625,-0.42095947265625,0.2100677490234375
1772537115273370000,8.1453701171875,-1.811920166015625,-0.3577117919921875,0.2493743896484375
1772537115283417900,8.15541796875,-1.7721405029296875,-0.2858428955078125,0.279571533203125
1772537115293467100,8.165467041015624,-1.6817779541015625,-0.2116851806640625,0.2725372314453125
1772537115303515000,8.175514892578125,-1.55889892578125,-0.1392364501953125,0.2408447265625
1772537115313563000,8.18556298828125,-1.4308624267578125,-0.0714263916015625,0.1900787353515625
1772537115323612000,8.19561181640625,-1.255706787109375,-0.0002899169921875,0.1673736572265625
1772537115333660000,8.205659912109375,-1.079559326171875,0.02099609375,0.15283203125
1772537115343708200,8.215708251953124,-0.9278564453125,0.001617431640625,0.131927490234375
1772537115353757000,8.2257568359375,-0.8390350341796875,0.00927734375,0.133209228515625
1772537115363805000,8.235804931640626,-0.7652130126953125,0.0225067138671875,0.121124267578125
1772537115373853000,8.24585302734375,-0.696868896484375,0.0292510986328125,0.1040191650390625
1772537115383902000,8.25590185546875,-0.653839111328125,0.036773681640625,0.06622314453125
1772537115393950000,8.265949951171875,-0.56988525390625,0.04473876953125,0.0164642333984375
1772537115403998000,8.275998046875,-0.499786376953125,0.037567138671875,0.0055694580078125
1772537115414047000,8.286046875,-0.41668701171875,0.0365447998046875,0.00347900390625
1772537115424095000,8.296094970703125,-0.3251190185546875,0.03582763671875,-0.0023193359375
1772537115434143000,8.30614306640625,-0.24749755859375,0.0285186767578125,-0.00592041015625
1772537115444192000,8.31619189453125,-0.1716766357421875,0.025238037109375,-0.021148681640625
1772537115454240000,8.326239990234376,-0.1112213134765625,0.025848388671875,-0.03515625
1772537115464288000,8.3362880859375,-0.05517578125,0.0040283203125,-0.0529937744140625
1772537115474337000,8.3463369140625,-0.0075531005859375,-0.0245513916015625,-0.0515594482421875
1772537115484385000,8.356385009765624,0.0378875732421875,-0.05377197265625,-0.0404205322265625
1772537115494433000,8.36643310546875,0.081634521484375,-0.0689239501953125,-0.0300140380859375
1772537115504482000,8.37648193359375,0.1136016845703125,-0.06982421875,-0.0301513671875
1772537115514530000,8.386530029296875,0.1223297119140625,-0.0581817626953125,-0.0399932861328125
1772537115524578000,8.396578125,0.0953216552734375,-0.031463623046875,-0.0308990478515625
1772537115534627000,8.406626953125,0.0585479736328125,-0.0100860595703125,-0.0299072265625
1772537115544674800,8.4166748046875,-0.018768310546875,-0.01007080078125,-0.0435028076171875
1772537115554724000,8.42672412109375,-0.118408203125,-0.0532989501953125,-0.051971435546875
1772537115564771800,8.436771728515625,-0.179840087890625,-0.1262054443359375,-0.0922393798828125
1772537115574820000,8.446820068359376,-0.269622802734375,-0.164031982421875,-0.0825347900390625
1772537115584868900,8.456868896484375,-0.374176025390625,-0.1854705810546875,0.012115478515625
1772537115594917000,8.466917236328126,-0.52880859375,-0.1982421875,0.1828155517578125
1772537115604964900,8.47696484375,-0.768585205078125,-0.1654815673828125,0.3301544189453125
1772537115615014100,8.48701416015625,-0.9807891845703125,-0.139739990234375,0.4208221435546875
1772537115625062000,8.497061767578124,-1.0841064453125,-0.17791748046875,0.4299774169921875
1772537115635110000,8.50710986328125,-1.197174072265625,-0.1848297119140625,0.3739166259765625
1772537115645159000,8.517158935546876,-1.2978515625,-0.13946533203125,0.259033203125
1772537115655207000,8.52720703125,-1.39801025390625,-0.069427490234375,0.096099853515625
1772537115665255200,8.537255126953125,-1.526611328125,-0.046630859375,0.03070068359375
1772537115675304000,8.547303955078124,-1.6748199462890625,-0.1325225830078125,0.1124420166015625
1772537115685352200,8.557352294921875,-1.7224578857421875,-0.3155364990234375,0.3401031494140625
1772537115695400000,8.56739990234375,-1.776458740234375,-0.541656494140625,0.4366607666015625
1772537115705449000,8.577448974609375,-1.96710205078125,-0.7113189697265625,0.43133544921875
1772537115715497000,8.5874970703125,-2.25,-0.68585205078125,0.368743896484375
1772537115725545000,8.597544921875,-2.3926239013671875,-0.5743865966796875,0.2876434326171875
1772537115735594000,8.607593994140625,-2.4744415283203125,-0.4537200927734375,0.1771392822265625
1772537115745642000,8.61764208984375,-2.4903717041015625,-0.328033447265625,0.0919342041015625
1772537115755690000,8.62768994140625,-2.4673919677734375,-0.2555389404296875,0.1025390625
1772537115765739000,8.637739013671874,-2.417083740234375,-0.2668609619140625,0.12139892578125
1772537115775786800,8.647786865234375,-2.3841705322265625,-0.329681396484375,0.1402130126953125
1772537115785835000,8.6578349609375,-2.2812652587890625,-0.384674072265625,0.147613525390625
1772537115795883800,8.6678837890625,-2.1421356201171875,-0.378753662109375,0.1330718994140625
1772537115805932000,8.67793212890625,-1.9930419921875,-0.3333740234375,0.1373443603515625
