time,seconds_elapsed,z,y,x
1772537107199521500,0.071521484375,0.27101099491119385,-0.06921688467264175,-0.1824028342962265
1772537107209570600,0.081570556640625,0.3489880859851837,-0.12127875536680222,-0.17167481780052185
1772537107219618600,0.09161865234375,0.39246684312820435,-0.21527981758117676,-0.1753893941640854
1772537107229667600,0.10166748046875,0.3801555931568146,-0.22182853519916534,-0.1852305829524994
1772537107239715600,0.111715576171875,0.34095972776412964,-0.1610855609178543,-0.16100247204303741
1772537107249763800,0.121763916015625,0.2793160676956177,-0.13670405745506287,-0.067375048995018
1772537107259812600,0.1318125,0.194244846701622,-0.09396777302026749,0.06812765449285507
1772537107269860900,0.14186083984375,0.1259954869747162,0.0748651847243309,0.23420344293117523
1772537107279908600,0.15190869140625,0.06437153369188309,0.23184601962566376,0.34889382123947144
1772537107289958000,0.1619580078125,-0.028970398008823395,0.1952539086341858,0.42430439591407776
1772537107300005600,0.172005615234375,-0.07270216941833496,-0.1522342711687088,0.4859669804573059
1772537107310053600,0.1820537109375,-0.17186816036701202,-0.4958811104297638,0.5487858653068542
1772537107320102700,0.1921025390625,-0.25607118010520935,-0.694866955280304,0.5878477692604065
1772537107330150700,0.202150634765625,-0.1955290138721466,-0.6816376447677612,0.6210313439369202
1772537107340198700,0.21219873046875,0.007497331127524376,-0.49240195751190186,0.6476991772651672
1772537107350247700,0.22224755859375,0.2542192339897156,-0.39255234599113464,0.6121816635131836
1772537107360295400,0.23229541015625,0.14097470045089722,-0.5115985870361328,0.6206925511360168
1772537107370343700,0.24234375,0.05180514231324196,-0.8901629447937012,0.5092528462409973
1772537107380392400,0.252392333984375,-0.03551618382334709,-0.9029026627540588,0.29236289858818054
1772537107390440700,0.262440673828125,-0.2096051573753357,-0.5001446008682251,0.05152897164225578
1772537107400489500,0.272489501953125,-0.27621108293533325,-0.6358667016029358,-0.27916932106018066
1772537107410537700,0.282537841796875,-0.1782834529876709,-0.7988292574882507,-0.5087825655937195
1772537107420585700,0.292585693359375,0.07940880209207535,-0.3440481722354889,-0.6674720644950867
1772537107430634800,0.302634765625,0.3504389822483063,-0.029214611276984215,-0.6432415246963501
1772537107440682800,0.312682861328125,0.5202621221542358,0.08204666525125504,-0.4549030661582947
1772537107450730500,0.32273046875,0.6408766508102417,0.20203964412212372,-0.2931937873363495
1772537107460779800,0.33277978515625,0.7891111373901367,0.36058828234672546,-0.24958878755569458
1772537107470827500,0.34282763671875,0.8514261841773987,0.4242631196975708,-0.35842180252075195
1772537107480875800,0.352875732421875,0.7439015507698059,0.4696633815765381,-0.5783222317695618
1772537107490924500,0.362924560546875,0.4675237834453583,0.4406924247741699,-0.8598470687866211
1772537107500972800,0.372972900390625,0.0976400077342987,0.3185715973377228,-1.0914437770843506
1772537107511020500,0.3830205078125,-0.1984398514032364,0.21050503849983215,-1.1723719835281372
1772537107521069800,0.39306982421875,-0.3972506821155548,0.12381915003061295,-1.1489955186843872
1772537107531117600,0.40311767578125,-0.5513683557510376,0.04771505668759346,-0.978729248046875
1772537107541166600,0.41316650390625,-0.687616229057312,-0.1491042673587799,-0.7498492002487183
1772537107551214600,0.423214599609375,-0.7794835567474365,-0.32268163561820984,-0.4469923973083496
1772537107561262600,0.4332626953125,-0.808076024055481,-0.4227113127708435,-0.10983941704034805
1772537107571311600,0.4433115234375,-0.7672577500343323,-0.45646288990974426,0.17205192148685455
1772537107581359600,0.453359619140625,-0.5967811346054077,-0.45135119557380676,0.3733847737312317
1772537107591407600,0.46340771484375,-0.3727445602416992,-0.45923683047294617,0.5009094476699829
1772537107601456600,0.47345654296875,-0.12754623591899872,-0.3834187686443329,0.5311501622200012
1772537107611504600,0.483504638671875,0.09844614565372467,-0.26612621545791626,0.471619188785553
1772537107621552600,0.493552734375,0.22943319380283356,-0.1470688134431839,0.3259011507034302
1772537107631601700,0.5036015625,0.3231447637081146,-0.08060003817081451,0.17220984399318695
1772537107641649700,0.513649658203125,0.4570668935775757,-0.0545940026640892,0.07579542696475983
1772537107651697700,0.52369775390625,0.6014251112937927,-0.051893822848796844,0.038248587399721146
1772537107661746700,0.53374658203125,0.7005759477615356,-0.010581804439425468,0.0492226742208004
1772537107671794700,0.543794677734375,0.7478672862052917,0.08358916640281677,0.0874779149889946
1772537107681842700,0.5538427734375,0.7747103571891785,0.3754844069480896,0.09484102576971054
1772537107691891700,0.5638916015625,0.7001064419746399,0.7726700901985168,-0.00896926037967205
1772537107701939500,0.573939453125,0.5308966040611267,1.1165693998336792,-0.11336064338684082
1772537107711988700,0.58398876953125,0.3700408935546875,1.1261488199234009,-0.08324109762907028
1772537107722036500,0.594036376953125,0.18301215767860413,0.7546519637107849,0.03322373330593109
1772537107732084700,0.604084716796875,0.009320264682173729,0.2391044646501541,0.2390807569026947
1772537107742133500,0.614133544921875,-0.0966130942106247,-0.09973351657390594,0.4374127686023712
1772537107752181800,0.624181640625,-0.1305050104856491,-0.11546561121940613,0.5483121275901794
1772537107762229800,0.634229736328125,-0.0883096233010292,0.040589503943920135,0.5969312787055969
1772537107772278500,0.644278564453125,0.010806575417518616,0.1306605339050293,0.5480663180351257
1772537107782326800,0.654326904296875,0.1021503359079361,0.10038572549819946,0.3903120756149292
1772537107792374500,0.66437451171875,0.17633534967899323,-0.02322569489479065,0.1479143649339676
1772537107802423800,0.674423828125,0.23608337342739105,-0.09915348142385483,-0.12475364655256271
1772537107812471600,0.684471435546875,0.29336610436439514,-0.05627152696251869,-0.36385011672973633
1772537107822519600,0.69451953125,0.32819437980651855,0.0781797543168068,-0.47727441787719727
1772537107832568600,0.704568603515625,0.34117382764816284,0.2503368854522705,-0.40008828043937683
1772537107842616600,0.714616455078125,0.3015414774417877,0.38253939151763916,-0.22448396682739258
1772537107852664800,0.724664794921875,0.20755265653133392,0.4114011228084564,-0.029736056923866272
1772537107862713600,0.734713623046875,0.07563270628452301,0.269992858171463,0.16079314053058624
1772537107872761600,0.74476171875,-0.11290977150201797,0.10991105437278748,0.32497942447662354
1772537107882810600,0.754810546875,-0.30689549446105957,-0.007996407337486744,0.4372473657131195
1772537107892858600,0.764858642578125,-0.4629974663257599,-0.16275882720947266,0.48832494020462036
1772537107902906600,0.77490673828125,-0.557016134262085,-0.34411555528640747,0.41500037908554077
1772537107912955600,0.78495556640625,-0.5180047750473022,-0.48609986901283264,0.23298132419586182
1772537107923003600,0.795003662109375,-0.3153712749481201,-0.48615047335624695,-0.02965616248548031
1772537107933051600,0.8050517578125,-0.09140262007713318,-0.37303510308265686,-0.32769930362701416
1772537107943100700,0.8151005859375,-0.06335446983575821,-0.0432414785027504,-0.8169198632240295
1772537107953148700,0.825148681640625,-0.10620126873254776,0.27841031551361084,-1.1263985633850098
1772537107963196700,0.83519677734375,-0.21321427822113037,0.2915322482585907,-1.142520546913147
1772537107973245700,0.84524560546875,-0.3490370810031891,-0.04300765320658684,-0.9045370817184448
1772537107983293400,0.85529345703125,-0.3593219518661499,-0.5474356412887573,-0.5734280943870544
1772537107993341700,0.865341796875,-0.28423598408699036,-0.8276377320289612,-0.36380910873413086
1772537108003390500,0.875390380859375,-0.3210483193397522,-0.7714669108390808,-0.46303316950798035
1772537108013438700,0.885438720703125,-0.39500272274017334,-0.643621027469635,-0.810377836227417
1772537108023487500,0.895487548828125,-0.3567655682563782,-0.543637752532959,-1.1949970722198486
1772537108033535700,0.90553564453125,-0.2280760407447815,-0.41844677925109863,-1.435316801071167
1772537108043583700,0.915583740234375,-0.09406124800443649,-0.15472114086151123,-1.4532617330551147
1772537108053632500,0.925632568359375,-0.05341102555394173,0.07305290549993515,-1.3469491004943848
1772537108063680800,0.9356806640625,-0.14047375321388245,0.19858606159687042,-1.2191098928451538
1772537108073728500,0.945728515625,-0.2335035651922226,0.203139528632164,-1.0711257457733154
1772537108083777800,0.95577783203125,-0.289905846118927,0.07335863262414932,-0.9040435552597046
1772537108093825500,0.965825439453125,-0.3350517749786377,-0.0601714625954628,-0.6845349073410034
1772537108103873500,0.97587353515625,-0.38063496351242065,-0.16379240155220032,-0.4050966203212738
1772537108113922600,0.985922607421875,-0.417073130607605,-0.17363117635250092,-0.06151715666055679
1772537108123970600,0.995970458984375,-0.40416717529296875,-0.21508514881134033,0.3291778862476349
1772537108134018600,1.0060185546875,-0.3165736794471741,-0.2910590171813965,0.7205906510353088
1772537108144067600,1.016067626953125,-0.21246220171451569,-0.3090534508228302,1.080048680305481
1772537108154115600,1.026115478515625,-0.13052977621555328,-0.33847418427467346,1.421283483505249
1772537108164163600,1.03616357421875,-0.10019850730895996,-0.40077778697013855,1.7194914817810059
1772537108174212600,1.046212646484375,-0.10452347993850708,-0.3929997384548187,1.9477779865264893
1772537108184260600,1.056260498046875,-0.12086543440818787,-0.24805507063865662,2.0117952823638916
1772537108194309600,1.0663095703125,-0.05028554052114487,0.1170259565114975,1.8271870613098145
1772537108204357600,1.076357666015625,0.15735793113708496,0.4955224096775055,1.5364493131637573
1772537108214405600,1.086405517578125,0.38771337270736694,0.6880108714103699,1.2826268672943115
1772537108224454700,1.09645458984375,0.4972017705440521,0.6612261533737183,1.1079133749008179
1772537108234502700,1.106502685546875,0.4558303654193878,0.6137821674346924,1.0391446352005005
1772537108244550700,1.116550537109375,0.338698148727417,0.6125928163528442,1.077709674835205
1772537108254599700,1.126599609375,0.12500345706939697,0.6238260269165039,1.1227778196334839
1772537108264647700,1.136647705078125,-0.06549085676670074,0.5862317681312561,1.150659203529358
1772537108274695700,1.14669580078125,-0.17012140154838562,0.40986502170562744,1.1490397453308105
1772537108284744400,1.156744384765625,-0.17897561192512512,0.1260564625263214,1.147665023803711
1772537108294792700,1.166792724609375,-0.10231944918632507,-0.11879802495241165,1.1083365678787231
1772537108304840400,1.17684033203125,0.006697850301861763,-0.13099797070026398,0.9654725790023804
1772537108314889700,1.1868896484375,0.0935392752289772,0.03863660991191864,0.7559635639190674
1772537108324937500,1.1969375,0.13275697827339172,0.22129110991954803,0.5501968264579773
1772537108334985500,1.2069853515625,0.15906688570976257,0.24284407496452332,0.45448094606399536
1772537108345034500,1.217034423828125,0.12951777875423431,-0.0038890140131115913,0.4314238429069519
1772537108355082500,1.22708251953125,0.04913958162069321,-0.3020203113555908,0.41441610455513
1772537108365131500,1.237131591796875,-0.05499614030122757,-0.35131728649139404,0.4322592616081238
1772537108375179500,1.247179443359375,-0.1878761649131775,-0.18524521589279175,0.5405465960502625
1772537108385227800,1.257227783203125,-0.32696402072906494,-0.023726901039481163,0.6874681115150452
1772537108395276500,1.267276611328125,-0.5488879084587097,-0.0036155073903501034,0.7882429361343384
1772537108405324800,1.27732470703125,-0.8004192113876343,-0.2208290547132492,0.8451131582260132
1772537108415372500,1.28737255859375,-0.923515260219574,-0.6159769296646118,0.8315842747688293
1772537108425421800,1.297421875,-0.8329832553863525,-0.8553484678268433,0.7036332488059998
1772537108435469600,1.307469482421875,-0.5977920293807983,-0.877405047416687,0.7706389427185059
1772537108445517600,1.317517578125,-0.29698801040649414,-0.5501582026481628,0.6380763649940491
1772537108455566600,1.327566650390625,-0.10130611807107925,-0.015594672411680222,0.4603803753852844
1772537108465614600,1.337614501953125,-0.0903828963637352,0.31345751881599426,0.22852106392383575
1772537108475662600,1.34766259765625,-0.23850950598716736,0.5185859203338623,0.08334974944591522
1772537108485711600,1.357711669921875,-0.35939571261405945,0.22487998008728027,0.03137337043881416
1772537108495759600,1.367759521484375,-0.21138787269592285,-0.32691794633865356,-0.08394789695739746
1772537108505807600,1.3778076171875,0.12180206924676895,-0.6617262959480286,-0.42025747895240784
1772537108515856400,1.3878564453125,0.3243362605571747,-0.47602567076683044,-0.9143050312995911
1772537108525904600,1.397904541015625,0.3223961591720581,-0.06748317182064056,-1.3236746788024902
1772537108535953400,1.407953369140625,0.2001029998064041,0.23668444156646729,-1.4374537467956543
1772537108546001700,1.418001708984375,0.015479356981813908,0.17154085636138916,-1.2418999671936035
1772537108556049700,1.428049560546875,-0.12306626886129379,-0.08483632653951645,-0.9112599492073059
1772537108566098700,1.4380986328125,-0.16737568378448486,-0.12068593502044678,-0.6610674262046814
1772537108576146700,1.448146728515625,-0.13202780485153198,0.1219935491681099,-0.43222758173942566
1772537108586194400,1.4581943359375,-0.10977683216333389,0.29301270842552185,-0.1800837516784668
1772537108596243700,1.46824365234375,-0.0524914376437664,0.43561646342277527,0.04613926634192467
1772537108606291500,1.47829150390625,0.06183513626456261,0.45211952924728394,0.2397787719964981
1772537108616339700,1.488339599609375,0.1587267965078354,0.33611729741096497,0.31524449586868286
1772537108626388500,1.498388427734375,0.19076648354530334,0.14900945127010345,0.2696186900138855
1772537108636436700,1.508436767578125,0.19631464779376984,0.008698683232069016,0.24409975111484528
1772537108646484700,1.518484619140625,0.1529485434293747,-0.06287829577922821,0.32852408289909363
1772537108656533800,1.52853369140625,0.0883202776312828,-0.11388475447893143,0.589006245136261
1772537108666581500,1.53858154296875,0.06489404290914536,-0.21921516954898834,0.9397379159927368
1772537108676629500,1.54862939453125,0.07967272400856018,-0.3363039791584015,1.2391701936721802
1772537108686678500,1.558678466796875,0.0922204777598381,-0.436236709356308,1.380194902420044
1772537108696726500,1.5687265625,0.06576170027256012,-0.3803499937057495,1.3481669425964355
1772537108706775600,1.578775634765625,-0.007838748395442963,-0.13799221813678741,1.219378113746643
1772537108716823600,1.588823486328125,-0.13555356860160828,0.17551189661026,1.067719578742981
1772537108726871600,1.59887158203125,-0.27517539262771606,0.4137508273124695,0.9367911219596863
1772537108736920600,1.608920654296875,-0.38763853907585144,0.484467089176178,0.8257072567939758
1772537108746968600,1.618968505859375,-0.4391762912273407,0.44437533617019653,0.6896482110023499
1772537108757016600,1.6290166015625,-0.44958606362342834,0.41953495144844055,0.4882809817790985
1772537108767065600,1.639065673828125,-0.4051102101802826,0.35870862007141113,0.24840740859508514
1772537108777113600,1.649113525390625,-0.2992279827594757,0.2507784366607666,0.006992928218096495
1772537108787161600,1.65916162109375,-0.1588626205921173,0.15273788571357727,-0.19251778721809387
1772537108797210600,1.669210693359375,-0.0467536561191082,0.08965744823217392,-0.37115809321403503
1772537108807258600,1.679258544921875,0.02401798404753208,0.14156804978847504,-0.47730931639671326
1772537108817306600,1.689306640625,0.08490370213985443,0.18501512706279755,-0.5390946269035339
1772537108827355600,1.699355712890625,0.09636568278074265,0.09999796748161316,-0.576065182685852
1772537108837403600,1.709403564453125,0.05584835261106491,-0.006041381042450666,-0.5494205355644226
1772537108847451600,1.71945166015625,-0.018184863030910492,-0.07806071639060974,-0.4487253427505493
1772537108857500700,1.729500732421875,-0.10282810777425766,-0.18358847498893738,-0.25836843252182007
1772537108867548700,1.739548583984375,-0.17961104214191437,-0.3479262888431549,-0.033241577446460724
1772537108877597700,1.74959765625,-0.2464904636144638,-0.4851248860359192,0.23063161969184875
1772537108887645700,1.759645751953125,-0.307533323764801,-0.505621075630188,0.43414610624313354
1772537108897693700,1.769693603515625,-0.4150019884109497,-0.39562562108039856,0.42144256830215454
1772537108907742500,1.779742431640625,-0.5622282028198242,-0.41629573702812195,0.13027358055114746
1772537108917790700,1.789790771484375,-0.6775134801864624,-0.5623094439506531,-0.2890799939632416
1772537108927838500,1.79983837890625,-0.6770578622817993,-0.632477343082428,-0.6356353163719177
1772537108937887700,1.8098876953125,-0.5728166699409485,-0.3741981089115143,-0.7325463891029358
1772537108947935500,1.819935546875,-0.5917397141456604,-0.0323835052549839,-0.5545018315315247
1772537108957983500,1.8299833984375,-0.5493144989013672,0.005048554390668869,-0.2618345320224762
1772537108968032500,1.840032470703125,-0.333684504032135,-0.2528325319290161,-0.15006938576698303
1772537108978080500,1.85008056640625,-0.05697833001613617,-0.39899373054504395,-0.36994823813438416
1772537108988128800,1.860128662109375,0.038659512996673584,-0.3863586187362671,-0.8488881587982178
1772537108998177500,1.870177490234375,-0.0023824640084058046,-0.22890429198741913,-1.3522578477859497
1772537109008225800,1.880225830078125,0.02858317457139492,-0.11047457903623581,-1.6007864475250244
1772537109018273500,1.8902734375,0.1735568791627884,-0.13816054165363312,-1.6918574571609497
1772537109028322800,1.90032275390625,0.38462597131729126,-0.18341776728630066,-1.6838490962982178
1772537109038370600,1.91037060546875,0.5309025049209595,-0.1603931337594986,-1.616422176361084
1772537109048419300,1.92041943359375,0.531011164188385,0.016093216836452484,-1.4585672616958618
1772537109058467000,1.930467041015625,0.44241923093795776,0.14388740062713623,-1.1154581308364868
1772537109068515300,1.940515380859375,0.3320554494857788,0.1194281280040741,-0.6350746750831604
1772537109078564000,1.950564208984375,0.22086447477340698,-0.0005099953268654644,-0.14174196124076843
1772537109088612400,1.9606123046875,0.1056169718503952,-0.0530158132314682,0.31339946389198303
1772537109098660400,1.970660400390625,0.017377125099301338,-0.014030864462256432,0.7543760538101196
1772537109108709400,1.98070947265625,-0.030236465856432915,-0.07052343338727951,1.148913025856018
1772537109118757000,1.990757080078125,-0.07045605778694153,-0.1930330991744995,1.4375560283660889
1772537109128805000,2.00080517578125,-0.10471788793802261,-0.2803187370300293,1.61068856716156
1772537109138854100,2.010854248046875,-0.08733464032411575,-0.26997050642967224,1.6886953115463257
1772537109148902100,2.020902099609375,-0.00455613574013114,-0.1441534459590912,1.6462833881378174
1772537109158950400,2.030950439453125,0.10376394540071487,0.09657900035381317,1.5449607372283936
1772537109168999200,2.040999267578125,0.18139402568340302,0.3713895380496979,1.4801570177078247
1772537109179047400,2.05104736328125,0.1980707347393036,0.64519202709198,1.4941153526306152
1772537109189095200,2.06109521484375,0.12990260124206543,0.8647211790084839,1.5528689622879028
1772537109199144200,2.071144287109375,0.006846454460173845,0.9936762452125549,1.6340175867080688
1772537109209192200,2.081192138671875,-0.11900734901428223,0.9572386145591736,1.6626170873641968
1772537109219240200,2.091240234375,-0.19737832248210907,0.7717883586883545,1.5922664403915405
1772537109229289200,2.101289306640625,-0.21505798399448395,0.5187864303588867,1.4411882162094116
1772537109239337200,2.111337158203125,-0.21034657955169678,0.3085293471813202,1.248670220375061
1772537109249386200,2.12138623046875,-0.17165271937847137,0.1788262128829956,1.0005857944488525
1772537109259434200,2.131434326171875,-0.105472631752491,0.15311631560325623,0.727377712726593
1772537109269482200,2.141482177734375,-0.00015632755821570754,0.15755340456962585,0.45459678769111633
1772537109279531300,2.15153125,0.1368369460105896,0.09171421080827713,0.17083193361759186
1772537109289579300,2.161579345703125,0.2903934717178345,-0.06172488257288933,-0.11062318086624146
1772537109299627300,2.171627197265625,0.3889501392841339,-0.2099684178829193,-0.38525474071502686
1772537109309676300,2.18167626953125,0.380572646856308,-0.2355712503194809,-0.6202923059463501
1772537109319724300,2.191724365234375,0.2508431375026703,-0.17399629950523376,-0.7291508913040161
1772537109329772300,2.201772216796875,0.04160124063491821,-0.05410291627049446,-0.6944365501403809
1772537109339821300,2.2118212890625,-0.16461823880672455,-0.0276207085698843,-0.6068869829177856
1772537109349869300,2.221869384765625,-0.3080446422100067,-0.11892186105251312,-0.6021276712417603
1772537109359917000,2.2319169921875,-0.3824445903301239,-0.3478282690048218,-0.75666344165802
1772537109369966300,2.24196630859375,-0.4740024507045746,-0.5718533992767334,-1.064728856086731
1772537109380014000,2.25201416015625,-0.5167896151542664,-0.5668655633926392,-1.3593658208847046
1772537109390063400,2.2620634765625,-0.407808780670166,-0.39471349120140076,-1.4456086158752441
1772537109400111000,2.272111083984375,-0.2861097753047943,-0.07772382348775864,-1.2488046884536743
1772537109410159400,2.282159423828125,-0.3624002933502197,0.17660006880760193,-0.791327953338623
1772537109420208000,2.2922080078125,-0.5038319826126099,0.10072794556617737,-0.13396339118480682
1772537109430256000,2.302256103515625,-0.2706381380558014,-0.32581058144569397,0.458800345659256
1772537109440304400,2.312304443359375,0.16172978281974792,-0.8129850625991821,0.657209038734436
1772537109450353200,2.322353271484375,0.4143598973751068,-1.0490009784698486,0.38757461309432983
1772537109460401400,2.3324013671875,0.3461803197860718,-0.8955800533294678,-0.04610943794250488
1772537109470449200,2.34244921875,0.16220276057720184,-0.5780652165412903,-0.36509114503860474
1772537109480498400,2.35249853515625,0.07577092945575714,-0.550599217414856,-0.558219850063324
1772537109490546200,2.362546142578125,0.05777807906270027,-0.6862508058547974,-0.8217934370040894
1772537109500594200,2.37259423828125,0.01888474076986313,-0.4823874235153198,-1.1944652795791626
1772537109510643200,2.382643310546875,-0.05366109684109688,-0.15220311284065247,-1.5305825471878052
1772537109520691200,2.392691162109375,-0.13095775246620178,-0.048280179500579834,-1.5736483335494995
1772537109530739200,2.4027392578125,-0.20608152449131012,-0.06947947293519974,-1.1022014617919922
1772537109540788200,2.412788330078125,-0.2861135005950928,-0.18587133288383484,-0.36289724707603455
1772537109550836200,2.422836181640625,-0.387631356716156,-0.33634817600250244,0.3395825922489166
1772537109560884200,2.43288427734375,-0.5021501779556274,-0.44968193769454956,0.9179271459579468
1772537109570933200,2.442933349609375,-0.547605574131012,-0.4765084981918335,1.3278454542160034
1772537109580981200,2.452981201171875,-0.5202413201332092,-0.3689418137073517,1.5714783668518066
1772537109591030000,2.463030029296875,-0.4509599804878235,-0.10859225690364838,1.6554837226867676
1772537109601078300,2.473078369140625,-0.32489073276519775,0.22182799875736237,1.6453959941864014
1772537109611126300,2.483126220703125,-0.15399223566055298,0.4770459234714508,1.562211036682129
1772537109621175300,2.49317529296875,0.030232470482587814,0.5581777691841125,1.3881306648254395
1772537109631223300,2.503223388671875,0.20047052204608917,0.5981004238128662,1.1242963075637817
1772537109641271300,2.513271240234375,0.318672776222229,0.6556175351142883,0.811647355556488
1772537109651320300,2.5233203125,0.3198411166667938,0.611855685710907,0.5042884349822998
1772537109661368000,2.5333681640625,0.2106243520975113,0.49468961358070374,0.2595037519931793
1772537109671416300,2.543416259765625,0.05271540954709053,0.46087199449539185,0.11478250473737717
1772537109681465000,2.553465087890625,-0.059114720672369,0.4740232229232788,0.07364252954721451
1772537109691513300,2.563513427734375,-0.05452129989862442,0.42289799451828003,0.049981143325567245
1772537109701561000,2.57356103515625,0.034573957324028015,0.31019169092178345,-0.010073939338326454
1772537109711610400,2.5836103515625,0.12723757326602936,0.207229346036911,-0.12471023947000504
1772537109721658000,2.593658203125,0.19398652017116547,0.14562803506851196,-0.2878411114215851
1772537109731706000,2.6037060546875,0.22471407055854797,0.0925040990114212,-0.43943703174591064
1772537109741755100,2.613755126953125,0.1980542242527008,0.04797205328941345,-0.5848134160041809
1772537109751803100,2.62380322265625,0.09056957811117172,0.027714185416698456,-0.7095867395401001
1772537109761851400,2.633851318359375,-0.05946066230535507,0.0492120198905468,-0.774897038936615
1772537109771900200,2.643900146484375,-0.20390865206718445,0.15684659779071808,-0.7571969032287598
1772537109781948400,2.653948486328125,-0.3072930872440338,0.3651353716850281,-0.600654661655426
1772537109791997200,2.6639970703125,-0.38248053193092346,0.5346338748931885,-0.3211745619773865
1772537109802045400,2.67404541015625,-0.4411744773387909,0.4755803942680359,-0.019768111407756805
1772537109812093200,2.68409326171875,-0.5092728137969971,0.1357881873846054,0.19341020286083221
1772537109822142200,2.69414208984375,-0.6181095838546753,-0.29831185936927795,0.1752929836511612
1772537109832190200,2.704190185546875,-0.7164356112480164,-0.6532145738601685,-0.0940423458814621
1772537109842238200,2.71423828125,-0.6759102940559387,-0.9270764589309692,-0.5414581894874573
1772537109852287200,2.724287353515625,-0.44403791427612305,-0.9214217662811279,-0.9577766060829163
1772537109862335200,2.734335205078125,-0.09176533669233322,-0.4757921099662781,-1.0545073747634888
1772537109872383200,2.74438330078125,0.24413996934890747,0.10170931369066238,-0.9181013703346252
1772537109882432300,2.754432373046875,0.2417609691619873,0.3890382945537567,-0.7397246956825256
1772537109892480300,2.764480224609375,0.10614188015460968,0.2807200849056244,-0.8182224035263062
1772537109902528300,2.7745283203125,0.1106647253036499,-0.1452072560787201,-0.9334363341331482
1772537109912577300,2.784577392578125,0.2054293155670166,-0.612457275390625,-1.1764447689056396
1772537109922625300,2.794625244140625,0.4635138511657715,-0.730065643787384,-1.5697145462036133
1772537109932673300,2.80467333984375,0.8782186508178711,-0.7412917017936707,-2.105553388595581
1772537109942722300,2.814722412109375,1.1418676376342773,-0.8067396879196167,-2.5946130752563477
1772537109952770300,2.824770263671875,1.0531255006790161,-0.692558765411377,-2.9840970039367676
1772537109962819300,2.8348193359375,0.8631491661071777,-0.20864428579807281,-2.9783380031585693
1772537109972867300,2.844867431640625,0.7620169520378113,0.32587212324142456,-2.5189151763916016
1772537109982915000,2.8549150390625,0.6932434439659119,0.749941349029541,-1.8170769214630127
1772537109992964400,2.86496435546875,0.6277254223823547,0.9605947136878967,-0.9209133982658386
1772537110003012000,2.87501220703125,0.5172495245933533,0.9786390066146851,-0.04902080446481705
1772537110013060400,2.885060302734375,0.35012736916542053,0.8285658955574036,0.6018080711364746
1772537110023109000,2.895109130859375,0.14690262079238892,0.5859742760658264,1.0166034698486328
1772537110033157400,2.905157470703125,-0.035475168377161026,0.3347090184688568,1.28620183467865
1772537110043206400,2.915206298828125,-0.109415702521801,0.20221728086471558,1.4989559650421143
1772537110053255400,2.92525537109375,-0.0738728940486908,0.25819000601768494,1.689444899559021
1772537110063303400,2.935303466796875,0.01546364463865757,0.39084818959236145,1.8532801866531372
1772537110073351400,2.945351318359375,0.10210319608449936,0.5750020146369934,1.9903829097747803
1772537110083400200,2.955400146484375,0.15551875531673431,0.7470145225524902,2.095149040222168
1772537110093448400,2.965448486328125,0.13750194013118744,0.8762623071670532,2.149271011352539
1772537110103496200,2.97549609375,0.0380733497440815,0.9309585690498352,2.1227707862854004
1772537110113545500,2.98554541015625,-0.10940825194120407,0.8617802858352661,2.0260119438171387
1772537110123593200,2.99559326171875,-0.24484783411026,0.6544404029846191,1.88079035282135
1772537110133641200,3.00564111328125,-0.3473574221134186,0.4087204039096832,1.7116568088531494
1772537110143690200,3.015690185546875,-0.46031805872917175,0.23282764852046967,1.5617114305496216
1772537110153738200,3.02573828125,-0.5548898577690125,0.1038702055811882,1.4454820156097412
1772537110163787300,3.035787353515625,-0.5500665903091431,0.18318286538124084,1.3461259603500366
1772537110173835300,3.045835205078125,-0.3875221610069275,0.22249752283096313,1.182547926902771
1772537110183883500,3.055883544921875,-0.18168404698371887,0.20216694474220276,0.9656766057014465
1772537110193932300,3.065932373046875,0.0030429279431700706,0.1761728972196579,0.7038452625274658
1772537110203980500,3.07598046875,0.07288752496242523,0.08309328556060791,0.3707889914512634
1772537110214028300,3.0860283203125,-0.011136806569993496,-0.12131097912788391,-0.04689453914761543
1772537110224077600,3.09607763671875,-0.21569819748401642,-0.4563624858856201,-0.48356375098228455
1772537110234125300,3.106125244140625,-0.4500094950199127,-0.8092914819717407,-0.8941134810447693
1772537110244173300,3.11617333984375,-0.3780125379562378,-0.5361958146095276,-0.8841540217399597
1772537110254222300,3.126222412109375,-0.07267393916845322,-0.3327646255493164,-0.8043614625930786
1772537110264270300,3.136270263671875,-0.0513225756585598,-0.12967011332511902,-0.8532613515853882
1772537110274318300,3.146318359375,-0.01028699241578579,-0.1857277899980545,-1.037373423576355
1772537110284367400,3.156367431640625,0.0835510864853859,-0.06443251669406891,-1.1781041622161865
1772537110294415400,3.166415283203125,0.15361273288726807,0.14281414449214935,-1.1535115242004395
1772537110304463400,3.17646337890625,0.17687810957431793,0.26513341069221497,-0.8660224080085754
1772537110314512100,3.18651220703125,0.08450502902269363,0.16671548783779144,-0.32865992188453674
1772537110324560400,3.196560302734375,-0.03380909562110901,-0.16349758207798004,0.36580967903137207
1772537110334608400,3.2066083984375,-0.12117329239845276,-0.5778761506080627,0.9058398604393005
1772537110344657400,3.216657470703125,-0.1528225690126419,-0.8079149127006531,0.9509197473526001
1772537110354705400,3.226705322265625,-0.13729608058929443,-0.6332153081893921,0.5183762907981873
1772537110364754400,3.23675439453125,-0.08405362069606781,-0.2007184624671936,-0.08664488047361374
1772537110374802400,3.246802490234375,0.06022552400827408,0.06317151337862015,-0.5793547034263611
1772537110384850200,3.25685009765625,0.20703813433647156,0.11669039726257324,-0.928355872631073
1772537110394899500,3.2668994140625,0.28254595398902893,0.07731209695339203,-1.1526381969451904
1772537110404947200,3.276947265625,0.3070603311061859,0.101484015583992,-1.1894934177398682
1772537110414995500,3.286995361328125,0.2937251031398773,0.27052950859069824,-1.1118148565292358
1772537110425044200,3.297044189453125,0.2731977105140686,0.41993388533592224,-0.8896710276603699
1772537110435092500,3.307092529296875,0.2896254360675812,0.43332186341285706,-0.6406417489051819
1772537110445140500,3.317140380859375,0.3172762393951416,0.3210320770740509,-0.4225749373435974
1772537110455189500,3.327189453125,0.34950900077819824,0.1562758833169937,-0.2914566099643707
1772537110465237500,3.337237548828125,0.3467147946357727,0.00564084155485034,-0.34073469042778015
1772537110475285200,3.34728515625,0.33211907744407654,-0.0284071397036314,-0.5454241633415222
1772537110485334300,3.357334228515625,0.34328946471214294,0.05690376088023186,-0.7332686185836792
1772537110495382300,3.36738232421875,0.40042784810066223,0.22740572690963745,-0.8343347907066345
1772537110505430500,3.377430419921875,0.48076874017715454,0.4400080144405365,-0.8289017081260681
1772537110515479300,3.387479248046875,0.5164644122123718,0.5838932991027832,-0.7394394278526306
1772537110525527600,3.397527587890625,0.5210615992546082,0.5614199042320251,-0.5715761780738831
1772537110535575300,3.4075751953125,0.49117451906204224,0.3970498740673065,-0.33317476511001587
1772537110545624300,3.417624267578125,0.44210922718048096,0.19650134444236755,-0.004779575392603874
1772537110555672300,3.42767236328125,0.3796969950199127,0.14038534462451935,0.4008813798427582
1772537110565721300,3.437721435546875,0.29918617010116577,0.14929653704166412,0.8344283103942871
1772537110575769300,3.447769287109375,0.18887005746364594,0.18977366387844086,1.2029227018356323
1772537110585817300,3.4578173828125,0.059172242879867554,0.2371092140674591,1.4661537408828735
1772537110595866400,3.467866455078125,-0.05451277643442154,0.2815845310688019,1.6187348365783691
1772537110605914400,3.477914306640625,-0.14530685544013977,0.3457914888858795,1.6706254482269287
1772537110615962400,3.48796240234375,-0.1991700977087021,0.39294567704200745,1.645511507987976
1772537110626011400,3.498011474609375,-0.19932642579078674,0.4217616319656372,1.5659384727478027
1772537110636059400,3.508059326171875,-0.1321103721857071,0.3401000499725342,1.4312090873718262
1772537110646107400,3.518107421875,-0.057320013642311096,0.17554572224617004,1.2763886451721191
1772537110656156400,3.528156494140625,-0.002270611235871911,-0.04872839152812958,1.1335409879684448
1772537110666204400,3.538204345703125,0.013818344101309776,-0.22113345563411713,0.9967314600944519
1772537110676252400,3.54825244140625,0.025318672880530357,-0.3327856659889221,0.8598836064338684
1772537110686301400,3.558301513671875,0.037581197917461395,-0.37868738174438477,0.72310870885849
1772537110696349400,3.568349365234375,0.008044078014791012,-0.34627804160118103,0.616126298904419
1772537110706397200,3.578397216796875,-0.07725803554058075,-0.2886698842048645,0.5403178334236145
1772537110716446500,3.588446533203125,-0.21001821756362915,-0.26329901814460754,0.4658811390399933
1772537110726494200,3.598494140625,-0.3798868656158447,-0.2753679156303406,0.37169286608695984
1772537110736542500,3.60854248046875,-0.513009786605835,-0.31006306409835815,0.2501128911972046
1772537110746591200,3.61859130859375,-0.5131466388702393,-0.4968017637729645,0.018853049725294113
1772537110756639200,3.62863916015625,-0.38348615169525146,-0.7397481203079224,-0.3350808024406433
1772537110766688300,3.638688232421875,-0.21291093528270721,-1.0075592994689941,-0.6216371655464172
1772537110776736300,3.648736328125,-0.1181119903922081,-1.0854333639144897,-0.8933286070823669
1772537110786784500,3.658784423828125,-0.13937227427959442,-0.8232626914978027,-1.080338954925537
1772537110796833300,3.668833251953125,-0.22565656900405884,-0.4916869103908539,-1.00830078125
1772537110806881500,3.678881591796875,-0.32694298028945923,-0.3863154947757721,-0.6828653812408447
1772537110816929300,3.68892919921875,-0.34498509764671326,-0.49313727021217346,-0.380391001701355
1772537110826978600,3.698978515625,-0.23401489853858948,-0.6104529500007629,-0.4814491868019104
1772537110837026300,3.7090263671875,-0.04814409464597702,-0.4913969039916992,-1.061812400817871
1772537110847074300,3.71907421875,0.09726769477128983,-0.13748781383037567,-1.7181601524353027
1772537110857123300,3.729123291015625,0.16868728399276733,0.06254300475120544,-2.103109836578369
1772537110867171300,3.73917138671875,0.14095471799373627,0.10604228079319,-2.1807219982147217
1772537110877219300,3.74921923828125,0.07733873277902603,0.15451261401176453,-1.987330436706543
1772537110887268400,3.759268310546875,0.009998305700719357,0.20028090476989746,-1.572884440422058
1772537110897316400,3.76931640625,-0.024772191420197487,0.17938892543315887,-1.0608364343643188
1772537110907364400,3.7793642578125,-0.031138211488723755,0.18641355633735657,-0.5831313133239746
1772537110917413400,3.789413330078125,-0.04038923606276512,0.22340965270996094,-0.2078418731689453
1772537110927461400,3.79946142578125,-0.07385504990816116,0.1799796223640442,0.05109620839357376
1772537110937509400,3.80950927734375,-0.11088310927152634,0.09503676742315292,0.17457419633865356
1772537110947558400,3.819558349609375,-0.11841346323490143,0.04963226616382599,0.1737973541021347
1772537110957606400,3.8296064453125,-0.08295773714780807,0.07660156488418579,0.09697315096855164
1772537110967655400,3.839655517578125,-0.014486797153949738,0.17221809923648834,0.01276027038693428
1772537110977703400,3.849703369140625,0.05927743762731552,0.3087809979915619,-0.025911757722496986
1772537110987751200,3.859751220703125,0.12125558406114578,0.40929776430130005,-0.0006788397440686822
1772537110997800400,3.869800537109375,0.15654194355010986,0.554103672504425,0.15499889850616455
1772537111007848200,3.87984814453125,0.1549975723028183,0.6281382441520691,0.47645309567451477
1772537111017896400,3.889896484375,0.1194813922047615,0.5737980008125305,0.9360513091087341
1772537111027945200,3.8999453125,0.06517288088798523,0.4136618971824646,1.4182888269424438
1772537111037993500,3.909993408203125,-0.05804865434765816,0.20560190081596375,1.8183618783950806
1772537111048040700,3.920040771484375,-0.2476060688495636,-0.02462119050323963,2.0583343505859375
1772537111058089500,3.93008935546875,-0.4267129600048065,-0.12922403216362,2.138282060623169
1772537111068137500,3.940137451171875,-0.5308268666267395,-0.014028200879693031,2.098507881164551
1772537111078185500,3.950185546875,-0.5630420446395874,0.2415923774242401,1.9998579025268555
1772537111088234500,3.960234375,-0.5377191305160522,0.49552640318870544,1.8466273546218872
1772537111098282500,3.970282470703125,-0.5026823282241821,0.6325505375862122,1.6694717407226562
1772537111108330500,3.98033056640625,-0.45754626393318176,0.5730685591697693,1.5012662410736084
1772537111118379500,3.990379638671875,-0.3866521120071411,0.4146765470504761,1.3383066654205322
1772537111128427500,4.000427490234375,-0.28423359990119934,0.2156963348388672,1.120766282081604
1772537111138475500,4.0104755859375,-0.17489297688007355,0.050581417977809906,0.8369343280792236
1772537111148524500,4.020524658203125,-0.092779740691185,-0.030723024159669876,0.5328548550605774
1772537111158572500,4.030572509765625,-0.09566394239664078,-0.008815063163638115,0.25289270281791687
1772537111168620500,4.04062060546875,-0.12609587609767914,0.09614597260951996,0.03164155036211014
1772537111178669600,4.050669677734375,-0.15270937979221344,0.21641460061073303,-0.1252090483903885
1772537111188717600,4.060717529296875,-0.18331842124462128,0.3102947473526001,-0.2288249284029007
1772537111198766600,4.0707666015625,-0.21717119216918945,0.31309372186660767,-0.3242606222629547
1772537111208814600,4.080814697265625,-0.23545166850090027,0.19570772349834442,-0.4209190011024475
1772537111218862600,4.090862548828125,-0.19131723046302795,-0.080731600522995,-0.5682698488235474
1772537111228911600,4.10091162109375,-0.14646081626415253,-0.4492909908294678,-0.7988697290420532
1772537111238959600,4.110959716796875,-0.07938163727521896,-0.7311609983444214,-0.9736692905426025
1772537111249007400,4.12100732421875,0.013860688544809818,-0.8887820839881897,-1.0291229486465454
1772537111259056600,4.131056640625,-0.017494305968284607,-0.7055770754814148,-1.1769014596939087
1772537111269104400,4.1411044921875,-0.07503962516784668,-0.1938730627298355,-1.3479139804840088
1772537111279152600,4.151152587890625,0.030892401933670044,0.11736444383859634,-1.433298110961914
1772537111289201400,4.161201416015625,0.31311583518981934,-0.09276535362005234,-1.2937860488891602
1772537111299249400,4.17124951171875,0.49008288979530334,-0.5090688467025757,-1.0658351182937622
1772537111309297700,4.181297607421875,0.419355183839798,-0.5483136773109436,-1.0892033576965332
1772537111319346400,4.191346435546875,0.32016390562057495,-0.3342680037021637,-1.4281193017959595
1772537111329394700,4.201394775390625,0.28564372658729553,-0.16596153378486633,-1.7768738269805908
1772537111339442400,4.2114423828125,0.2584429979324341,0.0206924956291914,-1.8639205694198608
1772537111349491700,4.22149169921875,0.20128729939460754,0.2520040273666382,-1.7291675806045532
1772537111359539500,4.23153955078125,0.11581820994615555,0.4231158494949341,-1.4997575283050537
1772537111369588700,4.241588623046875,0.061944860965013504,0.42909011244773865,-1.2292970418930054
1772537111379636500,4.251636474609375,0.07341296225786209,0.35023126006126404,-0.8765200972557068
1772537111389684500,4.2616845703125,0.16727767884731293,0.21514692902565002,-0.4870080053806305
1772537111399733500,4.2717333984375,0.3275853097438812,0.05315616354346275,-0.19117501378059387
1772537111409781500,4.281781494140625,0.5046490430831909,-0.04343375936150551,-0.09180288761854172
1772537111419829500,4.29182958984375,0.668117880821228,-0.027904868125915527,-0.25136592984199524
1772537111429878500,4.30187841796875,0.8124228715896606,0.03925153240561485,-0.598482072353363
1772537111439926500,4.311926513671875,0.916784405708313,0.14483708143234253,-1.0482665300369263
1772537111449974500,4.321974609375,0.9255688190460205,0.26324576139450073,-1.5053040981292725
1772537111460023600,4.3320234375,0.8469957709312439,0.2843547761440277,-1.8436979055404663
1772537111470071600,4.342071533203125,0.717660665512085,0.2382378727197647,-1.9485068321228027
1772537111480119600,4.35211962890625,0.5855827927589417,0.3391120135784149,-1.8093119859695435
1772537111490168600,4.36216845703125,0.5599682331085205,0.4599428176879883,-1.3825819492340088
1772537111500216600,4.372216552734375,0.6152442693710327,0.5129104256629944,-0.7335927486419678
1772537111510264600,4.3822646484375,0.6017606854438782,0.38221633434295654,-0.038786809891462326
1772537111520313600,4.392313720703125,0.428877592086792,0.2718810439109802,0.5565372705459595
1772537111530361300,4.402361328125,0.19401714205741882,0.1950262188911438,1.045671820640564
1772537111540409600,4.41240966796875,-0.03134673833847046,0.17204739153385162,1.4158061742782593
1772537111550458400,4.422458251953125,-0.21247471868991852,0.17200292646884918,1.6546642780303955
1772537111560506600,4.432506591796875,-0.3468322455883026,0.1726769655942917,1.7943700551986694
1772537111570554400,4.442554443359375,-0.3997207581996918,0.1312328577041626,1.88609778881073
1772537111580603600,4.452603759765625,-0.3958272337913513,0.06205112114548683,1.9260926246643066
1772537111590651400,4.4626513671875,-0.3565267026424408,-0.00008655273268232122,1.9311150312423706
1772537111600700700,4.47270068359375,-0.2820700407028198,-0.05133802071213722,1.9550414085388184
1772537111610748400,4.48274853515625,-0.21683751046657562,-0.10024964064359665,1.8559422492980957
1772537111620796400,4.49279638671875,-0.1489950716495514,-0.16016490757465363,1.7204902172088623
1772537111630845400,4.502845458984375,-0.09974070638418198,-0.21020783483982086,1.5507272481918335
1772537111640893400,4.5128935546875,-0.06191769614815712,-0.31996574997901917,1.3574837446212769
1772537111650941700,4.522941650390625,-0.003628823207691312,-0.4141276776790619,1.1550915241241455
1772537111660990500,4.532990478515625,0.04631903022527695,-0.4097462296485901,0.9711845517158508
1772537111671038700,4.543038818359375,0.010421481914818287,-0.3443850874900818,0.7598105072975159
1772537111681086500,4.55308642578125,-0.08954053372144699,-0.3849490284919739,0.4823535978794098
1772537111691135500,4.563135498046875,-0.14191798865795135,-0.5862666964530945,0.14740437269210815
1772537111701183500,4.57318359375,-0.1004035696387291,-0.8305051922798157,-0.23860245943069458
1772537111711231500,4.5832314453125,-0.08543393760919571,-0.8421658277511597,-0.6500094532966614
1772537111721280500,4.593280517578125,-0.16150526702404022,-0.5796801447868347,-1.041797399520874
1772537111731328500,4.60332861328125,-0.20631055533885956,-0.24415966868400574,-1.365148663520813
1772537111741376500,4.61337646484375,-0.23429106175899506,-0.08133134245872498,-1.6772966384887695
1772537111751425500,4.623425537109375,-0.17453798651695251,0.05619802325963974,-1.90582275390625
1772537111761473500,4.6334736328125,0.14694097638130188,0.08586563915014267,-1.9469345808029175
1772537111771521500,4.643521484375,0.5680552124977112,-0.13667581975460052,-1.686814785003662
1772537111781570600,4.653570556640625,0.8425762057304382,-0.4245353043079376,-1.3020141124725342
1772537111791618600,4.66361865234375,0.8373715877532959,-0.2929386496543884,-1.434712529182434
1772537111801667300,4.673667236328125,0.557166576385498,-0.020970795303583145,-1.834460735321045
1772537111811715600,4.683715576171875,0.16251380741596222,0.06306418776512146,-2.0097978115081787
1772537111821763600,4.693763671875,-0.1605611890554428,0.03268470987677574,-1.7756940126419067
1772537111831812600,4.7038125,-0.35039183497428894,-0.05666434392333031,-1.3059476613998413
1772537111841860600,4.713860595703125,-0.45558589696884155,-0.0936141088604927,-0.6990118622779846
1772537111851908400,4.723908447265625,-0.5007501840591431,-0.08476389199495316,-0.05359957739710808
1772537111861957600,4.73395751953125,-0.4842185974121094,-0.08774449676275253,0.4653610289096832
1772537111872005400,4.74400537109375,-0.4141489863395691,-0.11787576973438263,0.774740993976593
1772537111882053600,4.7540537109375,-0.27605849504470825,-0.1259922832250595,0.8548970818519592
1772537111892102400,4.764102294921875,-0.09026837348937988,-0.1278650164604187,0.71003258228302
1772537111902150700,4.774150634765625,0.08095024526119232,-0.14653697609901428,0.3503588140010834
1772537111912198700,4.78419873046875,0.22930456697940826,-0.1335149109363556,-0.13348668813705444
1772537111922247400,4.794247314453125,0.3562353551387787,-0.10938961058855057,-0.6471129655838013
1772537111932295700,4.804295654296875,0.4258735477924347,-0.03521524369716644,-1.0808748006820679
1772537111942343400,4.814343505859375,0.4560897648334503,0.08661558479070663,-1.3243029117584229
1772537111952392700,4.824392822265625,0.493392676115036,0.3113962411880493,-1.312494158744812
1772537111962440400,4.8344404296875,0.5206573009490967,0.4981650412082672,-1.020573377609253
1772537111972488700,4.84448876953125,0.5050690174102783,0.5258517861366272,-0.5484175682067871
1772537111982537500,4.854537353515625,0.4188329577445984,0.5108387470245361,-0.006683202926069498
1772537111992585500,4.86458544921875,0.2695979177951813,0.4845946431159973,0.5686836838722229
1772537112002633500,4.874633544921875,0.07100120931863785,0.4679245948791504,1.1171313524246216
1772537112012682500,4.8846826171875,-0.13090874254703522,0.4120709002017975,1.5609642267227173
1772537112022730500,4.89473046875,-0.3471904397010803,0.3311350643634796,1.876308560371399
1772537112032779500,4.904779541015625,-0.5586805939674377,0.26801812648773193,2.046293020248413
1772537112042827500,4.91482763671875,-0.6777851581573486,0.2066916525363922,2.0898847579956055
1772537112052875500,4.92487548828125,-0.6686882972717285,0.09864188730716705,2.0360500812530518
1772537112062924500,4.934924560546875,-0.5746233463287354,0.013244965113699436,1.863828420639038
1772537112072972500,4.94497265625,-0.4327934980392456,0.04939471185207367,1.5991954803466797
1772537112083020800,4.955020751953125,-0.2967104911804199,0.13422757387161255,1.2486435174942017
1772537112093069600,4.965069580078125,-0.21247977018356323,0.17836174368858337,0.8251439929008484
1772537112103117800,4.975117919921875,-0.16517697274684906,0.22097977995872498,0.40912091732025146
1772537112113165600,4.98516552734375,-0.11629465222358704,0.24766571819782257,0.11217714101076126
1772537112123214800,4.99521484375,-0.0791773796081543,0.1496153175830841,-0.11180296540260315
1772537112133262600,5.0052626953125,-0.10004483908414841,-0.06837426126003265,-0.3220989406108856
1772537112143310600,5.015310546875,-0.1902216076850891,-0.31095415353775024,-0.46439963579177856
1772537112153359600,5.025359619140625,-0.31160929799079895,-0.4740128517150879,-0.5805770754814148
1772537112163407600,5.03540771484375,-0.4779609739780426,-0.441241592168808,-0.6912418603897095
1772537112173455600,5.04545556640625,-0.6419411301612854,-0.20527033507823944,-0.8013752698898315
1772537112183504600,5.055504638671875,-0.7519962787628174,-0.024703482165932655,-0.9895662069320679
1772537112193552400,5.065552490234375,-0.7991363406181335,-0.048101216554641724,-1.1487231254577637
1772537112203600600,5.0756005859375,-0.8385775089263916,-0.08497854322195053,-1.4099421501159668
1772537112213649400,5.0856494140625,-0.6992941498756409,0.12430570274591446,-1.7758378982543945
1772537112223697700,5.09569775390625,-0.27161261439323425,0.3787965774536133,-2.2067432403564453
1772537112233745700,5.10574560546875,0.31577980518341064,0.2660793662071228,-2.34051513671875
1772537112243794700,5.115794677734375,0.7555555701255798,-0.1597057729959488,-2.2176437377929688
1772537112253842700,5.1258427734375,0.8741618394851685,-0.4669959545135498,-2.0201575756073
1772537112263890400,5.135890380859375,0.6941809058189392,-0.47192466259002686,-1.8530136346817017
1772537112273939700,5.145939697265625,0.3452133238315582,-0.372320294380188,-1.6258296966552734
1772537112283987500,5.155987548828125,-0.0001073253879440017,-0.2788252532482147,-1.1692438125610352
1772537112294036700,5.16603662109375,-0.23364152014255524,-0.31228598952293396,-0.4848513901233673
1772537112304084500,5.17608447265625,-0.3722718358039856,-0.4355301558971405,0.2836170792579651
1772537112314132700,5.1861328125,-0.4536558985710144,-0.5814588665962219,0.9487090706825256
1772537112324181500,5.196181396484375,-0.500606119632721,-0.6385136246681213,1.4261057376861572
1772537112334229800,5.206229736328125,-0.46737223863601685,-0.5998101830482483,1.7163492441177368
1772537112344277500,5.216277587890625,-0.3322908580303192,-0.5642404556274414,1.738210916519165
1772537112354326800,5.226326904296875,-0.1827588975429535,-0.5307674407958984,1.4625580310821533
1772537112364374500,5.23637451171875,-0.08315081149339676,-0.39463546872138977,0.9307236671447754
1772537112374422500,5.246422607421875,0.0457477793097496,-0.18047204613685608,0.2627940773963928
1772537112384471600,5.256471435546875,0.24836985766887665,0.02436712570488453,-0.3313233256340027
1772537112394519600,5.26651953125,0.46761006116867065,0.10706892609596252,-0.759060263633728
1772537112404567800,5.27656787109375,0.5945094227790833,0.12657658755779266,-1.029306411743164
1772537112414616600,5.286616455078125,0.6283619403839111,-0.005634716246277094,-1.159085750579834
1772537112424664600,5.29666455078125,0.6078633069992065,-0.12542343139648438,-1.1357334852218628
1772537112434712600,5.306712646484375,0.5610153675079346,-0.10847960412502289,-0.9053791761398315
1772537112444761600,5.31676171875,0.49348321557044983,-0.018396317958831787,-0.5277056097984314
1772537112454809600,5.3268095703125,0.40717336535453796,0.06119624525308609,-0.06822779029607773
1772537112464857600,5.336857666015625,0.29840055108070374,0.07090799510478973,0.41697990894317627
1772537112474906600,5.34690673828125,0.16105866432189941,0.04343029856681824,0.8484852313995361
1772537112484954600,5.35695458984375,-0.003213636577129364,0.046055641025304794,1.2338321208953857
1772537112495002600,5.367002685546875,-0.15248088538646698,0.05204056575894356,1.5793535709381104
1772537112505051600,5.3770517578125,-0.27277347445487976,0.03585387021303177,1.8548176288604736
1772537112515099600,5.387099609375,-0.3458799123764038,0.05825797840952873,2.0208044052124023
1772537112525147600,5.397147705078125,-0.3763187825679779,0.1475236713886261,2.0589962005615234
1772537112535196400,5.407196533203125,-0.36914822459220886,0.2825542092323303,1.981959342956543
1772537112545244700,5.41724462890625,-0.3433893322944641,0.38968437910079956,1.8452448844909668
1772537112555292700,5.427292724609375,-0.3095317482948303,0.41959166526794434,1.68889582157135
1772537112565341700,5.437341796875,-0.26147526502609253,0.3266577422618866,1.5116562843322754
1772537112575389700,5.4473896484375,-0.22182559967041016,0.1504717916250229,1.2939308881759644
1772537112585437400,5.4574375,-0.21293038129806519,0.012132296338677406,1.0445983409881592
1772537112595486700,5.46748681640625,-0.21429045498371124,-0.002691923175007105,0.8351625204086304
1772537112605534500,5.477534423828125,-0.20472277700901031,0.0003499393642414361,0.678130030632019
1772537112615583700,5.487583740234375,-0.24659965932369232,-0.030671892687678337,0.5442159175872803
1772537112625631500,5.497631591796875,-0.3936287760734558,-0.08718443661928177,0.37126675248146057
1772537112635679700,5.5076796875,-0.5678336024284363,-0.17850342392921448,0.13376446068286896
1772537112645728500,5.517728515625,-0.6825101375579834,-0.3670022487640381,-0.1873840093612671
1772537112655776500,5.527776611328125,-0.6666006445884705,-0.6006485223770142,-0.5958617925643921
1772537112665824800,5.53782470703125,-0.6054576635360718,-0.6001894474029541,-1.0588467121124268
1772537112675873500,5.54787353515625,-0.4849086403846741,-0.37471848726272583,-1.4036800861358643
1772537112685921800,5.557921875,-0.32303157448768616,-0.10110025107860565,-1.4684371948242188
1772537112695969500,5.567969482421875,-0.20840859413146973,-0.005426457151770592,-1.2224119901657104
1772537112706018600,5.5780185546875,-0.15887247025966644,-0.15134212374687195,-0.9913145899772644
1772537112716066600,5.588066650390625,-0.1677490472793579,-0.5042458176612854,-0.7933016419410706
1772537112726114600,5.598114501953125,-0.20912125706672668,-0.768023669719696,-0.5397263169288635
1772537112736163600,5.60816357421875,-0.1498749852180481,-0.8480343818664551,-0.3177574574947357
1772537112746211600,5.618211669921875,0.07430432736873627,-0.7715017795562744,-0.31945788860321045
1772537112756259600,5.628259521484375,0.3648506700992584,-0.5738129615783691,-0.5529217720031738
1772537112766308600,5.63830859375,0.5186258554458618,-0.36521047353744507,-0.8084344863891602
1772537112776356600,5.648356689453125,0.4685315191745758,-0.2831867039203644,-0.9666444063186646
1772537112786404600,5.658404541015625,0.2432909458875656,-0.31140634417533875,-1.0170929431915283
1772537112796453600,5.66845361328125,-0.10257484763860703,-0.38825398683547974,-1.006076455116272
1772537112806501600,5.678501708984375,-0.4365179240703583,-0.3776665925979614,-0.9209442734718323
1772537112816549600,5.688549560546875,-0.5994341373443604,-0.22963611781597137,-0.7186460494995117
1772537112826598700,5.6985986328125,-0.540513813495636,0.007694937754422426,-0.44271165132522583
1772537112836646700,5.708646728515625,-0.3460109233856201,0.1851927638053894,-0.20556673407554626
1772537112846694700,5.718694580078125,-0.1467721313238144,0.2563670575618744,-0.05351036414504051
1772537112856743700,5.72874365234375,0.0007414240390062332,0.2563633322715759,0.0145259452983737
1772537112866791700,5.738791748046875,0.08918819576501846,0.16251221299171448,0.017464743927121162
1772537112876840700,5.7488408203125,0.12783919274806976,0.0036069853231310844,-0.02793229930102825
1772537112886888400,5.758888427734375,0.13871340453624725,-0.11488344520330429,-0.08655193448066711
1772537112896936700,5.768936767578125,0.17349828779697418,-0.09461145848035812,-0.08649494498968124
1772537112906985500,5.7789853515625,0.24731631577014923,0.0210040844976902,-0.046130478382110596
1772537112917033700,5.78903369140625,0.3566201627254486,0.19397106766700745,0.0026618295814841986
1772537112927081500,5.79908154296875,0.4793660640716553,0.3664783835411072,0.051970791071653366
1772537112937130800,5.809130859375,0.5784527063369751,0.48868340253829956,0.0704941377043724
1772537112947178500,5.819178466796875,0.6063559651374817,0.6181007623672485,0.05499481037259102
1772537112957226500,5.8292265625,0.5866405963897705,0.8028903603553772,0.03966565430164337
1772537112967275500,5.839275634765625,0.5595221519470215,0.9660962820053101,0.06670232862234116
1772537112977323500,5.849323486328125,0.5240451097488403,0.9836806058883667,0.1582183986902237
1772537112987371800,5.859371826171875,0.48681652545928955,0.862917959690094,0.3303065299987793
1772537112997420500,5.869420654296875,0.44999033212661743,0.7035200595855713,0.6049932241439819
1772537113007468800,5.87946875,0.38322675228118896,0.5544514656066895,0.9058891534805298
1772537113017516500,5.8895166015625,0.2320833057165146,0.4677871763706207,1.147741675376892
1772537113027565800,5.89956591796875,0.042082738131284714,0.4526558816432953,1.3119319677352905
1772537113037613600,5.909613525390625,-0.1283254772424698,0.4345426559448242,1.4048534631729126
1772537113047661000,5.9196611328125,-0.22809761762619019,0.37432220578193665,1.4155422449111938
1772537113057710000,5.9297099609375,-0.21590380370616913,0.23179514706134796,1.3703426122665405
1772537113067758000,5.939758056640625,-0.13625876605510712,0.04655631631612778,1.2994686365127563
1772537113077806000,5.94980615234375,-0.06856387853622437,-0.0560920313000679,1.2406396865844727
1772537113087855000,5.959855224609375,-0.07914568483829498,-0.11868564039468765,1.1403964757919312
1772537113097903000,5.969903076171875,-0.1547490954399109,-0.11008229851722717,0.9769265651702881
1772537113107952000,5.9799521484375,-0.2826029360294342,-0.05573703348636627,0.8031497001647949
1772537113118000000,5.990000244140625,-0.4308600425720215,-0.014912636950612068,0.6959848999977112
1772537113128048000,6.000048095703125,-0.5827805995941162,-0.006649380549788475,0.6890662908554077
1772537113138097200,6.01009716796875,-0.7237949967384338,-0.08214813470840454,0.67074054479599
1772537113148145200,6.020145263671875,-0.8496490716934204,-0.1995392143726349,0.5329326391220093
1772537113158193200,6.030193115234375,-0.9049482345581055,-0.4294690787792206,0.19337612390518188
1772537113168242200,6.0402421875,-0.8584837913513184,-0.6278777718544006,-0.29487159848213196
1772537113178290200,6.050290283203125,-0.6973447203636169,-0.43845006823539734,-0.8243149518966675
1772537113188338000,6.060337890625,-0.39218002557754517,0.07985861599445343,-1.2932003736495972
1772537113198387200,6.07038720703125,0.0009422263829037547,0.7264501452445984,-1.830745816230774
1772537113208435000,6.08043505859375,0.35732483863830566,1.2149434089660645,-2.3481082916259766
1772537113218483200,6.090483154296875,0.5539020895957947,1.1926255226135254,-2.4858529567718506
1772537113228532000,6.100531982421875,0.5498029589653015,0.7642923593521118,-2.0751190185546875
1772537113238580200,6.110580322265625,0.39858680963516235,0.16701295971870422,-1.4071639776229858
1772537113248628200,6.120628173828125,0.15886181592941284,-0.40932413935661316,-0.75823575258255
1772537113258677000,6.130677001953125,0.018798189237713814,-0.6182525753974915,-0.4064953327178955
1772537113268725200,6.140725341796875,0.07277247309684753,-0.45603251457214355,-0.31013309955596924
1772537113278774000,6.15077392578125,0.120144784450531,-0.1836899369955063,-0.32215914130210876
1772537113288822300,6.160822265625,0.041425470262765884,-0.04210777208209038,-0.3265746533870697
1772537113298870000,6.1708701171875,-0.05173137038946152,-0.03784005716443062,-0.2511765658855438
1772537113308919300,6.180919189453125,-0.08660946041345596,-0.0093892402946949,-0.11728907376527786
1772537113318967000,6.190967041015625,-0.08915384113788605,0.10081582516431808,0.04171442240476608
1772537113329015000,6.20101513671875,-0.09021192044019699,0.20091499388217926,0.18223531544208527
1772537113339064000,6.21106396484375,-0.08895038068294525,0.10019664466381073,0.30056968331336975
1772537113349112000,6.221112060546875,-0.08117794245481491,-0.07863249629735947,0.39487674832344055
1772537113359160000,6.23116015625,-0.058156512677669525,-0.23349663615226746,0.40837177634239197
1772537113369209000,6.241208984375,0.0022101574577391148,-0.33065488934516907,0.35238388180732727
1772537113379257000,6.251257080078125,0.10578395426273346,-0.3323156237602234,0.1411917507648468
1772537113389305000,6.26130517578125,0.2328694611787796,-0.27823641896247864,-0.14311161637306213
1772537113399354000,6.27135400390625,0.3403698205947876,-0.18303532898426056,-0.4564242660999298
1772537113409402000,6.281402099609375,0.4238292872905731,-0.012388492934405804,-0.7554442286491394
1772537113419450000,6.2914501953125,0.5113956332206726,0.1762314885854721,-0.997113049030304
1772537113429499100,6.3014990234375,0.58668452501297,0.3404606282711029,-1.1235301494598389
1772537113439547100,6.311547119140625,0.6573754549026489,0.453722208738327,-1.1208813190460205
1772537113449595100,6.32159521484375,0.7364441752433777,0.5684522390365601,-0.9576173424720764
1772537113459644200,6.33164404296875,0.7880296111106873,0.5863367319107056,-0.6395144462585449
1772537113469692000,6.34169189453125,0.7491040825843811,0.5136723518371582,-0.23790976405143738
1772537113479740200,6.351740234375,0.635172963142395,0.4561917781829834,0.1572418212890625
1772537113489789000,6.361788818359375,0.42074111104011536,0.45683279633522034,0.5345448851585388
1772537113499837200,6.371837158203125,0.11831918358802795,0.4797018766403198,0.8720856308937073
1772537113509885200,6.38188525390625,-0.17012539505958557,0.455253005027771,1.1654794216156006
1772537113519934200,6.391934326171875,-0.3422124683856964,0.3347207307815552,1.4047887325286865
1772537113529982200,6.401982177734375,-0.38998717069625854,0.14175260066986084,1.5743939876556396
1772537113540030000,6.412030029296875,-0.3529418110847473,-0.011983426287770271,1.6473400592803955
1772537113550079200,6.422079345703125,-0.2577260732650757,-0.047089215368032455,1.6227010488510132
1772537113560127000,6.432126953125,-0.09957586228847504,0.06542561203241348,1.5319184064865112
1772537113570176000,6.442176025390625,0.05602944642305374,0.09669964760541916,1.3645679950714111
1772537113580224000,6.45222412109375,0.031742747873067856,0.039745282381772995,1.1051822900772095
1772537113590272300,6.462272216796875,-0.12076130509376526,-0.07680077105760574,0.7736940979957581
1772537113600321000,6.472321044921875,-0.28135576844215393,-0.21258443593978882,0.3960690498352051
1772537113610369300,6.482369384765625,-0.3313283920288086,-0.3987915813922882,0.03557104244828224
1772537113620417000,6.4924169921875,-0.2642710506916046,-0.5615602731704712,-0.24980691075325012
1772537113630466300,6.50246630859375,-0.1479913294315338,-0.565243661403656,-0.5083508491516113
1772537113640514000,6.51251416015625,-0.0854448601603508,-0.39201784133911133,-0.7832191586494446
1772537113650562000,6.52256201171875,-0.11696629971265793,-0.3046688139438629,-1.0934454202651978
1772537113660611000,6.532611083984375,-0.16729551553726196,-0.220005601644516,-1.4444777965545654
1772537113670659000,6.5426591796875,-0.2597825825214386,-0.14111824333667755,-1.6647769212722778
1772537113680707300,6.552707275390625,-0.25780224800109863,0.03737826272845268,-1.7971924543380737
1772537113690756000,6.562756103515625,-0.049849316477775574,0.21968601644039154,-1.8255271911621094
1772537113700804000,6.57280419921875,0.3226643204689026,0.19274760782718658,-1.6575649976730347
1772537113710852000,6.58285205078125,0.6627590656280518,-0.056962884962558746,-1.390496015548706
1772537113720901000,6.592901123046875,0.8222387433052063,-0.4183165431022644,-1.1917906999588013
1772537113730949000,6.60294921875,0.8143741488456726,-0.607970654964447,-1.0756115913391113
1772537113740997000,6.6129970703125,0.7153727412223816,-0.5117937922477722,-0.945320188999176
1772537113751046100,6.623046142578125,0.5107071995735168,-0.31116241216659546,-0.798291027545929
1772537113761094100,6.63309423828125,0.24856720864772797,-0.2101210057735443,-0.59788578748703
1772537113771142000,6.643141845703125,0.0016407734947279096,-0.2773815393447876,-0.34550973773002625
1772537113781191200,6.653191162109375,-0.19222404062747955,-0.3594990372657776,-0.08816447854042053
1772537113791239000,6.663239013671875,-0.2538676857948303,-0.3516310155391693,0.19624514877796173
1772537113801287200,6.673287109375,-0.1850963532924652,-0.4163990914821625,0.41894665360450745
1772537113811336000,6.6833359375,-0.06774202734231949,-0.5234392285346985,0.5004960894584656
1772537113821384200,6.69338427734375,0.03940067067742348,-0.5978333353996277,0.4275151193141937
1772537113831433000,6.703432861328125,0.11885873973369598,-0.5314335227012634,0.26606231927871704
1772537113841481200,6.713481201171875,0.18623511493206024,-0.38177239894866943,0.08260646462440491
1772537113851529200,6.723529296875,0.2723867893218994,-0.2411383092403412,-0.0824541300535202
1772537113861578200,6.733578125,0.32535305619239807,-0.07272906601428986,-0.2169775813817978
1772537113871626200,6.743626220703125,0.3155800700187683,0.06331133097410202,-0.33527305722236633
1772537113881674000,6.753674072265625,0.2388724982738495,0.1302616000175476,-0.4495306611061096
1772537113891723300,6.76372314453125,0.16272713243961334,0.20036664605140686,-0.5153871774673462
1772537113901771000,6.77377099609375,0.1449262946844101,0.3126676380634308,-0.46109145879745483
1772537113911819300,6.7838193359375,0.18271975219249725,0.37867167592048645,-0.3029843866825104
1772537113921868000,6.793867919921875,0.21427766978740692,0.3712923228740692,-0.08816821128129959
1772537113931916000,6.803916015625,0.20016318559646606,0.3011944591999054,0.14950719475746155
1772537113941964000,6.813964111328125,0.11107005923986435,0.22099469602108002,0.38833922147750854
1772537113952013000,6.824012939453125,0.001252484624274075,0.1940496265888214,0.5984679460525513
1772537113962061000,6.83406103515625,-0.07538557052612305,0.215337872505188,0.818753182888031
1772537113972109000,6.844109130859375,-0.10696772485971451,0.23427188396453857,1.053804874420166
1772537113982158000,6.854157958984375,-0.1078934445977211,0.28459498286247253,1.228110909461975
1772537113992206000,6.8642060546875,-0.09407509863376617,0.35756799578666687,1.3243958950042725
1772537114002254000,6.874254150390625,-0.07575734704732895,0.38586193323135376,1.3583570718765259
1772537114012303000,6.88430322265625,-0.0481606051325798,0.36026522517204285,1.3521838188171387
1772537114022351000,6.89435107421875,-0.026334667578339577,0.32786014676094055,1.2998061180114746
1772537114032399000,6.904399169921875,-0.018448248505592346,0.28826987743377686,1.178830623626709
1772537114042448100,6.9144482421875,-0.018813101574778557,0.20730631053447723,0.9900317192077637
1772537114052496600,6.92449658203125,0.0049343048594892025,0.13398656249046326,0.787813127040863
1772537114062545000,6.934544921875,0.011923504993319511,0.07014686614274979,0.6098446846008301
1772537114072593700,6.94459375,-0.006957774516195059,0.11417663842439651,0.5153935551643372
1772537114082642000,6.954641845703125,-0.03302985429763794,0.20525382459163666,0.5126702189445496
1772537114092689700,6.964689697265625,-0.19427786767482758,0.2462417334318161,0.48908525705337524
1772537114102738700,6.97473876953125,-0.4917263388633728,0.23082895576953888,0.4686042368412018
1772537114112786700,6.98478662109375,-0.7324425578117371,0.063341423869133,0.5481520295143127
1772537114122834700,6.994834716796875,-0.8399495482444763,-0.20989517867565155,0.7017879486083984
1772537114132883700,7.0048837890625,-0.8236901760101318,-0.3271626830101013,0.8897384405136108
1772537114142931700,7.014931640625,-0.7536250352859497,-0.31833669543266296,0.9334560632705688
1772537114152980700,7.024980712890625,-0.7174145579338074,-0.27223286032676697,0.7693094611167908
1772537114163028700,7.03502880859375,-0.6050028204917908,-0.3309268057346344,0.446623831987381
1772537114173076700,7.04507666015625,-0.45900166034698486,-0.48052453994750977,0.030362965539097786
1772537114183125800,7.055125732421875,-0.41891178488731384,-0.42922380566596985,-0.6167969107627869
1772537114193173800,7.065173828125,-0.3543277084827423,-0.015897739678621292,-1.2896310091018677
1772537114203221800,7.0752216796875,-0.19051295518875122,0.037767618894577026,-1.5545896291732788
1772537114213270800,7.085270751953125,-0.032594162970781326,-0.17673322558403015,-1.560397744178772
1772537114223318800,7.09531884765625,0.07879840582609177,-0.3790048360824585,-1.4645476341247559
1772537114233366800,7.10536669921875,0.1260484755039215,-0.44604992866516113,-1.709396481513977
1772537114243415800,7.115415771484375,0.13996030390262604,-0.5704099535942078,-2.0634348392486572
1772537114253463800,7.1254638671875,0.0781019926071167,-0.6935462355613708,-2.2020931243896484
1772537114263511600,7.135511474609375,-0.08326426148414612,-0.43998509645462036,-1.990162968635559
1772537114273560800,7.145560791015625,-0.3406403958797455,-0.1427462249994278,-1.2976616621017456
1772537114283608600,7.155608642578125,-0.5049382448196411,-0.06579738855361938,-0.3673036992549896
1772537114293656800,7.16565673828125,-0.5135605335235596,-0.3155944347381592,0.6489819884300232
1772537114303705600,7.17570556640625,-0.47456809878349304,-0.708251953125,1.5418314933776855
1772537114313753900,7.18575390625,-0.4689919948577881,-1.0419106483459473,2.2317042350769043
1772537114323801900,7.1958017578125,-0.48524099588394165,-1.282433271408081,2.692671060562134
1772537114333850600,7.2058505859375,-0.49104827642440796,-1.3501968383789062,2.8845458030700684
1772537114343899000,7.21589892578125,-0.39511188864707947,-1.1831926107406616,2.7047228813171387
1772537114353946600,7.225946533203125,-0.1732010841369629,-0.8623768091201782,2.240837812423706
1772537114363996000,7.235995849609375,0.12602823972702026,-0.382445365190506,1.599422574043274
1772537114374043600,7.246043701171875,0.4361397624015808,0.16924256086349487,0.8687193989753723
1772537114384091600,7.256091552734375,0.6984920501708984,0.6293603777885437,0.2576025128364563
1772537114394140700,7.266140625,0.8497225642204285,0.8907901048660278,-0.06018611043691635
1772537114404188700,7.276188720703125,0.853714108467102,0.9238876104354858,-0.10391414910554886
1772537114414236700,7.286236572265625,0.7420672178268433,0.7175578474998474,0.0549766980111599
1772537114424285700,7.29628564453125,0.5331336855888367,0.383784681558609,0.27747103571891785
1772537114434333700,7.306333740234375,0.26541489362716675,0.1128125712275505,0.49641135334968567
1772537114444382700,7.3163828125,0.009704825468361378,-0.04668521508574486,0.6598255634307861
1772537114454430700,7.3264306640625,-0.17012779414653778,-0.09698646515607834,0.755694568157196
1772537114464478700,7.336478759765625,-0.25313320755958557,-0.02220996469259262,0.8036085963249207
1772537114474527700,7.34652783203125,-0.2914177179336548,0.045570146292448044,0.785274863243103
1772537114484575700,7.35657568359375,-0.280643105506897,0.13938958942890167,0.7172646522521973
1772537114494623700,7.366623779296875,-0.18968923389911652,0.21719622611999512,0.598404586315155
1772537114504672800,7.3766728515625,-0.0340072363615036,0.19320355355739594,0.42376619577407837
1772537114514720800,7.386720703125,0.14283624291419983,0.07521352916955948,0.21647851169109344
1772537114524768800,7.396768798828125,0.3090936541557312,-0.007601993158459663,0.047446612268686295
1772537114534817800,7.40681787109375,0.446099191904068,-0.01697525568306446,-0.019602462649345398
1772537114544865800,7.41686572265625,0.5137040615081787,0.0254004318267107,-0.013309946283698082
1772537114554913800,7.426913818359375,0.4595649242401123,0.042927492409944534,0.0420241504907608
1772537114564962600,7.436962646484375,0.24093379080295563,-0.08886382728815079,0.032879386097192764
1772537114575010800,7.4470107421875,-0.06077653169631958,-0.3362797498703003,-0.08958101272583008
1772537114585058800,7.457058837890625,-0.2892967760562897,-0.5350639224052429,-0.27308985590934753
1772537114595107800,7.46710791015625,-0.35173115134239197,-0.5716472864151001,-0.42495501041412354
1772537114605155600,7.477155517578125,-0.23508548736572266,-0.5225809216499329,-0.5745589137077332
1772537114615203600,7.48720361328125,-0.033245306462049484,-0.45624130964279175,-0.7980726957321167
1772537114625252600,7.497252685546875,0.15918858349323273,-0.349825918674469,-1.1304889917373657
1772537114635300600,7.507300537109375,0.24410401284694672,-0.22106926143169403,-1.5724658966064453
1772537114645348900,7.517348876953125,0.15848417580127716,-0.042824696749448776,-1.9818331003189087
1772537114655397600,7.527397705078125,-0.07273465394973755,0.04982907697558403,-2.1896891593933105
1772537114665446000,7.53744580078125,-0.2952510714530945,0.16943830251693726,-2.1692745685577393
1772537114675493600,7.54749365234375,-0.26531314849853516,0.32224780321121216,-2.1307547092437744
1772537114685543000,7.55754296875,-0.09281222522258759,0.45103055238723755,-2.1221256256103516
1772537114695590700,7.567590576171875,0.042569831013679504,0.545654296875,-2.175981044769287
1772537114705638700,7.577638671875,0.1451481431722641,0.596690833568573,-2.1199519634246826
1772537114715687700,7.587687744140625,0.3232009708881378,0.5234056711196899,-1.9027899503707886
1772537114725735700,7.597735595703125,0.4892900586128235,0.3061615228652954,-1.6226352453231812
1772537114735784700,7.60778466796875,0.4638233184814453,0.12731774151325226,-1.3568507432937622
1772537114745832700,7.617832763671875,0.28435343503952026,0.07393228262662888,-1.0660345554351807
1772537114755881000,7.627880859375,0.14846616983413696,0.1141662523150444,-0.7012372016906738
1772537114765929700,7.6379296875,0.10251998156309128,0.13602733612060547,-0.28702566027641296
1772537114775977700,7.647977783203125,0.09404899924993515,0.059966664761304855,0.0988946184515953
1772537114786025700,7.658025634765625,0.07535387575626373,-0.06606796383857727,0.4372793436050415
1772537114796074800,7.66807470703125,0.0665057897567749,-0.26865676045417786,0.7576578855514526
1772537114806122800,7.678122802734375,0.03784724697470665,-0.48139992356300354,0.9927945137023926
1772537114816170800,7.688170654296875,0.015499863773584366,-0.5411117076873779,1.165502905845642
1772537114826219800,7.6982197265625,0.05967877805233002,-0.46568620204925537,1.3009896278381348
1772537114836267800,7.708267822265625,0.14757294952869415,-0.29012158513069153,1.3788365125656128
1772537114846315500,7.7183154296875,0.1884079873561859,-0.08565285056829453,1.2939213514328003
1772537114856364800,7.72836474609375,0.14421284198760986,0.25410231947898865,0.8338384032249451
1772537114866412500,7.73841259765625,0.12988635897636414,0.472883939743042,0.4028169512748718
1772537114876460800,7.748460693359375,0.16559535264968872,0.592741072177887,0.0938657745718956
1772537114886509600,7.758509521484375,0.21728837490081787,0.6234484314918518,-0.11814022064208984
1772537114896557800,7.768557861328125,0.23370330035686493,0.6349948048591614,-0.22204424440860748
1772537114906605800,7.778605712890625,0.20339760184288025,0.695026695728302,-0.2044580727815628
1772537114916654800,7.78865478515625,0.14720623195171356,0.7290672659873962,-0.08236278593540192
1772537114926702800,7.798702880859375,0.08653382956981659,0.6718729138374329,0.06187481805682182
1772537114936750600,7.80875048828125,0.08462300896644592,0.5962705612182617,0.20859156548976898
1772537114946799900,7.8187998046875,0.14193369448184967,0.6538803577423096,0.373477965593338
1772537114956847600,7.82884765625,0.23434485495090485,0.6548675894737244,0.5343800187110901
1772537114966895900,7.838895751953125,0.32317912578582764,0.4916626811027527,0.6568732261657715
1772537114976944600,7.848944580078125,0.3768351674079895,0.22011639177799225,0.6733027696609497
1772537114986993000,7.858992919921875,0.3952866196632385,-0.0017843178939074278,0.568078875541687
1772537114997041700,7.869041748046875,0.3880694508552551,-0.04590144380927086,0.391893208026886
1772537115007089700,7.879089599609375,0.3482682406902313,0.16901086270809174,0.2283591330051422
1772537115017137700,7.8891376953125,0.3054850697517395,0.2708727717399597,0.139664426445961
1772537115027186700,7.899186767578125,0.2137431800365448,0.14712393283843994,0.1127353385090828
1772537115037234700,7.909234619140625,0.03957270830869675,0.08250553160905838,0.11195476353168488
1772537115047282000,7.919281982421875,-0.12649136781692505,0.015850335359573364,0.14292307198047638
1772537115057331200,7.929331298828125,-0.1890287697315216,-0.13395939767360687,0.13046692311763763
1772537115067379000,7.93937890625,-0.12615659832954407,-0.27406617999076843,0.07371869683265686
1772537115077427000,7.949427001953125,-0.0975651741027832,-0.28069186210632324,-0.17308150231838226
1772537115087476000,7.95947607421875,-0.15287236869335175,-0.13850514590740204,-0.5185099840164185
1772537115097524000,7.96952392578125,-0.2552051246166229,-0.04213573411107063,-0.8131309747695923
1772537115107572000,7.979572021484375,-0.2765812575817108,0.0064927865751087666,-1.050443410873413
1772537115117621000,7.98962109375,-0.14204208552837372,-0.026016686111688614,-1.1418536901474
1772537115127669000,7.9996689453125,-0.014609568752348423,0.037515416741371155,-1.09745192527771
1772537115137717000,8.009717041015625,0.0178716741502285,0.25257179141044617,-0.9644816517829895
1772537115147765800,8.019765869140626,0.0105929896235466,0.294049471616745,-0.9013506174087524
1772537115157814000,8.02981396484375,-0.002930542454123497,0.08230339735746384,-0.9241307377815247
1772537115167862000,8.039862060546875,-0.06434144079685211,-0.0965675488114357,-1.0081737041473389
1772537115177911000,8.0499111328125,-0.12800270318984985,-0.06713802367448807,-1.0623573064804077
1772537115187959000,8.059958984375,-0.11396411806344986,-0.009611348621547222,-0.9969452619552612
1772537115198006800,8.0700068359375,-0.04869589954614639,-0.17289215326309204,-0.7942633032798767
1772537115208056000,8.08005615234375,-0.04670199006795883,-0.23770417273044586,-0.5331693887710571
1772537115218103800,8.090103759765626,-0.11666429787874222,-0.18699225783348083,-0.29234105348587036
1772537115228152000,8.100152099609375,-0.1661362498998642,-0.062190935015678406,-0.0742659717798233
1772537115238200800,8.110200927734375,-0.14802993834018707,0.10042274743318558,0.006485862657427788
1772537115248249000,8.1202490234375,-0.079610675573349,0.16476204991340637,-0.03470418602228165
1772537115258297000,8.130297119140625,0.005696235224604607,0.08795168995857239,-0.1254471391439438
1772537115268346000,8.14034619140625,0.07138097286224365,-0.03308791294693947,-0.26670441031455994
1772537115278393900,8.150393798828125,0.1127915307879448,-0.20684505999088287,-0.44700467586517334
1772537115288441900,8.16044189453125,0.1599947214126587,-0.32137057185173035,-0.6014000773429871
1772537115298491000,8.170490966796875,0.22006791830062866,-0.28328949213027954,-0.7052047848701477
1772537115308539000,8.180538818359375,0.2914094626903534,-0.09568045288324356,-0.7832266092300415
1772537115318587100,8.190587158203124,0.3098641037940979,0.19019098579883575,-0.7888270020484924
1772537115328636000,8.200635986328125,0.31719738245010376,0.4311452805995941,-0.6755286455154419
1772537115338684200,8.21068408203125,0.35546913743019104,0.6308797001838684,-0.4912126064300537
1772537115348732000,8.22073193359375,0.3707149624824524,0.6262418031692505,-0.3521178364753723
1772537115358781200,8.23078125,0.3460639417171478,0.43663376569747925,-0.30383896827697754
1772537115368829000,8.240828857421874,0.310933917760849,0.23355096578598022,-0.36564669013023376
1772537115378878000,8.2508779296875,0.29779839515686035,0.15740986168384552,-0.4917431175708771
1772537115388926000,8.260926025390624,0.3401205539703369,0.207339346408844,-0.5326460599899292
1772537115398974000,8.270973876953125,0.38518762588500977,0.2936297655105591,-0.4548511207103729
1772537115409023000,8.28102294921875,0.41352394223213196,0.38022854924201965,-0.252841591835022
1772537115419071000,8.291071044921875,0.41119447350502014,0.4168347716331482,0.04647322744131088
1772537115429119000,8.301118896484375,0.36122503876686096,0.36746668815612793,0.37718456983566284
1772537115439168000,8.31116796875,0.2530599534511566,0.32569289207458496,0.6414266228675842
1772537115449216000,8.321216064453125,0.13605184853076935,0.33007538318634033,0.8198317885398865
1772537115459264000,8.331263916015626,0.06476328521966934,0.2873747944831848,0.9689913988113403
1772537115469313000,8.34131298828125,0.02569897100329399,0.20914389193058014,1.071362853050232
1772537115479361000,8.351361083984376,-0.0012783173006027937,0.16786757111549377,1.1061335802078247
1772537115489409000,8.361408935546875,-0.02244831807911396,0.18241028487682343,1.0638846158981323
1772537115499458000,8.3714580078125,-0.018243985250592232,0.2123628556728363,0.9550223350524902
1772537115509506000,8.381506103515624,0.004910869058221579,0.24306803941726685,0.7838281989097595
1772537115519553800,8.3915537109375,-0.018387263640761375,0.2472851574420929,0.5653020143508911
1772537115529603000,8.40160302734375,-0.08451461791992188,0.16925880312919617,0.3953896760940552
1772537115539650800,8.41165087890625,-0.16968224942684174,0.08189620077610016,0.25764644145965576
1772537115549699000,8.421698974609376,-0.2150699645280838,0.021326061338186264,0.20556966960430145
1772537115559747800,8.431747802734375,-0.16736236214637756,0.007318633142858744,0.27936694025993347
1772537115569796000,8.441796142578125,-0.1448783576488495,0.0717594102025032,0.39642855525016785
1772537115579844000,8.451843994140624,-0.25588610768318176,0.13841140270233154,0.5195670127868652
1772537115589893000,8.46189306640625,-0.563062310218811,0.038726888597011566,0.6178754568099976
1772537115599941000,8.471941162109376,-0.9364824891090393,-0.3668099641799927,0.6023146510124207
1772537115609988900,8.48198876953125,-1.2001460790634155,-0.8057721257209778,0.5203646421432495
1772537115620038100,8.4920380859375,-1.1902470588684082,-0.9423507452011108,0.46757784485816956
1772537115630086000,8.5020859375,-0.9831506609916687,-0.7684096097946167,0.30750855803489685
1772537115640134100,8.512134033203125,-0.6625273823738098,-0.46788811683654785,0.00344559783115983
1772537115650183000,8.522182861328124,-0.2914845645427704,-0.23325935006141663,-0.43701648712158203
1772537115660231000,8.53223095703125,-0.0026375947054475546,0.11099762469530106,-1.0020356178283691
1772537115670279000,8.54227880859375,0.15260125696659088,0.5106390118598938,-1.504945158958435
1772537115680328000,8.552327880859375,0.06643442064523697,0.6859836578369141,-1.549942135810852
1772537115690376000,8.5623759765625,-0.06160850450396538,0.4454403221607208,-1.2021064758300781
1772537115700424000,8.572423828125,-0.14035232365131378,0.07012289762496948,-0.9558625817298889
1772537115710473000,8.582472900390625,-0.1727541983127594,-0.1920091211795807,-1.1136369705200195
1772537115720521000,8.59252099609375,-0.18603511154651642,-0.24534983932971954,-1.3096048831939697
1772537115730569000,8.60256884765625,-0.08702917397022247,-0.3398004472255707,-1.2720905542373657
1772537115740618000,8.612617919921876,0.050689276307821274,-0.5528448224067688,-0.9092450141906738
1772537115750666000,8.622666015625,0.06553160399198532,-0.6258702874183655,-0.3341476321220398
1772537115760714000,8.6327138671875,-0.015081214718520641,-0.4319695234298706,0.2087811678647995
1772537115770763000,8.642762939453124,-0.09731137007474899,-0.23559308052062988,0.5625733137130737
1772537115780811000,8.65281103515625,-0.14006149768829346,-0.14774231612682343,0.7328073978424072
1772537115790859000,8.66285888671875,-0.15375573933124542,-0.12204202264547348,0.7256764769554138
1772537115800908000,8.672907958984375,-0.1402931958436966,-0.24964845180511475,0.642646312713623
