time,seconds_elapsed,z,y,x
1772537152896514600,0.0695146484375,-0.8539581298828125,-0.44482421875,0.133575439453125
1772537152906562600,0.0795625,-0.8455047607421875,-0.48406982421875,0.04534912109375
1772537152916611300,0.089611328125,-0.9115447998046875,-0.3873443603515625,0.2753448486328125
1772537152926659600,0.09965966796875,-0.9377593994140625,-0.318084716796875,0.4485626220703125
1772537152936707600,0.10970751953125,-1.0229949951171875,-0.34991455078125,0.439697265625
1772537152946756600,0.119756591796875,-0.935089111328125,-0.4143218994140625,0.3564910888671875
1772537152956804600,0.1298046875,-0.83172607421875,-0.4483489990234375,0.2129974365234375
1772537152966852400,0.139852294921875,-0.7869110107421875,-0.406158447265625,0.188079833984375
1772537152976901600,0.149901611328125,-0.7542266845703125,-0.3389434814453125,0.2650909423828125
1772537152986949400,0.159949462890625,-0.589111328125,-0.2716522216796875,0.43536376953125
1772537152996997600,0.16999755859375,-0.6963653564453125,-0.1751251220703125,0.844329833984375
1772537153007045600,0.180045654296875,-0.98394775390625,-0.2723846435546875,0.8349456787109375
1772537153017094700,0.1900947265625,-0.99578857421875,-0.427032470703125,0.4315643310546875
1772537153027142400,0.200142333984375,-0.8012542724609375,-0.3826141357421875,0.2801513671875
1772537153037190400,0.2101904296875,-0.780364990234375,-0.279510498046875,0.288604736328125
1772537153047239400,0.220239501953125,-0.762908935546875,-0.24798583984375,0.2704315185546875
1772537153057287400,0.230287353515625,-0.7328033447265625,-0.2206268310546875,0.3094940185546875
1772537153067335700,0.240335693359375,-0.7327728271484375,-0.2196044921875,0.2678375244140625
1772537153077384400,0.250384521484375,-0.7364959716796875,-0.2322235107421875,0.2124481201171875
1772537153087428900,0.260428955078125,-0.722686767578125,-0.266357421875,0.2031402587890625
1772537153097476600,0.2704765625,-0.7320098876953125,-0.2518768310546875,0.1736602783203125
1772537153107526000,0.28052587890625,-0.728912353515625,-0.2076416015625,0.121978759765625
1772537153117573600,0.29057373046875,-0.676177978515625,-0.24884033203125,0.104888916015625
1772537153127622000,0.300621826171875,-0.6521453857421875,-0.2274932861328125,0.0896453857421875
1772537153137670700,0.310670654296875,-0.6495361328125,-0.1920013427734375,0.0832977294921875
1772537153147719000,0.320718994140625,-0.6492767333984375,-0.174896240234375,0.0736541748046875
1772537153157767000,0.330766845703125,-0.6727447509765625,-0.2004241943359375,0.0746612548828125
1772537153167814700,0.340814697265625,-0.67333984375,-0.222991943359375,0.1027069091796875
1772537153177864000,0.350864013671875,-0.6874237060546875,-0.200103759765625,0.1250762939453125
1772537153187911700,0.36091162109375,-0.723663330078125,-0.184661865234375,0.1147613525390625
1772537153197960000,0.3709599609375,-0.7212066650390625,-0.18768310546875,0.1197357177734375
1772537153208008700,0.3810087890625,-0.735260009765625,-0.1943359375,0.1834564208984375
1772537153218056700,0.391056640625,-0.8109588623046875,-0.2420806884765625,0.2132110595703125
1772537153228104700,0.401104736328125,-0.8898162841796875,-0.3074188232421875,0.2323455810546875
1772537153238153700,0.41115380859375,-0.9568939208984375,-0.3791656494140625,0.2628173828125
1772537153248201700,0.42120166015625,-1.0535736083984375,-0.4430999755859375,0.317962646484375
1772537153258249700,0.431249755859375,-1.16796875,-0.4612274169921875,0.3502655029296875
1772537153268298800,0.441298828125,-1.270843505859375,-0.432769775390625,0.3123321533203125
1772537153278346800,0.4513466796875,-1.3515472412109375,-0.4092864990234375,0.236907958984375
1772537153288394800,0.461394775390625,-1.4148101806640625,-0.4265899658203125,0.22149658203125
1772537153298442800,0.47144287109375,-1.5392303466796875,-0.4824066162109375,0.2791748046875
1772537153308491800,0.48149169921875,-1.68206787109375,-0.539764404296875,0.4019775390625
1772537153318539800,0.491539794921875,-1.7624664306640625,-0.583709716796875,0.5158233642578125
1772537153328587800,0.501587890625,-1.797760009765625,-0.6484375,0.5457000732421875
1772537153338636800,0.51163671875,-1.8314971923828125,-0.704742431640625,0.520233154296875
1772537153348684800,0.521684814453125,-1.862335205078125,-0.7442779541015625,0.49957275390625
1772537153358732800,0.53173291015625,-1.9028472900390625,-0.7786865234375,0.4910430908203125
1772537153368781800,0.54178173828125,-1.9009246826171875,-0.7709808349609375,0.49603271484375
1772537153378829800,0.551829833984375,-1.84844970703125,-0.7733917236328125,0.485198974609375
1772537153388877800,0.5618779296875,-1.75726318359375,-0.801300048828125,0.4506988525390625
1772537153398926800,0.5719267578125,-1.666259765625,-0.8156585693359375,0.4028472900390625
1772537153408974800,0.581974853515625,-1.5364532470703125,-0.8184967041015625,0.3489532470703125
1772537153419022800,0.59202294921875,-1.36578369140625,-0.808441162109375,0.3144683837890625
1772537153429072000,0.60207177734375,-1.1963348388671875,-0.7650909423828125,0.2474822998046875
1772537153439120000,0.612119873046875,-1.0209197998046875,-0.6870269775390625,0.137451171875
1772537153449167600,0.622167724609375,-0.898651123046875,-0.5652923583984375,0.0511322021484375
1772537153459216000,0.6322158203125,-0.7924346923828125,-0.4438934326171875,0.0037384033203125
1772537153469264600,0.6422646484375,-0.665618896484375,-0.3216552734375,-0.0120086669921875
1772537153479313000,0.65231298828125,-0.546173095703125,-0.202880859375,-0.024658203125
1772537153489361000,0.66236083984375,-0.440704345703125,-0.1080780029296875,-0.01348876953125
1772537153499409700,0.67240966796875,-0.34912109375,-0.04052734375,-0.0171051025390625
1772537153509458000,0.6824580078125,-0.289703369140625,0.0166778564453125,-0.0449981689453125
1772537153519505700,0.692505615234375,-0.2137298583984375,0.061981201171875,-0.0396728515625
1772537153529555000,0.702554931640625,-0.135101318359375,0.0992584228515625,-0.071533203125
1772537153539602700,0.712602783203125,-0.0487060546875,0.1177215576171875,-0.089752197265625
1772537153549651000,0.72265087890625,0.0064239501953125,0.14129638671875,-0.0838470458984375
1772537153559699700,0.73269970703125,0.0230865478515625,0.1688995361328125,-0.0623016357421875
1772537153569747700,0.742747802734375,0.0449066162109375,0.1467437744140625,-0.0156707763671875
1772537153579795700,0.752795654296875,0.061004638671875,0.1019744873046875,0.006134033203125
1772537153589844700,0.7628447265625,0.0764007568359375,0.06390380859375,0.00732421875
1772537153599892700,0.772892822265625,0.0894775390625,0.0190277099609375,-0.00762939453125
1772537153609940700,0.782940673828125,0.0620574951171875,-0.0144500732421875,-0.033355712890625
1772537153619988700,0.79298876953125,-0.0148468017578125,0.016571044921875,-0.088348388671875
1772537153630037800,0.803037841796875,0.00970458984375,0.0516204833984375,-0.1775970458984375
1772537153640085800,0.813085693359375,0.0433502197265625,-0.0446929931640625,-0.142791748046875
1772537153650133800,0.8231337890625,-0.2896575927734375,-0.1840972900390625,-0.1231842041015625
1772537153660182800,0.833182861328125,-0.3970947265625,-0.3954620361328125,-0.10125732421875
1772537153670230800,0.843230712890625,-0.4410247802734375,-0.4794921875,-0.0414276123046875
1772537153680278800,0.85327880859375,-0.6688690185546875,-0.579833984375,0.0038604736328125
1772537153690327800,0.863327880859375,-0.8449859619140625,-0.7301025390625,0.043731689453125
1772537153700375800,0.873375732421875,-1.0082550048828125,-0.7519378662109375,0.0399932861328125
1772537153710423800,0.883423828125,-1.154693603515625,-0.6735382080078125,-0.0537109375
1772537153720472800,0.893472900390625,-1.2650299072265625,-0.5861358642578125,-0.1040191650390625
1772537153730520800,0.903520751953125,-1.40625,-0.5478515625,-0.0694580078125
1772537153740568800,0.91356884765625,-1.5568084716796875,-0.5052642822265625,-0.0087432861328125
1772537153750617900,0.923617919921875,-1.6487884521484375,-0.466217041015625,0.0632781982421875
1772537153760665900,0.933665771484375,-1.6986083984375,-0.515716552734375,0.1709747314453125
1772537153770713900,0.9437138671875,-1.7162933349609375,-0.652099609375,0.2562103271484375
1772537153780761600,0.95376171875,-1.7316741943359375,-0.749908447265625,0.2668609619140625
1772537153790811000,0.963810791015625,-1.7816009521484375,-0.8415374755859375,0.2877044677734375
1772537153800858600,0.973858642578125,-1.884674072265625,-0.925537109375,0.3359375
1772537153810907000,0.983906982421875,-1.988861083984375,-1.0011138916015625,0.3936614990234375
1772537153820955600,0.99395556640625,-2.0482635498046875,-1.070831298828125,0.41558837890625
1772537153831004000,1.00400390625,-2.082855224609375,-1.054351806640625,0.38336181640625
1772537153841052000,1.014052001953125,-2.078643798828125,-0.95458984375,0.34710693359375
1772537153851100700,1.0241005859375,-2.0094146728515625,-0.8150634765625,0.3011474609375
1772537153861149000,1.03414892578125,-1.895355224609375,-0.6378936767578125,0.2074737548828125
1772537153871196700,1.04419677734375,-1.794403076171875,-0.4366912841796875,0.1040802001953125
1772537153881246000,1.054245849609375,-1.65911865234375,-0.274993896484375,0.08355712890625
1772537153891293700,1.064293701171875,-1.492919921875,-0.1913299560546875,0.0984954833984375
1772537153901341700,1.074341796875,-1.30352783203125,-0.1482086181640625,0.114044189453125
1772537153911390000,1.084389892578125,-1.1232452392578125,-0.100860595703125,0.10845947265625
1772537153921438700,1.094438720703125,-0.9161224365234375,-0.0383758544921875,0.087890625
1772537153931486700,1.10448681640625,-0.6945037841796875,0.031646728515625,0.06939697265625
1772537153941534700,1.11453466796875,-0.4929656982421875,0.1171722412109375,0.0476837158203125
1772537153951583700,1.124583740234375,-0.2773590087890625,0.1950225830078125,0.02947998046875
1772537153961631700,1.1346318359375,-0.1013641357421875,0.2496795654296875,0.0044403076171875
1772537153971679700,1.1446796875,-0.0012664794921875,0.3047943115234375,-0.0512542724609375
1772537153981728800,1.154728759765625,0.0884552001953125,0.266632080078125,-0.0681304931640625
1772537153991776800,1.16477685546875,0.1131744384765625,0.1612091064453125,-0.0095977783203125
1772537154001824800,1.17482470703125,0.11663818359375,0.087005615234375,0.02685546875
1772537154011873800,1.184873779296875,0.1576080322265625,0.060089111328125,0.0276947021484375
1772537154021921800,1.194921875,0.212249755859375,0.063262939453125,0.01239013671875
1772537154031969800,1.2049697265625,0.240814208984375,0.0443115234375,-0.007049560546875
1772537154042018800,1.215018798828125,0.20855712890625,0.000030517578125,-0.0404510498046875
1772537154052066800,1.22506689453125,0.1950836181640625,-0.0189666748046875,-0.0500030517578125
1772537154062114800,1.23511474609375,0.168304443359375,-0.0506439208984375,-0.0374603271484375
1772537154072162800,1.245162841796875,-0.039306640625,-0.154449462890625,-0.0982666015625
1772537154082211800,1.2552119140625,-0.1273345947265625,-0.245574951171875,-0.11163330078125
1772537154092263700,1.265263671875,-0.264892578125,-0.3581085205078125,-0.09063720703125
1772537154102311700,1.275311767578125,-0.2886962890625,-0.5954437255859375,-0.0579986572265625
1772537154112360700,1.285360595703125,-0.5535430908203125,-0.6715545654296875,0.0018768310546875
1772537154122408700,1.29540869140625,-0.7978057861328125,-0.70843505859375,0.10528564453125
1772537154132456700,1.305456787109375,-0.9871978759765625,-0.725128173828125,0.1004638671875
1772537154142505700,1.315505615234375,-1.154144287109375,-0.6785888671875,0.0489349365234375
1772537154152553500,1.325553466796875,-1.261932373046875,-0.595428466796875,-0.0220184326171875
1772537154162601700,1.335601806640625,-1.3882293701171875,-0.5001068115234375,-0.0844879150390625
1772537154172650500,1.345650390625,-1.517333984375,-0.4033050537109375,-0.1035919189453125
1772537154182698800,1.35569873046875,-1.576690673828125,-0.387359619140625,-0.0355377197265625
1772537154192746800,1.365746826171875,-1.6080322265625,-0.4906158447265625,0.105987548828125
1772537154202794500,1.37579443359375,-1.6212310791015625,-0.6410369873046875,0.2121429443359375
1772537154212843800,1.38584375,-1.6393585205078125,-0.759613037109375,0.2872161865234375
1772537154222891500,1.3958916015625,-1.7239532470703125,-0.8642425537109375,0.341796875
1772537154232939800,1.405939697265625,-1.7837677001953125,-0.9683074951171875,0.3232421875
1772537154242988500,1.415988525390625,-1.75457763671875,-1.0564117431640625,0.2616729736328125
1772537154253036800,1.426036865234375,-1.734039306640625,-1.135772705078125,0.21112060546875
1772537154263084500,1.43608447265625,-1.7642364501953125,-1.1647186279296875,0.1733856201171875
1772537154273133800,1.4461337890625,-1.7809600830078125,-1.156585693359375,0.1464385986328125
1772537154283181600,1.456181640625,-1.7617034912109375,-1.1126708984375,0.11895751953125
1772537154293229600,1.4662294921875,-1.7138671875,-1.00347900390625,0.07958984375
1772537154303278600,1.476278564453125,-1.62347412109375,-0.8664703369140625,0.062255859375
1772537154313326600,1.48632666015625,-1.547882080078125,-0.76873779296875,0.077728271484375
1772537154323374800,1.496374755859375,-1.4683685302734375,-0.7049407958984375,0.114532470703125
1772537154333423600,1.506423583984375,-1.366729736328125,-0.6282501220703125,0.14111328125
1772537154343471900,1.516471923828125,-1.24176025390625,-0.5307464599609375,0.162628173828125
1772537154353519600,1.52651953125,-1.0843658447265625,-0.4245452880859375,0.141357421875
1772537154363567600,1.536567626953125,-0.930267333984375,-0.325958251953125,0.1048126220703125
1772537154373616600,1.54661669921875,-0.80230712890625,-0.204559326171875,0.0745849609375
1772537154383664600,1.55666455078125,-0.70269775390625,-0.09014892578125,0.046600341796875
1772537154393712600,1.566712646484375,-0.6091156005859375,-0.0106048583984375,-0.009124755859375
1772537154403761700,1.57676171875,-0.5431060791015625,0.06427001953125,-0.0701904296875
1772537154413809700,1.5868095703125,-0.48907470703125,0.11077880859375,-0.068328857421875
1772537154423857700,1.596857666015625,-0.4154510498046875,0.1349334716796875,-0.0703887939453125
1772537154433906400,1.606906494140625,-0.3056640625,0.151885986328125,-0.0777740478515625
1772537154443954700,1.61695458984375,-0.20294189453125,0.1635589599609375,-0.081390380859375
1772537154454002700,1.627002685546875,-0.1070709228515625,0.1608428955078125,-0.0677490234375
1772537154464051700,1.6370517578125,-0.02435302734375,0.148834228515625,-0.058349609375
1772537154474099700,1.647099609375,0.031341552734375,0.1324310302734375,-0.0532989501953125
1772537154484147500,1.6571474609375,0.0751495361328125,0.1003265380859375,-0.044189453125
1772537154494195700,1.66719580078125,0.1029510498046875,0.0373687744140625,-0.039276123046875
1772537154504244500,1.677244384765625,0.130218505859375,-0.0561065673828125,-0.0533294677734375
1772537154514292700,1.687292724609375,0.123626708984375,-0.1455078125,-0.080108642578125
1772537154524340700,1.6973408203125,0.0673065185546875,-0.2267913818359375,-0.0946044921875
1772537154534389800,1.7073896484375,-0.0022735595703125,-0.32501220703125,-0.0963897705078125
1772537154544437800,1.717437744140625,-0.1089935302734375,-0.4393310546875,-0.095977783203125
1772537154554485500,1.727485595703125,-0.2789764404296875,-0.5327301025390625,-0.097991943359375
1772537154564534800,1.73753466796875,-0.48150634765625,-0.57647705078125,-0.100433349609375
1772537154574582500,1.74758251953125,-0.65374755859375,-0.593017578125,-0.0994720458984375
1772537154584630800,1.757630859375,-0.845855712890625,-0.596466064453125,-0.1004791259765625
1772537154594679600,1.767679443359375,-1.0246734619140625,-0.633941650390625,-0.0548553466796875
1772537154604727800,1.777727783203125,-1.1875457763671875,-0.6793212890625,0.0395660400390625
1772537154614775600,1.787775634765625,-1.3271331787109375,-0.60675048828125,0.0655517578125
1772537154624824800,1.797824951171875,-1.4039764404296875,-0.444427490234375,0.0046844482421875
1772537154634872600,1.80787255859375,-1.4420623779296875,-0.30181884765625,-0.0590972900390625
1772537154644920600,1.817920654296875,-1.47674560546875,-0.2400665283203125,-0.055389404296875
1772537154654968800,1.82796875,-1.5196685791015625,-0.3228759765625,0.0376434326171875
1772537154665017600,1.838017578125,-1.5308685302734375,-0.47344970703125,0.15802001953125
1772537154675065900,1.84806591796875,-1.511474609375,-0.64385986328125,0.2503814697265625
1772537154685113600,1.858113525390625,-1.51104736328125,-0.8066558837890625,0.290679931640625
1772537154695163000,1.868162841796875,-1.509429931640625,-0.9566650390625,0.3149566650390625
1772537154705210600,1.878210693359375,-1.5430755615234375,-1.068511962890625,0.3145904541015625
1772537154715258600,1.888258544921875,-1.5633544921875,-1.1074066162109375,0.2893524169921875
1772537154725307600,1.8983076171875,-1.548431396484375,-1.0962677001953125,0.252410888671875
1772537154735355600,1.908355712890625,-1.5754547119140625,-1.085479736328125,0.2128448486328125
1772537154745403600,1.918403564453125,-1.60174560546875,-1.0588531494140625,0.187103271484375
1772537154755452700,1.92845263671875,-1.6046142578125,-1.0079803466796875,0.1566314697265625
1772537154765500700,1.938500732421875,-1.5619659423828125,-0.9644012451171875,0.1442718505859375
1772537154775548700,1.948548583984375,-1.5068511962890625,-0.913299560546875,0.15087890625
1772537154785596700,1.9585966796875,-1.4663543701171875,-0.8489837646484375,0.172576904296875
1772537154795645700,1.968645751953125,-1.41943359375,-0.7869110107421875,0.2021484375
1772537154805693700,1.978693603515625,-1.361602783203125,-0.7089080810546875,0.2220001220703125
1772537154815741700,1.98874169921875,-1.277862548828125,-0.61376953125,0.2140960693359375
1772537154825790700,1.998790771484375,-1.1804351806640625,-0.5257720947265625,0.1838531494140625
1772537154835838500,2.00883837890625,-1.098602294921875,-0.427642822265625,0.1548919677734375
1772537154845886700,2.01888671875,-1.0164794921875,-0.3411865234375,0.1472320556640625
1772537154855935500,2.028935546875,-0.9198455810546875,-0.27703857421875,0.1475067138671875
1772537154865983700,2.038983642578125,-0.81396484375,-0.2156524658203125,0.15093994140625
1772537154876031700,2.04903173828125,-0.7055816650390625,-0.1552276611328125,0.1553497314453125
1772537154886080800,2.059080810546875,-0.60382080078125,-0.092071533203125,0.125213623046875
1772537154896128800,2.069128662109375,-0.5170135498046875,-0.0280914306640625,0.0876617431640625
1772537154906176500,2.079176513671875,-0.4229278564453125,0.0256500244140625,0.049591064453125
1772537154916225800,2.089225830078125,-0.3501129150390625,0.0723114013671875,0.008026123046875
1772537154926273500,2.0992734375,-0.2856292724609375,0.096435546875,-0.0190582275390625
1772537154936321800,2.10932177734375,-0.22100830078125,0.09130859375,-0.0365753173828125
1772537154946369500,2.11936962890625,-0.1567230224609375,0.0613250732421875,-0.0296478271484375
1772537154956418800,2.129418701171875,-0.1081695556640625,0.00115966796875,-0.0066070556640625
1772537154966466600,2.139466552734375,-0.0724334716796875,-0.0650634765625,0.001190185546875
1772537154976514600,2.1495146484375,-0.051116943359375,-0.1234130859375,0.0070343017578125
1772537154986563600,2.1595634765625,-0.0428619384765625,-0.165191650390625,0.01544189453125
1772537154996611600,2.169611572265625,-0.0469512939453125,-0.18280029296875,0.0232391357421875
1772537155006659800,2.179659912109375,-0.0756683349609375,-0.194091796875,0.02838134765625
1772537155016708600,2.18970849609375,-0.1131744384765625,-0.2109375,0.0285797119140625
1772537155026756900,2.1997568359375,-0.1588287353515625,-0.2376708984375,0.0315399169921875
1772537155036804600,2.2098046875,-0.2059783935546875,-0.2588653564453125,0.026092529296875
1772537155046854000,2.21985400390625,-0.2589263916015625,-0.27410888671875,0.0190582275390625
1772537155056901600,2.229901611328125,-0.324859619140625,-0.29901123046875,0.01446533203125
1772537155066949600,2.23994970703125,-0.4166259765625,-0.338226318359375,0.0173187255859375
1772537155076997600,2.24999755859375,-0.5051727294921875,-0.369171142578125,0.0107574462890625
1772537155087042800,2.260042724609375,-0.5664520263671875,-0.3796844482421875,-0.00885009765625
1772537155097090800,2.2700908203125,-0.6209869384765625,-0.35821533203125,-0.049224853515625
1772537155107138800,2.280138916015625,-0.68072509765625,-0.32781982421875,-0.05950927734375
1772537155117187800,2.290187744140625,-0.7815704345703125,-0.3451995849609375,-0.02618408203125
1772537155127235800,2.30023583984375,-0.929107666015625,-0.4195709228515625,0.0404052734375
1772537155137283800,2.310283935546875,-1.053314208984375,-0.5118560791015625,0.116241455078125
1772537155147332900,2.320332763671875,-1.143341064453125,-0.5683135986328125,0.1568145751953125
1772537155157380900,2.330380859375,-1.1995849609375,-0.6041107177734375,0.17828369140625
1772537155167428600,2.3404287109375,-1.237213134765625,-0.68353271484375,0.19866943359375
1772537155177478000,2.350477783203125,-1.276153564453125,-0.830780029296875,0.25140380859375
1772537155187525600,2.360525634765625,-1.3323211669921875,-1.0052642822265625,0.3103179931640625
1772537155197574000,2.370573974609375,-1.3910980224609375,-1.1443634033203125,0.336822509765625
1772537155207622000,2.380621826171875,-1.455047607421875,-1.225616455078125,0.3288421630859375
1772537155217670700,2.390670654296875,-1.535400390625,-1.25262451171875,0.3155670166015625
1772537155227719000,2.400718994140625,-1.6005706787109375,-1.2708587646484375,0.2888031005859375
1772537155237766700,2.4107666015625,-1.659454345703125,-1.2811279296875,0.238677978515625
1772537155247816000,2.42081591796875,-1.7141571044921875,-1.2665863037109375,0.19537353515625
1772537155257863700,2.43086376953125,-1.7716522216796875,-1.2593994140625,0.1885223388671875
1772537155267911700,2.44091162109375,-1.813140869140625,-1.2436981201171875,0.1996917724609375
1772537155277960700,2.450960693359375,-1.8346405029296875,-1.1977081298828125,0.2373199462890625
1772537155288008700,2.4610087890625,-1.8382568359375,-1.1230926513671875,0.2767486572265625
1772537155298057000,2.471056884765625,-1.82147216796875,-1.0311126708984375,0.2938690185546875
1772537155308105700,2.481105712890625,-1.78448486328125,-0.930145263671875,0.3030853271484375
1772537155318154000,2.491154052734375,-1.708465576171875,-0.8281097412109375,0.310272216796875
1772537155328201700,2.50120166015625,-1.60308837890625,-0.7555694580078125,0.3068084716796875
1772537155338249700,2.511249755859375,-1.4591827392578125,-0.706695556640625,0.3033599853515625
1772537155348298800,2.521298828125,-1.2757720947265625,-0.6400299072265625,0.3137054443359375
1772537155358346800,2.5313466796875,-1.09783935546875,-0.56011962890625,0.3208160400390625
1772537155368394800,2.541394775390625,-0.9349212646484375,-0.4758758544921875,0.330352783203125
1772537155378443800,2.55144384765625,-0.802001953125,-0.368133544921875,0.3463287353515625
1772537155388491800,2.56149169921875,-0.647796630859375,-0.2671966552734375,0.3272705078125
1772537155398539800,2.571539794921875,-0.4844512939453125,-0.162353515625,0.252685546875
1772537155408588800,2.5815888671875,-0.36572265625,-0.0463714599609375,0.1632537841796875
1772537155418636800,2.59163671875,-0.288726806640625,0.066650390625,0.06903076171875
1772537155428684800,2.601684814453125,-0.246978759765625,0.1547698974609375,-0.0194549560546875
1772537155438733800,2.61173388671875,-0.2052764892578125,0.1961822509765625,-0.062347412109375
1772537155448781800,2.62178173828125,-0.1300201416015625,0.2012176513671875,-0.08734130859375
1772537155458829800,2.631829833984375,-0.0535888671875,0.187774658203125,-0.0924072265625
1772537155468878800,2.64187890625,0.00347900390625,0.1463470458984375,-0.0825958251953125
1772537155478926800,2.6519267578125,0.0520477294921875,0.1042022705078125,-0.07208251953125
1772537155488974800,2.661974853515625,0.1094818115234375,0.0751495361328125,-0.06048583984375
1772537155499022800,2.67202294921875,0.14752197265625,0.0551910400390625,-0.045074462890625
1772537155509072000,2.68207177734375,0.14544677734375,0.0303802490234375,-0.0247650146484375
1772537155519119600,2.69211962890625,0.12750244140625,-0.01885986328125,-0.007415771484375
1772537155529168000,2.70216796875,0.1134033203125,-0.0706329345703125,-0.0081787109375
1772537155539216600,2.712216552734375,0.0753631591796875,-0.1208953857421875,-0.0131683349609375
1772537155549265000,2.722264892578125,0.00115966796875,-0.15447998046875,-0.0213775634765625
1772537155559313000,2.73231298828125,-0.0859832763671875,-0.178436279296875,-0.03948974609375
1772537155569361700,2.742361572265625,-0.1771240234375,-0.2207183837890625,-0.0494842529296875
1772537155579410000,2.752409912109375,-0.2792816162109375,-0.2923736572265625,-0.0535736083984375
1772537155589457700,2.762457763671875,-0.3594818115234375,-0.335174560546875,-0.0088348388671875
1772537155599507000,2.7725068359375,-0.4891510009765625,-0.345916748046875,0.0374908447265625
1772537155609554700,2.7825546875,-0.6533966064453125,-0.57135009765625,0.0844879150390625
1772537155619602700,2.792602783203125,-0.7595977783203125,-0.627655029296875,0.1788177490234375
1772537155629651000,2.80265087890625,-0.8804779052734375,-0.5394439697265625,0.132354736328125
1772537155639699700,2.81269970703125,-0.8988494873046875,-0.4948577880859375,0.0581207275390625
1772537155649748000,2.822748046875,-1.0039825439453125,-0.44268798828125,0.017852783203125
1772537155659795700,2.832795654296875,-1.1185760498046875,-0.40069580078125,0.009429931640625
1772537155669845000,2.842844970703125,-1.2469024658203125,-0.347442626953125,0.031402587890625
1772537155679892700,2.852892822265625,-1.371490478515625,-0.31817626953125,0.1009674072265625
1772537155689940700,2.862940673828125,-1.4470062255859375,-0.3994903564453125,0.224945068359375
1772537155699989800,2.87298974609375,-1.472198486328125,-0.5552825927734375,0.3343048095703125
1772537155710037800,2.883037841796875,-1.5021820068359375,-0.6889801025390625,0.40570068359375
1772537155720085800,2.893085693359375,-1.54693603515625,-0.7994384765625,0.470458984375
1772537155730133800,2.9031337890625,-1.59832763671875,-0.908660888671875,0.496490478515625
1772537155740182800,2.913182861328125,-1.6993560791015625,-0.9642791748046875,0.4803466796875
1772537155750230800,2.923230712890625,-1.8201141357421875,-0.9835968017578125,0.457275390625
1772537155760278800,2.93327880859375,-1.9269561767578125,-1.0037689208984375,0.4021148681640625
1772537155770327800,2.943327880859375,-1.958343505859375,-1.0194091796875,0.3230438232421875
1772537155780375800,2.953375732421875,-1.9604949951171875,-1.047271728515625,0.29913330078125
1772537155790423800,2.963423828125,-1.9816741943359375,-1.0368194580078125,0.323516845703125
1772537155800472800,2.973472900390625,-1.9906005859375,-0.954681396484375,0.377960205078125
1772537155810520800,2.983520751953125,-1.993560791015625,-0.83587646484375,0.4095001220703125
1772537155820568800,2.99356884765625,-1.9827728271484375,-0.6949920654296875,0.403472900390625
1772537155830617900,3.003617919921875,-1.9584197998046875,-0.5754852294921875,0.361663818359375
1772537155840665900,3.013665771484375,-1.9039764404296875,-0.4777069091796875,0.320526123046875
1772537155850713900,3.0237138671875,-1.7866668701171875,-0.3933258056640625,0.2906646728515625
1772537155860761900,3.033761962890625,-1.665374755859375,-0.337432861328125,0.23687744140625
1772537155870810600,3.043810546875,-1.4897918701171875,-0.292449951171875,0.1935577392578125
1772537155880859000,3.05385888671875,-1.26239013671875,-0.2440338134765625,0.1609039306640625
1772537155890907000,3.063906982421875,-1.0688629150390625,-0.1910552978515625,0.180145263671875
1772537155900955600,3.07395556640625,-0.893035888671875,-0.124359130859375,0.267669677734375
1772537155911004000,3.08400390625,-0.6771697998046875,-0.1004791259765625,0.2549591064453125
1772537155921051600,3.0940517578125,-0.4738616943359375,-0.0530548095703125,0.27459716796875
1772537155931101000,3.104100830078125,-0.2896575927734375,-0.0143280029296875,0.2908477783203125
1772537155941148700,3.114148681640625,-0.1563262939453125,0.0075836181640625,0.29193115234375
1772537155951197000,3.124197021484375,-0.0747833251953125,0.0271453857421875,0.2371673583984375
1772537155961245700,3.13424560546875,-0.00946044921875,0.0381317138671875,0.1784515380859375
1772537155971293700,3.144293701171875,0.02105712890625,0.0753326416015625,0.1323089599609375
1772537155981342000,3.154342041015625,0.0505828857421875,0.081390380859375,0.084075927734375
1772537155991389700,3.1643896484375,0.0958251953125,0.006744384765625,0.0948333740234375
1772537156001439000,3.17443896484375,0.0815582275390625,0.0016632080078125,0.126373291015625
1772537156011486700,3.18448681640625,0.096771240234375,0.024627685546875,0.1444244384765625
1772537156021534700,3.19453466796875,0.097686767578125,-0.08721923828125,0.0606231689453125
1772537156031583700,3.204583740234375,0.04742431640625,-0.1435394287109375,-0.0077362060546875
1772537156041631700,3.2146318359375,0.042144775390625,-0.0919952392578125,0.0036468505859375
1772537156051679700,3.2246796875,0.016754150390625,-0.065338134765625,-0.0085906982421875
1772537156061728800,3.234728759765625,-0.031982421875,-0.0930328369140625,-0.004058837890625
1772537156071776800,3.24477685546875,-0.07855224609375,-0.148956298828125,0.014892578125
1772537156081824800,3.25482470703125,-0.145263671875,-0.1962127685546875,0.0227203369140625
1772537156091874800,3.264874755859375,-0.19964599609375,-0.2190093994140625,0.0217132568359375
1772537156101922800,3.2749228515625,-0.278656005859375,-0.210296630859375,0.04925537109375
1772537156111970800,3.284970703125,-0.3977813720703125,-0.1912078857421875,0.1094818115234375
1772537156122018800,3.295018798828125,-0.4406280517578125,-0.192047119140625,0.117340087890625
1772537156132067800,3.30506787109375,-0.480255126953125,-0.201080322265625,0.1139373779296875
1772537156142115800,3.31511572265625,-0.5859832763671875,-0.2205963134765625,0.1495361328125
1772537156152163800,3.325163818359375,-0.737945556640625,-0.2449798583984375,0.16033935546875
1772537156162212900,3.335212890625,-0.8576202392578125,-0.2914276123046875,0.1649322509765625
1772537156172260900,3.3452607421875,-0.96148681640625,-0.358856201171875,0.1681060791015625
1772537156182308900,3.355308837890625,-1.0469207763671875,-0.4033966064453125,0.1390533447265625
1772537156192358000,3.36535791015625,-1.1271209716796875,-0.4239349365234375,0.1198272705078125
1772537156202406000,3.375406005859375,-1.243072509765625,-0.445404052734375,0.145233154296875
1772537156212454000,3.385453857421875,-1.3499908447265625,-0.47357177734375,0.183013916015625
1772537156222503000,3.3955029296875,-1.4178009033203125,-0.5019073486328125,0.2500762939453125
1772537156232551000,3.405551025390625,-1.470672607421875,-0.5321502685546875,0.3248748779296875
1772537156242598700,3.4155986328125,-1.485076904296875,-0.5757293701171875,0.3977203369140625
1772537156252647000,3.42564697265625,-1.530670166015625,-0.63299560546875,0.4698638916015625
1772537156262695700,3.43569580078125,-1.58349609375,-0.71826171875,0.5150146484375
1772537156272744000,3.445743896484375,-1.6417236328125,-0.7926177978515625,0.5144195556640625
1772537156282792000,3.4557919921875,-1.722381591796875,-0.8375701904296875,0.5019073486328125
1772537156292840700,3.4658408203125,-1.8034210205078125,-0.8743896484375,0.4754180908203125
1772537156302889000,3.475888916015625,-1.8808746337890625,-0.90472412109375,0.449951171875
1772537156312936700,3.485936767578125,-1.89556884765625,-0.923004150390625,0.4630584716796875
1772537156322986000,3.495986083984375,-1.8620147705078125,-0.9083251953125,0.4830169677734375
1772537156333033700,3.50603369140625,-1.806304931640625,-0.891937255859375,0.52471923828125
1772537156343081700,3.516081787109375,-1.7693328857421875,-0.8500213623046875,0.5702056884765625
1772537156353130800,3.526130859375,-1.73046875,-0.80621337890625,0.5949554443359375
1772537156363178800,3.5361787109375,-1.6922454833984375,-0.7542572021484375,0.5723724365234375
1772537156373227000,3.54622705078125,-1.668243408203125,-0.6834716796875,0.5387725830078125
1772537156383274800,3.556274658203125,-1.636932373046875,-0.6138763427734375,0.5025177001953125
1772537156393323800,3.56632373046875,-1.5632171630859375,-0.5368194580078125,0.4293670654296875
1772537156403371800,3.576371826171875,-1.457183837890625,-0.456787109375,0.368988037109375
1772537156413419800,3.586419677734375,-1.3428192138671875,-0.380035400390625,0.3151397705078125
1772537156423468800,3.59646875,-1.23175048828125,-0.3137054443359375,0.25567626953125
1772537156433516800,3.606516845703125,-1.122955322265625,-0.243011474609375,0.219696044921875
1772537156443564800,3.616564697265625,-1.0034637451171875,-0.174041748046875,0.2098388671875
1772537156453613800,3.62661376953125,-0.8654022216796875,-0.1034088134765625,0.19482421875
1772537156463661800,3.636661865234375,-0.6949615478515625,-0.02044677734375,0.185333251953125
1772537156473709800,3.646709716796875,-0.5453948974609375,0.0433807373046875,0.180755615234375
1772537156483757800,3.6567578125,-0.4334564208984375,0.081573486328125,0.15679931640625
1772537156493806800,3.666806884765625,-0.3162689208984375,0.0959625244140625,0.1277618408203125
1772537156503854800,3.676854736328125,-0.237213134765625,0.11474609375,0.0610504150390625
1772537156513902800,3.68690283203125,-0.167755126953125,0.1236572265625,-0.0156097412109375
1772537156523951900,3.696951904296875,-0.095123291015625,0.0987396240234375,-0.049163818359375
1772537156533999900,3.706999755859375,-0.0464630126953125,0.0677032470703125,-0.0498046875
1772537156544047900,3.7170478515625,0.002532958984375,0.0360107421875,-0.0421142578125
1772537156554097000,3.727096923828125,0.0488128662109375,0.0040435791015625,-0.0492401123046875
1772537156564145000,3.737144775390625,0.0732879638671875,-0.0077362060546875,-0.056976318359375
1772537156574192600,3.747192626953125,0.0658721923828125,0.002227783203125,-0.05517578125
1772537156584242000,3.757241943359375,0.0652008056640625,0.000701904296875,-0.0466156005859375
1772537156594289700,3.76728955078125,0.0384674072265625,-0.0192413330078125,-0.0292816162109375
1772537156604338000,3.777337890625,-0.00311279296875,-0.0436553955078125,-0.0205535888671875
1772537156614386000,3.787385986328125,-0.02264404296875,-0.063507080078125,-0.0218048095703125
1772537156624435000,3.79743505859375,-0.0491790771484375,-0.0873870849609375,-0.009552001953125
1772537156634483000,3.80748291015625,-0.10797119140625,-0.12738037109375,0.0180816650390625
1772537156644530700,3.81753076171875,-0.194732666015625,-0.175323486328125,0.0538330078125
1772537156654580000,3.827580078125,-0.2685089111328125,-0.2528076171875,0.1115570068359375
1772537156664627700,3.837627685546875,-0.3835601806640625,-0.360107421875,0.1797637939453125
1772537156674676000,3.847676025390625,-0.4959259033203125,-0.4615631103515625,0.231781005859375
1772537156684724700,3.857724853515625,-0.618927001953125,-0.513275146484375,0.2428131103515625
1772537156694772700,3.867772705078125,-0.791839599609375,-0.514862060546875,0.238525390625
1772537156704821000,3.877821044921875,-0.936492919921875,-0.4876708984375,0.2121734619140625
1772537156714868700,3.88786865234375,-1.021636962890625,-0.4386138916015625,0.1709747314453125
1772537156724918000,3.89791796875,-1.080230712890625,-0.3539276123046875,0.1311492919921875
1772537156734965800,3.9079658203125,-1.123931884765625,-0.265289306640625,0.0950164794921875
1772537156745013800,3.918013671875,-1.2578125,-0.216156005859375,0.1012420654296875
1772537156755062800,3.928062744140625,-1.39813232421875,-0.2311859130859375,0.2271270751953125
1772537156765110800,3.93811083984375,-1.4883880615234375,-0.3452606201171875,0.4220733642578125
1772537156775158800,3.94815869140625,-1.6273345947265625,-0.444244384765625,0.5435791015625
1772537156785207800,3.958207763671875,-1.6731109619140625,-0.4953460693359375,0.5762481689453125
1772537156795255800,3.968255859375,-1.6937103271484375,-0.5681304931640625,0.5257110595703125
1772537156805303800,3.9783037109375,-1.805084228515625,-0.5931243896484375,0.4468231201171875
1772537156815352800,3.988352783203125,-1.904449462890625,-0.566986083984375,0.3483428955078125
1772537156825400800,3.99840087890625,-1.99041748046875,-0.54205322265625,0.2344818115234375
1772537156835448800,4.00844873046875,-2.0596771240234375,-0.522735595703125,0.1849517822265625
1772537156845496800,4.018496826171875,-2.0853118896484375,-0.5183258056640625,0.2157745361328125
1772537156855545900,4.0285458984375,-2.0808868408203125,-0.534942626953125,0.2828216552734375
1772537156865593900,4.03859375,-2.0656890869140625,-0.520111083984375,0.358917236328125
1772537156875641900,4.048641845703125,-2.0592193603515625,-0.448089599609375,0.4304351806640625
1772537156885691000,4.05869091796875,-1.9655303955078125,-0.3766021728515625,0.48419189453125
1772537156895739000,4.06873876953125,-1.8761444091796875,-0.3345947265625,0.4871978759765625
1772537156905787000,4.078786865234375,-1.78515625,-0.2871551513671875,0.4620208740234375
1772537156915836000,4.0888359375,-1.659576416015625,-0.263153076171875,0.4431304931640625
1772537156925883600,4.098883544921875,-1.5214385986328125,-0.253326416015625,0.3968658447265625
1772537156935932000,4.108931884765625,-1.361328125,-0.2361907958984375,0.346923828125
1772537156945980000,4.11897998046875,-1.204498291015625,-0.209625244140625,0.3045654296875
1772537156956029000,4.12902880859375,-1.0661773681640625,-0.175689697265625,0.2496185302734375
1772537156966077000,4.139076904296875,-0.956512451171875,-0.1104583740234375,0.1825714111328125
1772537156976124700,4.149124755859375,-0.856597900390625,-0.02716064453125,0.1187744140625
1772537156986174000,4.159174072265625,-0.7541351318359375,0.0439300537109375,0.0634918212890625
1772537156996221700,4.1692216796875,-0.6613616943359375,0.101806640625,0.0322113037109375
1772537157006270000,4.17927001953125,-0.583770751953125,0.1400299072265625,0.0416412353515625
1772537157016318700,4.189318603515625,-0.514434814453125,0.1589202880859375,0.0662689208984375
1772537157026367000,4.199366943359375,-0.406005859375,0.165252685546875,0.0514373779296875
1772537157036415000,4.2094150390625,-0.287078857421875,0.1722869873046875,0.048248291015625
1772537157046463700,4.219463623046875,-0.179595947265625,0.175689697265625,0.0546875
1772537157056512000,4.229511962890625,-0.0960693359375,0.15911865234375,0.0500335693359375
1772537157066559700,4.239559814453125,-0.0240020751953125,0.12945556640625,0.0504302978515625
1772537157076608000,4.24960791015625,0.0415496826171875,0.103729248046875,0.043548583984375
1772537157086656000,4.259656005859375,0.0946807861328125,0.07061767578125,0.032684326171875
1772537157096704300,4.269704345703125,0.120025634765625,0.0229644775390625,0.01165771484375
1772537157106752300,4.279752197265625,0.1217041015625,-0.0266571044921875,0.001800537109375
1772537157116801300,4.28980126953125,0.10302734375,-0.0745697021484375,0.0014495849609375
1772537157126849300,4.299849365234375,0.0721435546875,-0.1148681640625,-0.0059051513671875
1772537157136897000,4.30989697265625,0.0267791748046875,-0.138946533203125,-0.016448974609375
1772537157146946300,4.3199462890625,-0.029449462890625,-0.1574859619140625,-0.009185791015625
1772537157156994000,4.329994140625,-0.0912322998046875,-0.1777496337890625,0.026092529296875
1772537157167042300,4.340042236328125,-0.1524200439453125,-0.2233123779296875,0.0626678466796875
1772537157177091000,4.350091064453125,-0.2587890625,-0.3000946044921875,0.1240386962890625
1772537157187139300,4.360139404296875,-0.4217529296875,-0.3891143798828125,0.19921875
1772537157197187000,4.37018701171875,-0.5725860595703125,-0.4517364501953125,0.266265869140625
1772537157207235000,4.380235107421875,-0.670623779296875,-0.4830780029296875,0.322601318359375
1772537157217284000,4.3902841796875,-0.764495849609375,-0.461273193359375,0.2925567626953125
1772537157227332000,4.40033203125,-0.884002685546875,-0.404541015625,0.2246246337890625
1772537157237380400,4.41038037109375,-1.020965576171875,-0.3525848388671875,0.17205810546875
1772537157247429000,4.42042919921875,-1.1533355712890625,-0.274444580078125,0.109893798828125
1772537157257477400,4.430477294921875,-1.28082275390625,-0.1633453369140625,0.0642547607421875
1772537157267525000,4.440525146484375,-1.3757476806640625,-0.13311767578125,0.0995025634765625
1772537157277574100,4.45057421875,-1.5046234130859375,-0.259429931640625,0.2382965087890625
1772537157287622100,4.4606220703125,-1.6311187744140625,-0.439971923828125,0.4100494384765625
1772537157297670100,4.470670166015625,-1.684906005859375,-0.55267333984375,0.529937744140625
1772537157307718400,4.480718505859375,-1.73333740234375,-0.6230010986328125,0.5813140869140625
1772537157317767200,4.49076708984375,-1.7683258056640625,-0.692108154296875,0.5654144287109375
1772537157327815200,4.500815185546875,-1.8079071044921875,-0.7261199951171875,0.470855712890625
1772537157337863200,4.51086328125,-1.878997802734375,-0.723876953125,0.3827667236328125
1772537157347912200,4.520912109375,-1.9378662109375,-0.713348388671875,0.317626953125
1772537157357960200,4.530960205078125,-1.9597015380859375,-0.7059478759765625,0.255401611328125
1772537157368008200,4.54100830078125,-1.9669189453125,-0.701873779296875,0.2588958740234375
1772537157378057200,4.55105712890625,-1.9753875732421875,-0.7022857666015625,0.3004150390625
1772537157388105200,4.561105224609375,-1.94256591796875,-0.6706390380859375,0.3586883544921875
1772537157398153000,4.571153076171875,-1.8756866455078125,-0.6145782470703125,0.4227752685546875
1772537157408202200,4.5812021484375,-1.8159027099609375,-0.5767669677734375,0.46502685546875
1772537157418250000,4.59125,-1.7513427734375,-0.553558349609375,0.4843597412109375
1772537157428298200,4.60129833984375,-1.661224365234375,-0.527130126953125,0.4761962890625
1772537157438346200,4.61134619140625,-1.550689697265625,-0.5131378173828125,0.445465087890625
1772537157448395300,4.621395263671875,-1.40631103515625,-0.5012664794921875,0.4065704345703125
1772537157458443300,4.631443359375,-1.2610015869140625,-0.47576904296875,0.3580780029296875
1772537157468491000,4.641490966796875,-1.1410980224609375,-0.4382781982421875,0.3094482421875
1772537157478540300,4.651540283203125,-1.0074615478515625,-0.374786376953125,0.2696075439453125
1772537157488588000,4.661588134765625,-0.8362274169921875,-0.295989990234375,0.228546142578125
1772537157498636300,4.67163623046875,-0.674285888671875,-0.212005615234375,0.1652984619140625
1772537157508685000,4.68168505859375,-0.5655364990234375,-0.1032562255859375,0.091583251953125
1772537157518733300,4.6917333984375,-0.504547119140625,0.0036773681640625,0.0603485107421875
1772537157528781000,4.701781005859375,-0.4752197265625,0.0687103271484375,0.0283660888671875
1772537157538829000,4.7118291015625,-0.4459228515625,0.096038818359375,-0.0019683837890625
1772537157548878000,4.721878173828125,-0.373809814453125,0.1092529296875,-0.03265380859375
1772537157558926000,4.731926025390625,-0.2964019775390625,0.1360321044921875,-0.0517578125
1772537157568974300,4.741974365234375,-0.2388458251953125,0.1650543212890625,-0.048919677734375
1772537157579023000,4.752023193359375,-0.1886138916015625,0.17791748046875,-0.0415802001953125
1772537157589071400,4.7620712890625,-0.138946533203125,0.1713714599609375,-0.0344696044921875
1772537157599119000,4.772119140625,-0.102325439453125,0.1539306640625,-0.0173797607421875
1772537157609168100,4.782168212890625,-0.0695648193359375,0.12750244140625,0.00030517578125
1772537157619216100,4.792216064453125,-0.033203125,0.1017608642578125,0.0027313232421875
1772537157629264100,4.80226416015625,-0.0176849365234375,0.0812225341796875,0.0142059326171875
1772537157639312400,4.8123125,-0.0244903564453125,0.04791259765625,0.0272216796875
1772537157649361200,4.822361083984375,-0.03924560546875,0.0037994384765625,0.0160369873046875
1772537157659409200,4.8324091796875,-0.0677947998046875,-0.0352325439453125,-0.0106353759765625
1772537157669457200,4.84245703125,-0.124755859375,-0.0785675048828125,-0.003204345703125
1772537157679506200,4.852506103515625,-0.2161865234375,-0.1456451416015625,0.0390167236328125
1772537157689554200,4.86255419921875,-0.2917327880859375,-0.2608642578125,0.0824737548828125
1772537157699602200,4.872602294921875,-0.3948211669921875,-0.3819580078125,0.1529541015625
1772537157709651200,4.882651123046875,-0.5504608154296875,-0.4766693115234375,0.2305145263671875
1772537157719699200,4.89269921875,-0.6755218505859375,-0.5218505859375,0.238006591796875
1772537157729747000,4.902746826171875,-0.7206878662109375,-0.484375,0.1943817138671875
1772537157739796200,4.912796142578125,-0.749237060546875,-0.4289398193359375,0.1530914306640625
1772537157749844000,4.922843994140625,-0.8326873779296875,-0.389739990234375,0.153839111328125
1772537157759892200,4.932892333984375,-0.9706878662109375,-0.3704986572265625,0.192535400390625
1772537157769940200,4.942940185546875,-1.11773681640625,-0.3363037109375,0.232452392578125
1772537157779989200,4.9529892578125,-1.199554443359375,-0.2773590087890625,0.2501373291015625
1772537157790037200,4.963037353515625,-1.2396087646484375,-0.2694091796875,0.25360107421875
1772537157800085000,4.9730849609375,-1.2768402099609375,-0.3438873291015625,0.271209716796875
1772537157810134300,4.98313427734375,-1.279571533203125,-0.44805908203125,0.311279296875
1772537157820182000,4.99318212890625,-1.2880401611328125,-0.57818603515625,0.363494873046875
1772537157830230300,5.003230224609375,-1.32061767578125,-0.74639892578125,0.434234619140625
1772537157840279000,5.013279052734375,-1.3586578369140625,-0.8795013427734375,0.494964599609375
1772537157850327300,5.023327392578125,-1.4169158935546875,-0.928863525390625,0.4973602294921875
1772537157860375000,5.033375,-1.463958740234375,-0.9566497802734375,0.4683380126953125
1772537157870423000,5.043423095703125,-1.475433349609375,-0.9841156005859375,0.42626953125
1772537157880472000,5.05347216796875,-1.472564697265625,-0.954254150390625,0.3706207275390625
1772537157890520000,5.06352001953125,-1.485443115234375,-0.8980712890625,0.363555908203125
1772537157900568300,5.073568359375,-1.507171630859375,-0.8525543212890625,0.407257080078125
1772537157910617000,5.0836171875,-1.498016357421875,-0.817535400390625,0.478546142578125
1772537157920665300,5.093665283203125,-1.4866943359375,-0.8096466064453125,0.5528411865234375
1772537157930713000,5.103713134765625,-1.4730224609375,-0.8193817138671875,0.608001708984375
1772537157940762400,5.113762451171875,-1.4626617431640625,-0.8323211669921875,0.635009765625
1772537157950810000,5.12381005859375,-1.4763946533203125,-0.838287353515625,0.632537841796875
1772537157960858000,5.133858154296875,-1.4587554931640625,-0.8477020263671875,0.6037445068359375
1772537157970907100,5.1439072265625,-1.4063262939453125,-0.842437744140625,0.5208282470703125
1772537157980955100,5.153955078125,-1.3756866455078125,-0.821258544921875,0.44268798828125
1772537157991003400,5.16400341796875,-1.3565673828125,-0.779693603515625,0.39056396484375
1772537158001051100,5.174051025390625,-1.3385009765625,-0.722259521484375,0.3466339111328125
1772537158011100200,5.18410009765625,-1.2995147705078125,-0.6475372314453125,0.319793701171875
1772537158021148200,5.194148193359375,-1.2177581787109375,-0.5544586181640625,0.322113037109375
1772537158031196200,5.204196044921875,-1.11810302734375,-0.4559783935546875,0.31475830078125
1772537158041245200,5.2142451171875,-0.9951019287109375,-0.35638427734375,0.29022216796875
1772537158051293200,5.224293212890625,-0.8657989501953125,-0.24530029296875,0.2447052001953125
1772537158061341000,5.2343408203125,-0.74505615234375,-0.1341552734375,0.1933746337890625
1772537158071390200,5.24439013671875,-0.632415771484375,-0.0382080078125,0.145782470703125
1772537158081438000,5.25443798828125,-0.503021240234375,0.0362701416015625,0.0861968994140625
1772537158091485400,5.2644853515625,-0.3890380859375,0.0850677490234375,0.0143585205078125
1772537158101533700,5.27453369140625,-0.30126953125,0.117156982421875,-0.0471954345703125
1772537158111582500,5.28458251953125,-0.22491455078125,0.131500244140625,-0.089691162109375
1772537158121630700,5.294630615234375,-0.1588287353515625,0.1341094970703125,-0.1202392578125
1772537158131678500,5.304678466796875,-0.1011962890625,0.1143646240234375,-0.1297760009765625
1772537158141727700,5.314727783203125,-0.0555419921875,0.0718994140625,-0.11053466796875
1772537158151775500,5.324775390625,-0.0359344482421875,0.0413818359375,-0.06964111328125
1772537158161823500,5.334823486328125,-0.0155792236328125,0.029388427734375,-0.032073974609375
1772537158171871700,5.344871826171875,0.0045928955078125,0.0301971435546875,-0.0140838623046875
1772537158181920500,5.35492041015625,0.0277862548828125,0.025482177734375,-0.0156402587890625
1772537158191968800,5.36496875,0.061798095703125,-0.0034637451171875,-0.0113067626953125
1772537158202016500,5.3750166015625,0.0521392822265625,-0.0381927490234375,-0.007354736328125
1772537158212065800,5.385065673828125,-0.0139617919921875,-0.055328369140625,0.0070037841796875
1772537158222113500,5.395113525390625,-0.0853729248046875,-0.10394287109375,0.04510498046875
1772537158232161500,5.40516162109375,-0.160400390625,-0.206787109375,0.0803985595703125
1772537158242210600,5.41521044921875,-0.2747955322265625,-0.3234710693359375,0.1275482177734375
1772537158252258600,5.425258544921875,-0.402313232421875,-0.443939208984375,0.1926116943359375
1772537158262306800,5.435306884765625,-0.5460357666015625,-0.5450592041015625,0.2336883544921875
1772537158272354600,5.4453544921875,-0.6856536865234375,-0.58587646484375,0.251495361328125
1772537158282403600,5.455403564453125,-0.7734375,-0.6198883056640625,0.2753448486328125
1772537158292451600,5.46545166015625,-0.87200927734375,-0.7001953125,0.3115997314453125
1772537158302499600,5.47549951171875,-0.9783935546875,-0.7365875244140625,0.2939605712890625
1772537158312548600,5.485548583984375,-1.04888916015625,-0.6125640869140625,0.20001220703125
1772537158322596600,5.4955966796875,-1.088165283203125,-0.4672698974609375,0.108184814453125
1772537158332644400,5.505644287109375,-1.1732635498046875,-0.4461822509765625,0.122100830078125
1772537158342693600,5.515693603515625,-1.2799224853515625,-0.546142578125,0.250946044921875
1772537158352741400,5.525741455078125,-1.3503875732421875,-0.6606903076171875,0.421844482421875
1772537158362789600,5.53578955078125,-1.4322509765625,-0.745025634765625,0.5679168701171875
1772537158372838400,5.54583837890625,-1.5099029541015625,-0.836395263671875,0.6764678955078125
1772537158382886700,5.55588671875,-1.543304443359375,-0.8884735107421875,0.6970672607421875
1772537158392934700,5.5659345703125,-1.622039794921875,-0.9047393798828125,0.63494873046875
1772537158402982400,5.575982421875,-1.7093048095703125,-0.93121337890625,0.5645294189453125
1772537158413031700,5.58603173828125,-1.7703399658203125,-0.9459686279296875,0.46343994140625
1772537158423079400,5.596079345703125,-1.83367919921875,-0.915740966796875,0.33905029296875
1772537158433127700,5.606127685546875,-1.8593902587890625,-0.8801422119140625,0.2873382568359375
1772537158443176400,5.616176513671875,-1.845794677734375,-0.83575439453125,0.3006134033203125
1772537158453224700,5.626224609375,-1.7880706787109375,-0.7790069580078125,0.3345489501953125
1772537158463272400,5.6362724609375,-1.7037200927734375,-0.7198944091796875,0.391326904296875
1772537158473321700,5.64632177734375,-1.6519927978515625,-0.6885986328125,0.4599151611328125
1772537158483369500,5.656369384765625,-1.6096038818359375,-0.6720123291015625,0.499755859375
1772537158493417500,5.66641748046875,-1.5252227783203125,-0.65203857421875,0.493804931640625
1772537158503465700,5.6764658203125,-1.425689697265625,-0.640899658203125,0.4650726318359375
1772537158513514500,5.686514404296875,-1.321044921875,-0.626190185546875,0.421051025390625
1772537158523562800,5.696562744140625,-1.1947021484375,-0.5950927734375,0.3513946533203125
1772537158533610500,5.706610595703125,-1.07080078125,-0.5461578369140625,0.287872314453125
1772537158543659800,5.71665966796875,-0.936920166015625,-0.4739990234375,0.2303619384765625
1772537158553707500,5.72670751953125,-0.81060791015625,-0.371856689453125,0.1563720703125
1772537158563755500,5.736755615234375,-0.732574462890625,-0.2484893798828125,0.0619354248046875
1772537158573804500,5.746804443359375,-0.722503662109375,-0.1154937744140625,-0.0120697021484375
1772537158583852500,5.7568525390625,-0.7031402587890625,-0.023223876953125,-0.0224609375
1772537158593900800,5.76690087890625,-0.6107177734375,0.0159454345703125,-0.049560546875
1772537158603948500,5.776948486328125,-0.5268402099609375,0.053924560546875,-0.06414794921875
1772537158613997800,5.786997802734375,-0.44891357421875,0.096649169921875,-0.0728607177734375
1772537158624045600,5.797045654296875,-0.3710479736328125,0.1423797607421875,-0.0796051025390625
1772537158634093600,5.807093505859375,-0.294403076171875,0.183349609375,-0.071075439453125
1772537158644142600,5.817142578125,-0.2075653076171875,0.2039794921875,-0.067047119140625
1772537158654190600,5.827190673828125,-0.1309814453125,0.1806640625,-0.0546417236328125
1772537158664238600,5.837238525390625,-0.0748748779296875,0.136322021484375,-0.026824951171875
1772537158674287600,5.84728759765625,-0.013031005859375,0.078765869140625,-0.000091552734375
1772537158684335400,5.85733544921875,0.0305938720703125,0.0283050537109375,0.0140533447265625
1772537158694383600,5.867383544921875,0.054443359375,-0.0099029541015625,0.0340728759765625
1772537158704432400,5.877432373046875,0.073883056640625,-0.04913330078125,0.051177978515625
1772537158714480600,5.887480712890625,0.0618896484375,-0.074462890625,0.0598297119140625
1772537158724528600,5.897528564453125,0.0336761474609375,-0.0935516357421875,0.0711669921875
1772537158734576400,5.907576416015625,-0.00836181640625,-0.12335205078125,0.0919189453125
1772537158744625700,5.917625732421875,-0.0674285888671875,-0.1757659912109375,0.137115478515625
1772537158754673400,5.92767333984375,-0.15673828125,-0.2610931396484375,0.207611083984375
1772537158764721700,5.9377216796875,-0.2656707763671875,-0.37237548828125,0.283050537109375
1772537158774770400,5.9477705078125,-0.384368896484375,-0.4878387451171875,0.314453125
1772537158784818700,5.957818603515625,-0.4825286865234375,-0.5637664794921875,0.2735443115234375
1772537158794866700,5.96786669921875,-0.5661468505859375,-0.6302642822265625,0.2783355712890625
1772537158804915700,5.977915771484375,-0.70562744140625,-0.7395477294921875,0.3441162109375
1772537158814963500,5.98796337890625,-0.9158172607421875,-0.81060791015625,0.428680419921875
1772537158825011500,5.998011474609375,-1.0530853271484375,-0.74468994140625,0.3925323486328125
1772537158835059700,6.008059814453125,-1.0844573974609375,-0.5926055908203125,0.2448272705078125
1772537158845108500,6.0181083984375,-1.1417236328125,-0.4719085693359375,0.144195556640625
1772537158855156700,6.02815673828125,-1.246337890625,-0.4029083251953125,0.143402099609375
1772537158865204500,6.03820458984375,-1.31494140625,-0.418914794921875,0.221893310546875
1772537158875253800,6.048253662109375,-1.375244140625,-0.4598846435546875,0.3260498046875
1772537158885301500,6.058301513671875,-1.4606781005859375,-0.494537353515625,0.4532012939453125
1772537158895349500,6.068349609375,-1.4826202392578125,-0.5724334716796875,0.5575408935546875
1772537158905398500,6.0783984375,-1.4990692138671875,-0.653656005859375,0.5966033935546875
1772537158915446500,6.088446533203125,-1.5448760986328125,-0.727813720703125,0.5995941162109375
1772537158925494800,6.098494873046875,-1.597137451171875,-0.80474853515625,0.55487060546875
1772537158935542500,6.10854248046875,-1.6608428955078125,-0.86810302734375,0.45733642578125
1772537158945591800,6.118591796875,-1.7296295166015625,-0.893402099609375,0.371124267578125
1772537158955639600,6.1286396484375,-1.7875518798828125,-0.8643035888671875,0.322967529296875
1772537158965687600,6.1386875,-1.79974365234375,-0.7951202392578125,0.3157806396484375
1772537158975736600,6.148736572265625,-1.7470855712890625,-0.7252960205078125,0.356170654296875
1772537158985784600,6.15878466796875,-1.696044921875,-0.673675537109375,0.402099609375
1772537158995832600,6.16883251953125,-1.673553466796875,-0.61737060546875,0.425994873046875
1772537159005881600,6.178881591796875,-1.54168701171875,-0.6449737548828125,0.479095458984375
1772537159015929600,6.1889296875,-1.537200927734375,-0.6331634521484375,0.5120697021484375
1772537159025977600,6.1989775390625,-1.5929412841796875,-0.5461883544921875,0.4779815673828125
1772537159036025600,6.209025634765625,-1.5307159423828125,-0.491546630859375,0.43914794921875
1772537159046074600,6.21907470703125,-1.4438629150390625,-0.4681854248046875,0.39190673828125
1772537159056122600,6.22912255859375,-1.353363037109375,-0.4417572021484375,0.3402099609375
1772537159066170600,6.239170654296875,-1.2473907470703125,-0.4152374267578125,0.298858642578125
1772537159076219600,6.2492197265625,-1.1488494873046875,-0.392486572265625,0.2831878662109375
1772537159086267400,6.259267333984375,-1.042327880859375,-0.365264892578125,0.27581787109375
1772537159096315400,6.2693154296875,-0.910369873046875,-0.3295440673828125,0.2560882568359375
1772537159106364200,6.2793642578125,-0.7774810791015625,-0.280181884765625,0.2270355224609375
1772537159116412400,6.289412353515625,-0.67572021484375,-0.21533203125,0.2041015625
1772537159126460400,6.29946044921875,-0.6069488525390625,-0.1278839111328125,0.174591064453125
1772537159136509200,6.30950927734375,-0.4910888671875,-0.0418548583984375,0.1316680908203125
1772537159146557400,6.319557373046875,-0.362335205078125,0.016815185546875,0.0940399169921875
1772537159156605200,6.329605224609375,-0.2783203125,0.0380706787109375,0.060333251953125
1772537159166653400,6.3396533203125,-0.2290191650390625,0.0276947021484375,0.01031494140625
1772537159176702200,6.3497021484375,-0.175506591796875,0.0081939697265625,-0.0535125732421875
1772537159186750200,6.359750244140625,-0.120452880859375,0.003997802734375,-0.110443115234375
1772537159196798200,6.369798095703125,-0.0860443115234375,0.012725830078125,-0.1433563232421875
1772537159206847200,6.37984716796875,-0.05804443359375,0.0091400146484375,-0.1423492431640625
1772537159216895200,6.389895263671875,-0.0449066162109375,0.0097808837890625,-0.11016845703125
1772537159226943200,6.399943115234375,-0.0275726318359375,0.0173492431640625,-0.063323974609375
1772537159236992300,6.4099921875,0.0066375732421875,0.0152587890625,-0.0375518798828125
1772537159247040300,6.420040283203125,0.0346527099609375,0.013214111328125,-0.0212249755859375
1772537159257088300,6.430088134765625,0.041900634765625,0.0054473876953125,-0.00872802734375
1772537159267136300,6.44013623046875,0.020538330078125,-0.0225067138671875,0.0145263671875
1772537159277185300,6.450185302734375,-0.060791015625,-0.0537567138671875,0.03515625
1772537159287233300,6.4602333984375,-0.1640777587890625,-0.1087493896484375,0.0756378173828125
1772537159297281300,6.47028125,-0.303680419921875,-0.182891845703125,0.1219940185546875
1772537159307330300,6.480330322265625,-0.45745849609375,-0.265716552734375,0.1821746826171875
1772537159317378300,6.49037841796875,-0.61083984375,-0.468597412109375,0.3463592529296875
1772537159327426300,6.50042626953125,-0.8187103271484375,-0.7997589111328125,0.5765228271484375
1772537159337475300,6.510475341796875,-0.9636993408203125,-0.9231414794921875,0.650390625
1772537159347523300,6.5205234375,-0.8970947265625,-0.61895751953125,0.344940185546875
1772537159357571300,6.5305712890625,-0.7753143310546875,-0.351776123046875,-0.0200347900390625
1772537159367619300,6.540619384765625,-0.9256439208984375,-0.3128204345703125,-0.1126556396484375
1772537159377668400,6.55066845703125,-1.12591552734375,-0.3419189453125,0.0033111572265625
1772537159387716400,6.56071630859375,-1.2462158203125,-0.3471832275390625,0.1267852783203125
1772537159397764000,6.57076416015625,-1.3093719482421875,-0.3366241455078125,0.2666168212890625
1772537159407813400,6.5808134765625,-1.3212890625,-0.3701934814453125,0.3938140869140625
1772537159417861000,6.590861083984375,-1.3340301513671875,-0.405670166015625,0.458465576171875
1772537159427909400,6.600909423828125,-1.382354736328125,-0.455169677734375,0.523101806640625
1772537159437958100,6.610958251953125,-1.4647064208984375,-0.5180511474609375,0.600677490234375
1772537159448006400,6.62100634765625,-1.529022216796875,-0.5409393310546875,0.606048583984375
1772537159458054400,6.631054443359375,-1.574249267578125,-0.553375244140625,0.5446929931640625
1772537159468102100,6.64110205078125,-1.6173553466796875,-0.5554046630859375,0.4427032470703125
1772537159478151400,6.6511513671875,-1.64642333984375,-0.5544281005859375,0.335968017578125
1772537159488199200,6.66119921875,-1.6633453369140625,-0.5456085205078125,0.28173828125
1772537159498247400,6.671247314453125,-1.679229736328125,-0.5167236328125,0.30767822265625
1772537159508296200,6.681296142578125,-1.7169189453125,-0.47808837890625,0.40118408203125
1772537159518344400,6.691344482421875,-1.6869354248046875,-0.441650390625,0.50946044921875
1772537159528392200,6.70139208984375,-1.6539306640625,-0.4180145263671875,0.607666015625
1772537159538441200,6.711441162109375,-1.63555908203125,-0.441314697265625,0.70770263671875
1772537159548489200,6.7214892578125,-1.6221771240234375,-0.4808807373046875,0.7502288818359375
1772537159558537200,6.731537109375,-1.6128082275390625,-0.522552490234375,0.7196807861328125
1772537159568585500,6.74158544921875,-1.5740509033203125,-0.55523681640625,0.6275482177734375
1772537159578634200,6.75163427734375,-1.5551300048828125,-0.5471038818359375,0.50152587890625
1772537159588682200,6.76168212890625,-1.5506591796875,-0.5258331298828125,0.3983917236328125
1772537159598730200,6.771730224609375,-1.55462646484375,-0.4923553466796875,0.3159027099609375
1772537159608779300,6.781779296875,-1.4864044189453125,-0.43426513671875,0.2779541015625
1772537159618827300,6.7918271484375,-1.37030029296875,-0.348052978515625,0.2744903564453125
1772537159628875300,6.801875244140625,-1.2516021728515625,-0.2446441650390625,0.295623779296875
1772537159638924300,6.81192431640625,-1.08831787109375,-0.1527557373046875,0.3111724853515625
1772537159648972300,6.82197216796875,-0.935638427734375,-0.0599822998046875,0.3150177001953125
1772537159659020300,6.832020263671875,-0.8185882568359375,0.0339508056640625,0.2891998291015625
1772537159669068300,6.842068359375,-0.6566162109375,0.10247802734375,0.271453857421875
1772537159679117300,6.852117431640625,-0.5104522705078125,0.1258697509765625,0.234344482421875
1772537159689165300,6.862165283203125,-0.3706817626953125,0.1179656982421875,0.195465087890625
1772537159699213300,6.87221337890625,-0.24725341796875,0.0893402099609375,0.150054931640625
1772537159709262300,6.882262451171875,-0.1470489501953125,0.057373046875,0.08477783203125
1772537159719310300,6.892310302734375,-0.0493927001953125,0.020416259765625,0.0035247802734375
1772537159729358000,6.902358154296875,0.0253448486328125,-0.011505126953125,-0.04766845703125
1772537159739407400,6.912407470703125,0.0660400390625,-0.0264892578125,-0.0761260986328125
1772537159749455000,6.922455078125,0.08233642578125,-0.039154052734375,-0.0822906494140625
1772537159759503400,6.93250341796875,0.107269287109375,-0.0513458251953125,-0.0649261474609375
1772537159769551400,6.94255126953125,0.1309661865234375,-0.037384033203125,-0.040740966796875
1772537159779600400,6.952600341796875,0.147552490234375,-0.0194244384765625,-0.023834228515625
1772537159789648400,6.9626484375,0.14154052734375,-0.0233154296875,-0.018768310546875
1772537159799696100,6.972696044921875,0.10992431640625,-0.0595550537109375,0.0023956298828125
1772537159809745400,6.982745361328125,0.0591278076171875,-0.130126953125,0.035552978515625
1772537159819793200,6.992793212890625,-0.064239501953125,-0.1898040771484375,0.0584259033203125
1772537159829841400,7.00284130859375,-0.1756134033203125,-0.2580108642578125,0.1009368896484375
1772537159839890200,7.01289013671875,-0.2903900146484375,-0.32427978515625,0.167022705078125
1772537159849938400,7.0229384765625,-0.4266815185546875,-0.3900146484375,0.205108642578125
1772537159859986400,7.032986328125,-0.5428619384765625,-0.4570770263671875,0.232330322265625
1772537159870035200,7.04303515625,-0.6858062744140625,-0.4975128173828125,0.2079315185546875
1772537159880083200,7.053083251953125,-0.8002777099609375,-0.5467376708984375,0.173126220703125
1772537159890131200,7.063131103515625,-0.91436767578125,-0.6331329345703125,0.158416748046875
1772537159900179500,7.073179443359375,-1.031341552734375,-0.7252349853515625,0.1454620361328125
1772537159910228200,7.083228271484375,-1.1527252197265625,-0.7479705810546875,0.14678955078125
1772537159920276500,7.0932763671875,-1.23150634765625,-0.6740570068359375,0.122833251953125
1772537159930324200,7.10332421875,-1.25640869140625,-0.531890869140625,0.0837249755859375
1772537159940373200,7.113373291015625,-1.276580810546875,-0.429534912109375,0.1313629150390625
1772537159950421200,7.123421142578125,-1.3097991943359375,-0.4600372314453125,0.2832183837890625
1772537159960469200,7.13346923828125,-1.36956787109375,-0.5273590087890625,0.4425201416015625
1772537159970518300,7.143518310546875,-1.4139862060546875,-0.5487060546875,0.5763092041015625
1772537159980566300,7.153566162109375,-1.4254302978515625,-0.5888214111328125,0.660919189453125
1772537159990614300,7.1636142578125,-1.4459686279296875,-0.6669158935546875,0.6910858154296875
1772537160000662300,7.173662353515625,-1.4801483154296875,-0.750457763671875,0.68621826171875
1772537160010711300,7.183711181640625,-1.5535736083984375,-0.80621337890625,0.6332550048828125
1772537160020759300,7.19375927734375,-1.6603240966796875,-0.8548126220703125,0.575592041015625
1772537160030807300,7.203807373046875,-1.7258148193359375,-0.86871337890625,0.514312744140625
1772537160040856300,7.213856201171875,-1.7421417236328125,-0.855926513671875,0.4738616943359375
1772537160050904300,7.223904296875,-1.7754058837890625,-0.8245391845703125,0.4694671630859375
1772537160060952000,7.2339521484375,-1.769866943359375,-0.784027099609375,0.482757568359375
1772537160071001300,7.24400146484375,-1.77569580078125,-0.7202911376953125,0.5416717529296875
1772537160081049000,7.254049072265625,-1.800048828125,-0.6718292236328125,0.63067626953125
1772537160091097300,7.264097412109375,-1.7899322509765625,-0.6445770263671875,0.6711883544921875
1772537160101145300,7.274145263671875,-1.727142333984375,-0.616790771484375,0.6517486572265625
1772537160111194400,7.2841943359375,-1.6636505126953125,-0.584228515625,0.5908355712890625
1772537160121242400,7.294242431640625,-1.589019775390625,-0.565826416015625,0.503021240234375
1772537160131290000,7.3042900390625,-1.4993896484375,-0.533843994140625,0.3980255126953125
1772537160141339400,7.31433935546875,-1.3857421875,-0.482757568359375,0.2818756103515625
1772537160151387100,7.32438720703125,-1.2351531982421875,-0.435455322265625,0.2020111083984375
1772537160161435400,7.334435302734375,-1.0598602294921875,-0.3654632568359375,0.1789093017578125
1772537160171484200,7.344484130859375,-0.872955322265625,-0.24798583984375,0.1653900146484375
1772537160181532400,7.354532470703125,-0.6912078857421875,-0.1354217529296875,0.1379241943359375
1772537160191580400,7.364580322265625,-0.50787353515625,-0.042205810546875,0.0973052978515625
1772537160201628200,7.374628173828125,-0.3337860107421875,0.033172607421875,0.0498809814453125
1772537160211677400,7.384677490234375,-0.197998046875,0.072723388671875,0.008270263671875
1772537160221725200,7.39472509765625,-0.09649658203125,0.0928955078125,-0.00457763671875
1772537160231773400,7.4047734375,0.0079498291015625,0.0866546630859375,0.0084381103515625
1772537160241822200,7.414822265625,0.1258697509765625,0.06011962890625,0.02020263671875
1772537160251870500,7.424870361328125,0.2376708984375,0.0308380126953125,0.025299072265625
1772537160261918200,7.434918212890625,0.3001556396484375,-0.00201416015625,0.0250396728515625
1772537160271967200,7.44496728515625,0.326385498046875,-0.03564453125,0.019989013671875
1772537160282015200,7.45501513671875,0.3143157958984375,-0.0345611572265625,0.0182342529296875
1772537160292063200,7.465063232421875,0.2914886474609375,-0.031707763671875,0.007843017578125
1772537160302111500,7.475111572265625,0.2696990966796875,-0.0754241943359375,0.017486572265625
1772537160312160300,7.48516015625,0.2183837890625,-0.1187896728515625,0.023651123046875
1772537160322208500,7.49520849609375,0.175262451171875,-0.13140869140625,0.0189971923828125
1772537160332256300,7.50525634765625,0.09759521484375,-0.1313018798828125,-0.000213623046875
1772537160342305300,7.51530517578125,0.0212554931640625,-0.141265869140625,-0.02789306640625
1772537160352353300,7.525353271484375,-0.085968017578125,-0.136383056640625,-0.062042236328125
1772537160362401300,7.5354013671875,-0.20233154296875,-0.146484375,-0.0637359619140625
1772537160372450300,7.5454501953125,-0.3349456787109375,-0.19244384765625,-0.0157470703125
1772537160382498300,7.555498291015625,-0.4856414794921875,-0.28546142578125,0.0847930908203125
1772537160392546300,7.56554638671875,-0.63482666015625,-0.4221038818359375,0.2101898193359375
1772537160402594300,7.57559423828125,-0.7556304931640625,-0.547760009765625,0.3136138916015625
1772537160412643000,7.58564306640625,-0.8307952880859375,-0.6440277099609375,0.3348541259765625
1772537160422691300,7.59569140625,-0.9233245849609375,-0.7686767578125,0.34527587890625
1772537160432739300,7.6057392578125,-1.0594024658203125,-0.8766632080078125,0.2848663330078125
1772537160442788400,7.615788330078125,-1.1454925537109375,-0.8096466064453125,0.1095428466796875
1772537160452836400,7.62583642578125,-1.2270965576171875,-0.6524658203125,-0.0491180419921875
1772537160462884000,7.635884033203125,-1.3355560302734375,-0.56536865234375,-0.072113037109375
1772537160472933400,7.645933349609375,-1.4661865234375,-0.5763092041015625,0.0695037841796875
1772537160482981000,7.655981201171875,-1.5871734619140625,-0.6041107177734375,0.2522735595703125
1772537160493029400,7.666029296875,-1.6480865478515625,-0.55419921875,0.3688507080078125
1772537160503078100,7.676078125,-1.6688079833984375,-0.4921417236328125,0.4290924072265625
1772537160513126400,7.68612646484375,-1.7195587158203125,-0.434173583984375,0.477264404296875
1772537160523174400,7.69617431640625,-1.78265380859375,-0.4040069580078125,0.5194854736328125
1772537160533222100,7.70622216796875,-1.8299560546875,-0.418792724609375,0.53338623046875
1772537160543271400,7.716271484375,-1.85107421875,-0.4683380126953125,0.5093841552734375
1772537160553319200,7.726319091796875,-1.8599395751953125,-0.5306243896484375,0.481597900390625
1772537160563367400,7.736367431640625,-1.8615264892578125,-0.5768890380859375,0.4703521728515625
1772537160573416200,7.746416259765625,-1.870025634765625,-0.60955810546875,0.4832763671875
1772537160583464400,7.75646435546875,-1.86578369140625,-0.6355438232421875,0.4991302490234375
1772537160593512200,7.76651220703125,-1.82794189453125,-0.65350341796875,0.49078369140625
1772537160603561500,7.7765615234375,-1.7877960205078125,-0.6688690185546875,0.5031585693359375
1772537160613609200,7.786609130859375,-1.7347412109375,-0.6826629638671875,0.505096435546875
1772537160623657200,7.7966572265625,-1.660614013671875,-0.674041748046875,0.489471435546875
1772537160633705500,7.80670556640625,-1.5656890869140625,-0.64935302734375,0.478271484375
1772537160643754200,7.816754150390625,-1.443450927734375,-0.6340179443359375,0.4611968994140625
1772537160653802500,7.826802490234375,-1.3239593505859375,-0.6104278564453125,0.43438720703125
1772537160663850200,7.836850341796875,-1.2067108154296875,-0.561492919921875,0.4166717529296875
1772537160673899300,7.846899169921875,-1.127838134765625,-0.496337890625,0.37176513671875
1772537160683947300,7.856947265625,-1.0660247802734375,-0.415069580078125,0.278228759765625
1772537160693995300,7.866995361328125,-1.0110931396484375,-0.3203277587890625,0.2299346923828125
1772537160704044300,7.877044189453125,-0.9629364013671875,-0.23248291015625,0.21527099609375
1772537160714092300,7.88709228515625,-0.87646484375,-0.1429901123046875,0.1938629150390625
1772537160724140300,7.897140380859375,-0.75634765625,-0.0249481201171875,0.18023681640625
1772537160734188300,7.907188232421875,-0.6098175048828125,0.0867767333984375,0.151214599609375
1772537160744237300,7.9172373046875,-0.4515228271484375,0.138916015625,0.103759765625
1772537160754285300,7.927285400390625,-0.3009185791015625,0.1391143798828125,0.0504913330078125
1772537160764333300,7.937333251953125,-0.161346435546875,0.1038818359375,0.0126800537109375
1772537160774382300,7.94738232421875,-0.05389404296875,0.0579376220703125,-0.0105438232421875
1772537160784430300,7.957430419921875,0.0542144775390625,-0.0041961669921875,-0.0277557373046875
1772537160794478000,7.96747802734375,0.1261138916015625,-0.0605010986328125,-0.032501220703125
1772537160804527400,7.97752734375,0.17596435546875,-0.0792388916015625,-0.0346832275390625
1772537160814575000,7.9875751953125,0.2545623779296875,-0.098602294921875,-0.03399658203125
1772537160824623400,7.997623291015625,0.275146484375,-0.1211700439453125,-0.033447265625
1772537160834671400,8.00767138671875,0.2493133544921875,-0.14190673828125,-0.039886474609375
1772537160844720400,8.017720458984375,0.2016754150390625,-0.1401824951171875,-0.0311431884765625
1772537160854768400,8.027768310546875,0.13226318359375,-0.120513916015625,-0.008392333984375
1772537160864816000,8.037816162109374,0.088226318359375,-0.097991943359375,0.0088348388671875
1772537160874865400,8.047865478515625,0.0470123291015625,-0.0652313232421875,0.0017547607421875
1772537160884913200,8.0579130859375,0.00750732421875,-0.029266357421875,-0.0081787109375
1772537160894961400,8.06796142578125,-0.0270538330078125,-0.0314788818359375,0.0241851806640625
1772537160905010200,8.07801025390625,-0.103607177734375,-0.06103515625,0.0624847412109375
1772537160915058400,8.088058349609375,-0.2275390625,-0.105865478515625,0.1196746826171875
1772537160925106200,8.098106201171875,-0.3768310546875,-0.187774658203125,0.171417236328125
1772537160935154200,8.108154296875,-0.5335693359375,-0.328765869140625,0.25286865234375
1772537160945203200,8.118203125,-0.64892578125,-0.48822021484375,0.3179473876953125
1772537160955251200,8.128251220703126,-0.77490234375,-0.6751556396484375,0.3929901123046875
1772537160965299500,8.138299560546875,-0.94195556640625,-0.81890869140625,0.411376953125
1772537160975348200,8.14834814453125,-1.043609619140625,-0.7270050048828125,0.2702178955078125
1772537160985396500,8.158396484375,-1.102691650390625,-0.607696533203125,0.1084747314453125
1772537160995444200,8.1684443359375,-1.247406005859375,-0.56256103515625,0.0668792724609375
1772537161005493500,8.178493408203124,-1.3782806396484375,-0.500762939453125,0.11907958984375
1772537161015541200,8.188541259765625,-1.448516845703125,-0.467926025390625,0.2560577392578125
1772537161025589200,8.19858935546875,-1.5292510986328125,-0.4557342529296875,0.405426025390625
1772537161035637500,8.208637451171874,-1.5556182861328125,-0.4154052734375,0.5034332275390625
1772537161045686300,8.218686279296875,-1.6146240234375,-0.4032440185546875,0.5585784912109375
1772537161055734300,8.228734375,-1.6623992919921875,-0.457977294921875,0.5953826904296875
1772537161065782300,8.2387822265625,-1.7074737548828125,-0.5213775634765625,0.5689544677734375
1772537161075831300,8.248831298828126,-1.7896270751953125,-0.566314697265625,0.5366058349609375
1772537161085879300,8.25887939453125,-1.821929931640625,-0.6226348876953125,0.49639892578125
1772537161095927000,8.268927001953125,-1.8355560302734375,-0.667083740234375,0.4562530517578125
1772537161105976000,8.27897607421875,-1.8798065185546875,-0.685882568359375,0.4863433837890625
1772537161116024000,8.289024169921875,-1.8765411376953125,-0.668243408203125,0.541839599609375
1772537161126072000,8.299072021484376,-1.87249755859375,-0.6233978271484375,0.5986175537109375
1772537161136120000,8.3091201171875,-1.855682373046875,-0.5668487548828125,0.6584320068359375
1772537161146169000,8.319169189453126,-1.8160858154296875,-0.5047760009765625,0.6799468994140625
1772537161156217000,8.329217041015625,-1.749114990234375,-0.4800872802734375,0.657806396484375
1772537161166265000,8.33926513671875,-1.6881256103515625,-0.475738525390625,0.6064605712890625
1772537161176314000,8.349314208984374,-1.645721435546875,-0.479156494140625,0.5381927490234375
1772537161186362000,8.359362060546875,-1.5899658203125,-0.46014404296875,0.490264892578125
1772537161196410000,8.36941015625,-1.512451171875,-0.4315338134765625,0.428497314453125
1772537161206458000,8.3794580078125,-1.478057861328125,-0.408050537109375,0.357513427734375
1772537161216507100,8.389507080078126,-1.438690185546875,-0.3525848388671875,0.324859619140625
1772537161226555100,8.39955517578125,-1.4635772705078125,-0.3221893310546875,0.314971923828125
1772537161236603100,8.40960302734375,-1.3777618408203125,-0.2896575927734375,0.25836181640625
1772537161246652200,8.419652099609374,-1.2391357421875,-0.202972412109375,0.225616455078125
1772537161256700200,8.4297001953125,-1.113006591796875,-0.1262664794921875,0.198516845703125
1772537161266748200,8.439748046875,-0.9482269287109375,-0.0559234619140625,0.1798553466796875
1772537161276797200,8.449797119140625,-0.7919158935546875,-0.0470123291015625,0.164276123046875
1772537161286845000,8.459844970703125,-0.6253662109375,-0.048431396484375,0.1175537109375
1772537161296893200,8.46989306640625,-0.4062042236328125,0.01251220703125,0.0677337646484375
1772537161306941000,8.47994091796875,-0.294158935546875,-0.0257568359375,0.0158233642578125
