time,seconds_elapsed,z,y,x
1772537152910330600,0.08333056640625,1.0257164239883423,-0.2114284336566925,0.3485245406627655
1772537152920379600,0.093379638671875,1.0450069904327393,-0.43238505721092224,0.13387352228164673
1772537152930427600,0.103427734375,0.9515928030014038,-0.8042575716972351,-0.2067905217409134
1772537152940475400,0.113475341796875,0.9209123849868774,-0.9211900234222412,-0.5032299160957336
1772537152950524700,0.123524658203125,1.0631510019302368,-0.7526074051856995,-0.6644089221954346
1772537152960572400,0.133572509765625,1.2865263223648071,-0.469359427690506,-0.7388541102409363
1772537152970620700,0.14362060546875,1.4416897296905518,-0.1555986851453781,-0.7547114491462708
1772537152980669400,0.15366943359375,1.389458179473877,0.3826991319656372,-0.5776466727256775
1772537152990717700,0.1637177734375,0.8092072606086731,0.7635725736618042,-0.43593916296958923
1772537153000765400,0.173765380859375,0.18917199969291687,0.5220866799354553,-0.513837456703186
1772537153010813400,0.1838134765625,0.1162431463599205,-0.14766596257686615,-0.5158043503761292
1772537153020862500,0.193862548828125,0.3192833364009857,-0.3506251871585846,-0.36242568492889404
1772537153030910500,0.203910400390625,0.4185531735420227,-0.27183011174201965,-0.21414320170879364
1772537153040958700,0.213958740234375,0.42126375436782837,-0.1546963006258011,-0.02609340101480484
1772537153051007500,0.224007568359375,0.2653954029083252,-0.029513990506529808,0.12641914188861847
1772537153061055500,0.234055419921875,0.10218438506126404,-0.13870573043823242,0.22147934138774872
1772537153071103500,0.244103515625,-0.005706533789634705,-0.3469335436820984,0.22315971553325653
1772537153081152500,0.254152587890625,-0.16037440299987793,-0.5344462394714355,0.17145390808582306
1772537153091196700,0.26419677734375,-0.3156498670578003,-0.8536072969436646,0.13370874524116516
1772537153101244700,0.27424462890625,-0.2757248282432556,-0.9583483934402466,0.020204812288284302
1772537153111293700,0.284293701171875,-0.1418570727109909,-0.7827500104904175,-0.03630555421113968
1772537153121341700,0.294341796875,0.0097811883315444,-0.5639590620994568,-0.056811362504959106
1772537153131390000,0.304389892578125,0.14200453460216522,-0.45695731043815613,-0.02224552445113659
1772537153141438700,0.314438720703125,0.23445910215377808,-0.45943590998649597,0.007541665807366371
1772537153151487000,0.324487060546875,0.26103290915489197,-0.4799664616584778,0.030508698895573616
1772537153161534700,0.33453466796875,0.19870750606060028,-0.41154932975769043,0.130365252494812
1772537153171582700,0.344582763671875,0.05709347873926163,-0.2999046742916107,0.26646819710731506
1772537153181631700,0.3546318359375,-0.09341959655284882,-0.1543639749288559,0.3759715259075165
1772537153191679700,0.3646796875,-0.23336830735206604,-0.1622636467218399,0.5626381635665894
1772537153201727700,0.374727783203125,-0.41216710209846497,-0.3171192705631256,0.7541881203651428
1772537153211776800,0.38477685546875,-0.5719513893127441,-0.5532034039497375,0.8437395095825195
1772537153221824800,0.39482470703125,-0.6592279672622681,-0.7803279161453247,0.8578037023544312
1772537153231872800,0.404872802734375,-0.6874263882637024,-0.9197407364845276,0.8676352500915527
1772537153241921800,0.414921875,-0.7386853098869324,-0.9918652176856995,0.8819754123687744
1772537153251969800,0.4249697265625,-0.8219126462936401,-1.0054837465286255,0.8486137390136719
1772537153262017800,0.435017822265625,-0.8597018718719482,-1.007989764213562,0.7057796716690063
1772537153272066800,0.44506689453125,-0.7904286980628967,-0.9699479341506958,0.494353324174881
1772537153282114800,0.45511474609375,-0.6535121202468872,-0.7677050828933716,0.29599761962890625
1772537153292162800,0.465162841796875,-0.5224390029907227,-0.5292329788208008,0.13227039575576782
1772537153302210800,0.4752109375,-0.48892974853515625,-0.39953145384788513,0.05740148201584816
1772537153312259600,0.485259521484375,-0.5332529544830322,-0.3319079279899597,0.11713752150535583
1772537153322307800,0.495307861328125,-0.46513304114341736,-0.19733652472496033,0.27342328429222107
1772537153332355800,0.50535595703125,-0.20204275846481323,-0.019446108490228653,0.4459548592567444
1772537153342404900,0.51540478515625,0.16447825729846954,0.11665073782205582,0.5743900537490845
1772537153352452900,0.525452880859375,0.5438297986984253,0.10983022302389145,0.6190345883369446
1772537153362500900,0.5355009765625,0.8175798654556274,0.002189511898905039,0.6243821978569031
1772537153372550000,0.5455498046875,0.9507026672363281,-0.1237829327583313,0.6244369149208069
1772537153382597600,0.55559765625,0.995476484298706,-0.11378356069326401,0.6512695550918579
1772537153392646000,0.56564599609375,1.004366159439087,0.015984950587153435,0.6606787443161011
1772537153402694700,0.575694580078125,1.0091460943222046,0.10325247794389725,0.7237458229064941
1772537153412743000,0.585742919921875,0.9717201590538025,0.2213774174451828,0.8036184310913086
1772537153422790700,0.595790771484375,0.9103156924247742,0.26564180850982666,0.8100025653839111
1772537153432840000,0.60583984375,0.838790237903595,0.18819530308246613,0.7315859198570251
1772537153442887700,0.6158876953125,0.7375379204750061,-0.00785916205495596,0.49434617161750793
1772537153452935700,0.625935791015625,0.57748943567276,-0.22048763930797577,0.1644085943698883
1772537153462984000,0.63598388671875,0.37584927678108215,-0.29038336873054504,-0.1321178823709488
1772537153473032700,0.64603271484375,0.20961470901966095,-0.21326225996017456,-0.33097347617149353
1772537153483081000,0.6560810546875,0.10734479129314423,-0.1411244124174118,-0.365909606218338
1772537153493128700,0.666128662109375,0.09568242728710175,-0.13203084468841553,-0.2648618519306183
1772537153503178000,0.676177978515625,0.19099190831184387,-0.253147155046463,-0.14060699939727783
1772537153513225700,0.686225830078125,0.3285422623157501,-0.33817121386528015,-0.029308253899216652
1772537153523273700,0.696273681640625,0.47000592947006226,-0.31288984417915344,0.055879607796669006
1772537153533322800,0.70632275390625,0.578386664390564,-0.16396194696426392,0.13880415260791779
1772537153543370800,0.716370849609375,0.6020091772079468,-0.01353488489985466,0.21493859589099884
1772537153553418800,0.726418701171875,0.540698230266571,-0.009201722219586372,0.2933013439178467
1772537153563467800,0.7364677734375,0.4109944999217987,-0.09664181619882584,0.4109693765640259
1772537153573515800,0.746515869140625,0.29845529794692993,-0.19474531710147858,0.5413990020751953
1772537153583563800,0.756563720703125,0.256423681974411,-0.24010801315307617,0.6248491406440735
1772537153593612500,0.766612548828125,0.29794931411743164,-0.1829671859741211,0.6151506900787354
1772537153603660800,0.776660888671875,0.40012815594673157,-0.11642331629991531,0.4624897837638855
1772537153613708800,0.786708740234375,0.4598676860332489,-0.13018663227558136,0.18082812428474426
1772537153623756800,0.7967568359375,0.43600815534591675,0.010650116950273514,-0.0704168826341629
1772537153633805800,0.806805908203125,0.5413373708724976,0.4965862035751343,-0.3494241237640381
1772537153643853800,0.816853759765625,0.6496861577033997,0.5217685103416443,-0.8508611917495728
1772537153653901800,0.82690185546875,0.6606665253639221,0.24116358160972595,-1.148146390914917
1772537153663950600,0.83695068359375,0.6115237474441528,0.14120955765247345,-1.2643619775772095
1772537153673998800,0.846998779296875,0.5333883166313171,0.04238886013627052,-1.3055880069732666
1772537153684046800,0.857046875,0.39201653003692627,-0.0801442414522171,-1.2010717391967773
1772537153694096000,0.867095947265625,0.2004706859588623,-0.14686927199363708,-1.0596975088119507
1772537153704144000,0.877143798828125,-0.018266720697283745,-0.1463976353406906,-1.002945899963379
1772537153714191600,0.887191650390625,-0.2943756580352783,-0.03475385904312134,-1.0214468240737915
1772537153724241000,0.897240966796875,-0.6245288252830505,0.09063761681318283,-1.0946506261825562
1772537153734288600,0.90728857421875,-0.9573119282722473,0.11029265075922012,-1.1756656169891357
1772537153744337000,0.9173369140625,-1.2489060163497925,0.09327051788568497,-1.1308701038360596
1772537153754385700,0.9273857421875,-1.420631766319275,0.13820220530033112,-0.8788928389549255
1772537153764434000,0.937433837890625,-1.369606375694275,0.19971589744091034,-0.425701379776001
1772537153774481700,0.947481689453125,-1.105029821395874,0.13295061886310577,0.06203615665435791
1772537153784529700,0.95752978515625,-0.7769278883934021,0.0007608975283801556,0.3370935618877411
1772537153794578700,0.96757861328125,-0.5355371236801147,-0.19415053725242615,0.25341683626174927
1772537153804626700,0.977626708984375,-0.393459290266037,-0.3804245591163635,-0.10325579345226288
1772537153814675000,0.987675048828125,-0.2734633684158325,-0.5379460453987122,-0.5460466742515564
1772537153824723700,0.9977236328125,-0.11444947868585587,-0.6726151704788208,-0.964859127998352
1772537153834772000,1.00777197265625,0.02370298095047474,-0.7306911945343018,-1.2901554107666016
1772537153844819700,1.01781982421875,0.1179402694106102,-0.6312700510025024,-1.4356074333190918
1772537153854869000,1.027868896484375,0.22021639347076416,-0.47511085867881775,-1.3745356798171997
1772537153864916700,1.037916748046875,0.324383020401001,-0.4566649794578552,-1.1701513528823853
1772537153874964700,1.04796484375,0.34531736373901367,-0.5309317111968994,-0.841476559638977
1772537153885013800,1.058013671875,0.2944094240665436,-0.6310125589370728,-0.39812469482421875
1772537153895061800,1.068061767578125,0.22032886743545532,-0.6600767374038696,0.09532485902309418
1772537153905109800,1.07810986328125,0.15514986217021942,-0.7102965116500854,0.5601460337638855
1772537153915157800,1.08815771484375,0.10905341804027557,-0.8139280080795288,0.9965967535972595
1772537153925206800,1.098206787109375,0.03729534149169922,-0.8930081725120544,1.410491704940796
1772537153935254800,1.1082548828125,-0.051653485745191574,-0.9066963195800781,1.748289704322815
1772537153945302800,1.118302734375,-0.16338375210762024,-0.7911361455917358,2.0315499305725098
1772537153955351800,1.128351806640625,-0.27649033069610596,-0.7529849410057068,2.264875888824463
1772537153965399800,1.13839990234375,-0.28393733501434326,-0.5846763849258423,2.2742059230804443
1772537153975447800,1.14844775390625,-0.16163650155067444,-0.28479933738708496,2.1559855937957764
1772537153985496800,1.158496826171875,-0.03890552371740341,0.012307962402701378,1.9583792686462402
1772537153995544600,1.168544677734375,0.09294338524341583,0.2283364236354828,1.7145429849624634
1772537154005592800,1.1785927734375,0.21303118765354156,0.3570440709590912,1.4971797466278076
1772537154015641600,1.1886416015625,0.3191463351249695,0.42706143856048584,1.3451180458068848
1772537154025689900,1.19868994140625,0.3988023102283478,0.47518450021743774,1.1946613788604736
1772537154035737900,1.20873779296875,0.38080552220344543,0.4451541006565094,1.043210506439209
1772537154045787000,1.218786865234375,0.28381428122520447,0.4113048017024994,0.8704190254211426
1772537154055835000,1.2288349609375,0.20299768447875977,0.5189238786697388,0.5962823033332825
1772537154065882600,1.238882568359375,0.13026756048202515,0.3591347336769104,0.15173602104187012
1772537154075931000,1.248930908203125,0.04231137037277222,0.17367355525493622,-0.3178892135620117
1772537154085979600,1.258979736328125,0.020695824176073074,0.0670030266046524,-0.6502615809440613
1772537154096031700,1.26903173828125,0.17692352831363678,0.3651695251464844,-0.6666011810302734
1772537154106079500,1.27907958984375,0.33349475264549255,0.4610723555088043,-0.6607893705368042
1772537154116128800,1.289128662109375,0.32524535059928894,0.3358941972255707,-0.7103702425956726
1772537154126176500,1.299176513671875,0.2448732852935791,0.1214713603258133,-0.8661388158798218
1772537154136224800,1.309224853515625,0.11208614706993103,-0.008937408216297626,-1.1056008338928223
1772537154146273500,1.3192734375,-0.059801194816827774,0.05607248470187187,-1.3027973175048828
1772537154156321800,1.32932177734375,-0.21336127817630768,0.15130643546581268,-1.4151537418365479
1772537154166369800,1.339369873046875,-0.3570214807987213,0.1573651283979416,-1.4106522798538208
1772537154176418800,1.349418701171875,-0.4990152418613434,0.1867796629667282,-1.2097958326339722
1772537154186466800,1.359466796875,-0.6128720045089722,0.3046727478504181,-0.7696464657783508
1772537154196514600,1.3695146484375,-0.6005457639694214,0.42613154649734497,-0.15728820860385895
1772537154206562800,1.379562744140625,-0.5007110834121704,0.4189077317714691,0.4357849657535553
1772537154216611600,1.389611572265625,-0.3840131163597107,0.13890132308006287,0.7726316452026367
1772537154226659800,1.399659912109375,-0.2382287234067917,-0.22157910466194153,0.8095678091049194
1772537154236707600,1.40970751953125,-0.049353938549757004,-0.3310956358909607,0.6524629592895508
1772537154246756600,1.419756591796875,0.16760315001010895,-0.2385779619216919,0.3788655400276184
1772537154256804600,1.4298046875,0.35537847876548767,-0.15100915729999542,-0.008758085779845715
1772537154266852600,1.4398525390625,0.458879292011261,-0.0808042362332344,-0.45639845728874207
1772537154276901600,1.449901611328125,0.4804762601852417,0.056197457015514374,-0.865803599357605
1772537154286949600,1.45994970703125,0.4324008822441101,0.2080724686384201,-1.1277519464492798
1772537154296997600,1.46999755859375,0.3302776515483856,0.303630530834198,-1.1418648958206177
1772537154307046700,1.480046630859375,0.22309577465057373,0.24649721384048462,-0.9219091534614563
1772537154317094700,1.4900947265625,0.13621161878108978,0.007514107972383499,-0.5282524228096008
1772537154327142700,1.500142578125,0.04615389183163643,-0.39618220925331116,-0.08666760474443436
1772537154337191700,1.510191650390625,-0.08856156468391418,-0.8042452335357666,0.2843007743358612
1772537154347239700,1.52023974609375,-0.19474126398563385,-1.0182307958602905,0.549079954624176
1772537154357287700,1.53028759765625,-0.21186310052871704,-1.0614852905273438,0.7318289279937744
1772537154367335700,1.540335693359375,-0.17172446846961975,-1.0029799938201904,0.8157669901847839
1772537154377384700,1.550384765625,-0.07895051687955856,-0.8962512016296387,0.7846981883049011
1772537154387432400,1.560432373046875,0.10017742961645126,-0.6985722184181213,0.6608926653862
1772537154397480700,1.570480712890625,0.3310702443122864,-0.40063297748565674,0.44293472170829773
1772537154407529500,1.580529541015625,0.5204612016677856,-0.026642868295311928,0.19201327860355377
1772537154417577700,1.59057763671875,0.68119877576828,0.3502693176269531,0.03910233825445175
1772537154427625700,1.600625732421875,0.8313510417938232,0.6733600497245789,0.07258093357086182
1772537154437674800,1.6106748046875,0.9389012455940247,0.8656445145606995,0.2747125029563904
1772537154447722800,1.62072265625,0.9606725573539734,0.9444493651390076,0.5798769593238831
1772537154457770500,1.6307705078125,0.8725631833076477,0.8990548849105835,0.9162251949310303
1772537154467819800,1.64081982421875,0.6756330728530884,0.7460645437240601,1.2045667171478271
1772537154477867500,1.650867431640625,0.39941883087158203,0.5429598093032837,1.399397611618042
1772537154487915800,1.660915771484375,0.10290355235338211,0.3616507649421692,1.457158088684082
1772537154497963800,1.6709638671875,-0.11170846968889236,0.29704058170318604,1.3986674547195435
1772537154508012800,1.6810126953125,-0.19434529542922974,0.28681057691574097,1.2388511896133423
1772537154518060800,1.691060791015625,-0.1807767003774643,0.23959511518478394,0.9701926708221436
1772537154528108500,1.701108642578125,-0.11991548538208008,0.20422300696372986,0.6075462698936462
1772537154538157800,1.71115771484375,-0.028460171073675156,0.2625987231731415,0.1336643397808075
1772537154548205600,1.72120556640625,0.05425521358847618,0.33573952317237854,-0.44521579146385193
1772537154558253800,1.73125390625,0.08193212002515793,0.3884216248989105,-1.1117993593215942
1772537154568302600,1.741302490234375,0.03968426585197449,0.4907993972301483,-1.7649214267730713
1772537154578350800,1.751350830078125,-0.06683359295129776,0.5611961483955383,-2.271655559539795
1772537154588398600,1.761398681640625,-0.21884894371032715,0.596871018409729,-2.4927165508270264
1772537154598447600,1.771447509765625,-0.4205515682697296,0.5600758194923401,-2.352935552597046
1772537154608495600,1.78149560546875,-0.6334366798400879,0.374388188123703,-1.9149123430252075
1772537154618543600,1.791543701171875,-0.7921423316001892,0.11058492213487625,-1.3008006811141968
1772537154628592600,1.801592529296875,-0.8969566226005554,-0.05527009069919586,-0.6645419597625732
1772537154638640600,1.811640625,-0.9713560938835144,-0.040982894599437714,-0.10633422434329987
1772537154648688600,1.821688720703125,-1.032207727432251,0.05093904212117195,0.38828349113464355
1772537154658736600,1.831736572265625,-1.0532495975494385,0.14641402661800385,0.8513002991676331
1772537154668785700,1.84178564453125,-0.9751899242401123,0.23781931400299072,1.25111722946167
1772537154678833700,1.851833740234375,-0.7768741846084595,0.269959032535553,1.470550298690796
1772537154688881700,1.861881591796875,-0.537144124507904,0.3068603277206421,1.450142502784729
1772537154698930700,1.8719306640625,-0.31882378458976746,0.2965834140777588,1.1687668561935425
1772537154708978700,1.881978759765625,-0.1726951003074646,0.191024512052536,0.720518171787262
1772537154719026700,1.892026611328125,-0.1164071261882782,0.09920108318328857,0.23227578401565552
1772537154729075700,1.90207568359375,-0.10905147343873978,0.009997165761888027,-0.25333669781684875
1772537154739123500,1.91212353515625,-0.13951539993286133,-0.07648566365242004,-0.6367511749267578
1772537154749171700,1.922171630859375,-0.17106853425502777,-0.13477693498134613,-0.8415056467056274
1772537154759220500,1.932220458984375,-0.1712116003036499,-0.12033624202013016,-0.8109522461891174
1772537154769268700,1.942268798828125,-0.16909731924533844,-0.09131257981061935,-0.5560619235038757
1772537154779316700,1.952316650390625,-0.1952970027923584,-0.12006538361310959,-0.1818542778491974
1772537154789364500,1.962364501953125,-0.26221880316734314,-0.2162952572107315,0.2106591761112213
1772537154799413800,1.972413818359375,-0.3481462299823761,-0.40843942761421204,0.5427212715148926
1772537154809461500,1.98246142578125,-0.41681185364723206,-0.6288809776306152,0.7673003077507019
1772537154819509800,1.992509765625,-0.4029496908187866,-0.8187952041625977,0.859447717666626
1772537154829558500,2.00255859375,-0.3242756426334381,-0.9383682012557983,0.8168736100196838
1772537154839606800,2.012606689453125,-0.1998009830713272,-0.9202671647071838,0.6664053201675415
1772537154849654800,2.02265478515625,-0.04413015767931938,-0.7457888126373291,0.5001822710037231
1772537154859703800,2.032703857421875,0.12001718580722809,-0.44788500666618347,0.3985448181629181
1772537154869751800,2.042751708984375,0.2849520742893219,-0.12827931344509125,0.39996403455734253
1772537154879799600,2.052799560546875,0.4560803472995758,0.0923285260796547,0.49500590562820435
1772537154889848800,2.062848876953125,0.5998145937919617,0.1832171529531479,0.6262164115905762
1772537154899896600,2.072896484375,0.7007924914360046,0.20563890039920807,0.7743332982063293
1772537154909944800,2.08294482421875,0.7436462044715881,0.20103003084659576,0.8937504887580872
1772537154919993600,2.09299365234375,0.7291094660758972,0.21555165946483612,0.9750031232833862
1772537154930041600,2.10304150390625,0.6885181069374084,0.2612887918949127,1.026877999305725
1772537154940089600,2.113089599609375,0.6120720505714417,0.34060168266296387,1.0489975214004517
1772537154950137600,2.1231376953125,0.5215767621994019,0.4435773491859436,1.0420942306518555
1772537154960186600,2.1331865234375,0.4583792984485626,0.5703537464141846,0.9921278357505798
1772537154970234600,2.143234619140625,0.43227314949035645,0.6809319257736206,0.8924172520637512
1772537154980283000,2.153282958984375,0.4191741347312927,0.7323938012123108,0.7561172842979431
1772537154990331600,2.16333154296875,0.38452616333961487,0.7183341979980469,0.5996789336204529
1772537155000379600,2.173379638671875,0.3281145393848419,0.6223376393318176,0.41404613852500916
1772537155010427600,2.183427734375,0.24439647793769836,0.5013065338134766,0.19193662703037262
1772537155020476700,2.1934765625,0.14344367384910583,0.4463055431842804,-0.04515475407242775
1772537155030524700,2.203524658203125,0.05326984077692032,0.4516843259334564,-0.26321864128112793
1772537155040572700,2.21357275390625,-0.026558857411146164,0.4619021713733673,-0.44511812925338745
1772537155050621700,2.22362158203125,-0.10079474002122879,0.46805405616760254,-0.586588442325592
1772537155060669700,2.233669677734375,-0.1633315235376358,0.45052996277809143,-0.7034763693809509
1772537155070717700,2.2437177734375,-0.20516924560070038,0.4200010895729065,-0.7772182822227478
1772537155080765700,2.253765625,-0.21783162653446198,0.45406174659729004,-0.7747684717178345
1772537155090811000,2.263810791015625,-0.20584847033023834,0.5376261472702026,-0.6918604969978333
1772537155100858600,2.273858642578125,-0.20888160169124603,0.6264792084693909,-0.5410516858100891
1772537155110907000,2.283906982421875,-0.2405678927898407,0.5878785252571106,-0.3755796551704407
1772537155120955600,2.29395556640625,-0.30341705679893494,0.4064352810382843,-0.29311299324035645
1772537155131004000,2.30400390625,-0.39848047494888306,0.14545190334320068,-0.25979551672935486
1772537155141051600,2.3140517578125,-0.48949044942855835,-0.08344703167676926,-0.23580782115459442
1772537155151101000,2.324100830078125,-0.5588569641113281,-0.1620350480079651,-0.16766445338726044
1772537155161148700,2.334148681640625,-0.5747331976890564,-0.09289881587028503,-0.009173652157187462
1772537155171196700,2.34419677734375,-0.5153100490570068,0.12629692256450653,0.2112303525209427
1772537155181245700,2.35424560546875,-0.37465718388557434,0.35180529952049255,0.4287232458591461
1772537155191293700,2.364293701171875,-0.17554888129234314,0.491081178188324,0.5520923137664795
1772537155201342000,2.374342041015625,0.03853829950094223,0.4997865855693817,0.5101734399795532
1772537155211389700,2.3843896484375,0.19418461620807648,0.3593730330467224,0.2666172385215759
1772537155221439000,2.39443896484375,0.2675791084766388,0.149641752243042,-0.11063141375780106
1772537155231486700,2.40448681640625,0.3016934096813202,-0.03762161731719971,-0.550372302532196
1772537155241534700,2.41453466796875,0.3174521327018738,-0.11579231917858124,-0.9844561219215393
1772537155251583700,2.424583740234375,0.30864426493644714,-0.04761406034231186,-1.341916561126709
1772537155261631700,2.4346318359375,0.30802080035209656,0.12450763583183289,-1.5478873252868652
1772537155271680000,2.444679931640625,0.3114054203033447,0.30893582105636597,-1.5531467199325562
1772537155281728800,2.454728759765625,0.30107608437538147,0.38841599225997925,-1.3426501750946045
1772537155291776800,2.46477685546875,0.2774304151535034,0.31360673904418945,-0.9821367859840393
1772537155301824800,2.47482470703125,0.2273455411195755,0.05774105712771416,-0.5610852241516113
1772537155311873800,2.484873779296875,0.13924817740917206,-0.26286813616752625,-0.15020287036895752
1772537155321921800,2.494921875,0.04974238947033882,-0.5275922417640686,0.19821575284004211
1772537155331969800,2.5049697265625,-0.003014032728970051,-0.6102410554885864,0.4776875972747803
1772537155342017800,2.515017822265625,-0.025321371853351593,-0.4813111126422882,0.6745052337646484
1772537155352066800,2.52506689453125,-0.009954665787518024,-0.2728220820426941,0.7677294611930847
1772537155362114800,2.53511474609375,0.031848933547735214,-0.07639428228139877,0.764951765537262
1772537155372162800,2.545162841796875,0.07838474214076996,0.0270753912627697,0.6512792706489563
1772537155382211600,2.555211669921875,0.14785820245742798,0.040225617587566376,0.4999038577079773
1772537155392259800,2.565259765625,0.24675442278385162,-0.03958878666162491,0.3630099296569824
1772537155402307800,2.575307861328125,0.3271358907222748,-0.18225112557411194,0.20968309044837952
1772537155412356900,2.58535693359375,0.4138968884944916,-0.3077608644962311,0.014174841344356537
1772537155422404900,2.59540478515625,0.5211665630340576,-0.34532633423805237,-0.20354370772838593
1772537155432452600,2.60545263671875,0.6093877553939819,-0.24799366295337677,-0.3555425703525543
1772537155442502000,2.615501953125,0.6775169968605042,-0.019074320793151855,-0.3386465907096863
1772537155452549600,2.625549560546875,0.7183464169502258,0.2688530683517456,-0.1633613258600235
1772537155462598000,2.635597900390625,0.7358004450798035,0.49524232745170593,0.10447773337364197
1772537155472646700,2.645646728515625,0.7119529247283936,0.6633431911468506,0.376415491104126
1772537155482695000,2.65569482421875,0.6273151636123657,0.7488446235656738,0.6200761795043945
1772537155492742700,2.66574267578125,0.4838680028915405,0.7353091239929199,0.7995543479919434
1772537155502790700,2.675790771484375,0.30870938301086426,0.6196102499961853,0.8700714111328125
1772537155512839700,2.685839599609375,0.14143864810466766,0.4533030688762665,0.8212777972221375
1772537155522887700,2.6958876953125,0.03318069502711296,0.323587566614151,0.6803381443023682
1772537155532936000,2.70593603515625,-0.010490085929632187,0.24096913635730743,0.4723900258541107
1772537155542984700,2.715984619140625,0.0020757559686899185,0.1878611445426941,0.18110467493534088
1772537155553033000,2.726032958984375,0.06768379360437393,0.19798541069030762,-0.18024714291095734
1772537155563080700,2.736080810546875,0.16870549321174622,0.29697540402412415,-0.5759811997413635
1772537155573130000,2.7461298828125,0.24288678169250488,0.29485419392585754,-0.9259696006774902
1772537155583177700,2.756177734375,0.21414156258106232,0.2664017081260681,-1.2248414754867554
1772537155593225700,2.766225830078125,0.2931958734989166,0.6308949589729309,-1.5608341693878174
1772537155603274800,2.776274658203125,0.36678415536880493,0.4190932810306549,-1.669628620147705
1772537155613322800,2.78632275390625,0.3159947395324707,0.16007240116596222,-1.607107400894165
1772537155623371000,2.79637109375,0.22731174528598785,-0.045591458678245544,-1.5291327238082886
1772537155633418800,2.806418701171875,0.10755391418933868,-0.1109457015991211,-1.3327780961990356
1772537155643467800,2.8164677734375,-0.044712673872709274,-0.021771645173430443,-1.179914116859436
1772537155653515800,2.826515869140625,-0.21261991560459137,0.1141534298658371,-1.0861988067626953
1772537155663563800,2.836563720703125,-0.41593611240386963,0.15079180896282196,-1.0357122421264648
1772537155673612800,2.84661279296875,-0.670093834400177,0.08425778150558472,-0.9900075793266296
1772537155683660800,2.856660888671875,-0.9264971017837524,0.0625607818365097,-0.8357735872268677
1772537155693708800,2.866708740234375,-1.083368182182312,0.18670162558555603,-0.471237450838089
1772537155703757800,2.8767578125,-1.1089760065078735,0.3172729015350342,0.06360723078250885
1772537155713805600,2.8868056640625,-1.0589802265167236,0.3205621540546417,0.6101757884025574
1772537155723853800,2.896853759765625,-0.9572216868400574,0.15449775755405426,1.0046985149383545
1772537155733901800,2.90690185546875,-0.8558359742164612,-0.20500075817108154,1.088424563407898
1772537155743950800,2.916950927734375,-0.8187819123268127,-0.6343496441841125,0.8100447654724121
1772537155753998800,2.926998779296875,-0.7768083810806274,-0.9005850553512573,0.22515438497066498
1772537155764046800,2.937046875,-0.6581199169158936,-0.8173483610153198,-0.45784011483192444
1772537155774096000,2.947095947265625,-0.45766642689704895,-0.4032447040081024,-1.0422143936157227
1772537155784143600,2.9571435546875,-0.24103917181491852,0.1501021832227707,-1.4656648635864258
1772537155794192000,2.96719189453125,-0.10264188051223755,0.636591374874115,-1.6804040670394897
1772537155804240600,2.97724072265625,-0.050562866032123566,0.8642345666885376,-1.6749781370162964
1772537155814289000,2.987288818359375,-0.06411595642566681,0.8042207360267639,-1.5144330263137817
1772537155824336600,2.997336669921875,-0.11433105170726776,0.4986705780029297,-1.2671188116073608
1772537155834386000,3.007385986328125,-0.20172268152236938,0.06794366240501404,-0.9644957780838013
1772537155844433700,3.01743359375,-0.32198798656463623,-0.2527937591075897,-0.6198352575302124
1772537155854481700,3.027481689453125,-0.4030205011367798,-0.4049220681190491,-0.28345757722854614
1772537155864530000,3.037530029296875,-0.42735183238983154,-0.3002828061580658,0.08378246426582336
1772537155874578700,3.04757861328125,-0.3754478693008423,0.07031281292438507,0.49510475993156433
1772537155884627000,3.057626953125,-0.2727225422859192,0.5404329895973206,0.9042293429374695
1772537155894674700,3.0676748046875,-0.2571720778942108,0.9499384760856628,1.2529464960098267
1772537155904724000,3.077723876953125,-0.2249763160943985,0.898176908493042,1.6565388441085815
1772537155914771700,3.087771728515625,-0.2363956868648529,0.4867755174636841,2.0421838760375977
1772537155924819700,3.09781982421875,-0.30279383063316345,-0.04070581868290901,2.3216309547424316
1772537155934868700,3.10786865234375,-0.4021012485027313,-0.41089320182800293,2.3971922397613525
1772537155944916700,3.117916748046875,-0.4372735023498535,-0.5947624444961548,2.269278049468994
1772537155954965000,3.127965087890625,-0.425171822309494,-0.5451993942260742,2.013333559036255
1772537155965013800,3.138013671875,-0.36468052864074707,-0.4541897773742676,1.6930855512619019
1772537155975062000,3.14806201171875,-0.23048599064350128,-0.34852299094200134,1.3649481534957886
1772537155985109800,3.15810986328125,-0.09333191066980362,-0.17332005500793457,1.124396562576294
1772537155995157800,3.16815771484375,-0.010865261778235435,-0.02193852886557579,0.9152286648750305
1772537156005206800,3.178206787109375,0.0908447727560997,0.2616806924343109,0.6751134395599365
1772537156015254800,3.1882548828125,0.2807489335536957,0.6279987692832947,0.38035818934440613
1772537156025302800,3.198302734375,0.4489196836948395,0.8237104415893555,0.035975370556116104
1772537156035351800,3.208351806640625,0.49366480112075806,0.8969223499298096,-0.3112667500972748
1772537156045399800,3.21839990234375,0.44491687417030334,0.7315757274627686,-0.6103102564811707
1772537156055447800,3.22844775390625,0.3604810833930969,0.3995378911495209,-0.8259255886077881
1772537156065496600,3.23849658203125,0.28838250041007996,0.1343039721250534,-0.9920017123222351
1772537156075544800,3.248544921875,0.2885468006134033,-0.00003838958218693733,-1.1566410064697266
1772537156085592800,3.2585927734375,0.3503088653087616,-0.012641829438507557,-1.2796367406845093
1772537156095643000,3.268642822265625,0.39371973276138306,0.0077079166658222675,-1.3721760511398315
1772537156105690600,3.278690673828125,0.35891908407211304,-0.05184333026409149,-1.3832817077636719
1772537156115739000,3.28873876953125,0.30813634395599365,-0.1041126549243927,-1.2071218490600586
1772537156125787000,3.298786865234375,0.24756811559200287,-0.012316657230257988,-0.9172660112380981
1772537156135836000,3.3088359375,0.11228352785110474,0.12987908720970154,-0.6331583857536316
1772537156145884000,3.3188837890625,-0.04237120971083641,0.10318391025066376,-0.43481841683387756
1772537156155932000,3.328931884765625,-0.18578588962554932,-0.05565553158521652,-0.3154853582382202
1772537156165981000,3.33898095703125,-0.31578364968299866,-0.25859925150871277,-0.24739380180835724
1772537156176028700,3.349028564453125,-0.4160820245742798,-0.4264702796936035,-0.18103449046611786
1772537156186077000,3.359076904296875,-0.5218911170959473,-0.4521557688713074,-0.14663822948932648
1772537156196125700,3.369125732421875,-0.6576825380325317,-0.34363195300102234,-0.21117514371871948
1772537156206174000,3.379174072265625,-0.78565514087677,-0.14965540170669556,-0.337444543838501
1772537156216221700,3.3892216796875,-0.8927017450332642,0.13225457072257996,-0.4236851632595062
1772537156226271000,3.39927099609375,-0.9473697543144226,0.3694249093532562,-0.38431498408317566
1772537156236318700,3.409318603515625,-0.9300461411476135,0.48465800285339355,-0.13953398168087006
1772537156246366700,3.41936669921875,-0.8593757152557373,0.37949031591415405,0.2268538624048233
1772537156256415000,3.4294150390625,-0.7286390066146851,0.05979914590716362,0.5982739925384521
1772537156266463700,3.439463623046875,-0.5633751153945923,-0.267985999584198,0.8004706501960754
1772537156276512000,3.449511962890625,-0.43457984924316406,-0.4682452976703644,0.703294575214386
1772537156286559700,3.459559814453125,-0.33414533734321594,-0.5257254242897034,0.3243439793586731
1772537156296609000,3.469609130859375,-0.22064512968063354,-0.4200485646724701,-0.2667994797229767
1772537156306656800,3.47965673828125,-0.11826293915510178,-0.11770688742399216,-0.840864360332489
1772537156316704800,3.489704833984375,-0.01872170716524124,0.2328532487154007,-1.2270478010177612
1772537156326753800,3.49975390625,0.066424161195755,0.5011967420578003,-1.340018391609192
1772537156336801800,3.5098017578125,0.09534689038991928,0.5574389696121216,-1.2262017726898193
1772537156346849800,3.519849853515625,0.06282323598861694,0.35699477791786194,-0.9517492055892944
1772537156356898800,3.52989892578125,-0.01268936786800623,-0.03883431851863861,-0.6455152034759521
1772537156366946800,3.53994677734375,-0.15853779017925262,-0.5346800684928894,-0.4222247302532196
1772537156376994800,3.549994873046875,-0.35149526596069336,-0.9996137022972107,-0.31348174810409546
1772537156387042800,3.560042724609375,-0.48108384013175964,-1.2966952323913574,-0.28564971685409546
1772537156397091800,3.570091796875,-0.5139563083648682,-1.3126885890960693,-0.2890537679195404
1772537156407139800,3.580139892578125,-0.43089452385902405,-1.093095064163208,-0.31978532671928406
1772537156417187800,3.590187744140625,-0.21468660235404968,-0.7439002990722656,-0.36820292472839355
1772537156427236900,3.60023681640625,0.06275411695241928,-0.367746502161026,-0.4347304105758667
1772537156437284900,3.610284912109375,0.335239440202713,-0.009401394054293633,-0.49917519092559814
1772537156447332900,3.620332763671875,0.5585110187530518,0.3007778525352478,-0.5062564015388489
1772537156457381600,3.630381591796875,0.689176619052887,0.5418093800544739,-0.39850494265556335
1772537156467430000,3.640429931640625,0.7091506719589233,0.6126109957695007,-0.1628887951374054
1772537156477478000,3.650477783203125,0.656950831413269,0.5230278372764587,0.10201317071914673
1772537156487526000,3.66052587890625,0.5469837784767151,0.3908535838127136,0.3639475405216217
1772537156497575000,3.670574951171875,0.45612022280693054,0.2178003042936325,0.5777873992919922
1772537156507622700,3.68062255859375,0.46076515316963196,0.11176422238349915,0.7195954918861389
1772537156517671000,3.6906708984375,0.5224812626838684,0.13654358685016632,0.8298628330230713
1772537156527719700,3.7007197265625,0.5915970802307129,0.19657815992832184,0.9214629530906677
1772537156537768000,3.710767822265625,0.6461577415466309,0.2687610387802124,1.002052903175354
1772537156547815700,3.720815673828125,0.68115234375,0.375884473323822,1.0413508415222168
1772537156557865000,3.730864990234375,0.6657099723815918,0.5026277899742126,1.017647385597229
1772537156567912700,3.74091259765625,0.5951207280158997,0.6084950566291809,0.8934231400489807
1772537156577960700,3.750960693359375,0.48244184255599976,0.6786885261535645,0.7233659625053406
1772537156588009700,3.761009765625,0.36640188097953796,0.630100667476654,0.5337339043617249
1772537156598057700,3.7710576171875,0.2667546570301056,0.48466596007347107,0.3441080152988434
1772537156608106000,3.78110595703125,0.20737434923648834,0.35231924057006836,0.18059639632701874
1772537156618153700,3.79115380859375,0.18336620926856995,0.35043665766716003,0.03822566568851471
1772537156628203000,3.801203125,0.19520175457000732,0.4017743766307831,-0.05748545005917549
1772537156638250800,3.811250732421875,0.2369004786014557,0.34834444522857666,-0.09108734875917435
1772537156648298800,3.821298828125,0.2879661023616791,0.20074528455734253,-0.04486564174294472
1772537156658347800,3.83134765625,0.3069206178188324,-0.014286327175796032,-0.02658703550696373
1772537156668395800,3.841395751953125,0.2687414884567261,-0.15612676739692688,-0.12839631736278534
1772537156678444000,3.851444091796875,0.16560153663158417,-0.2735641896724701,-0.39705732464790344
1772537156688492800,3.861492919921875,-0.014920858666300774,-0.4969813823699951,-0.8277513980865479
1772537156698540800,3.871540771484375,-0.23868949711322784,-0.7358280420303345,-1.308700680732727
1772537156708588800,3.8815888671875,-0.4346907138824463,-0.824248194694519,-1.7116279602050781
1772537156718636800,3.89163671875,-0.5556607842445374,-0.6981906890869141,-1.9672770500183105
1772537156728685800,3.901685791015625,-0.579672634601593,-0.35870644450187683,-2.035449504852295
1772537156738733800,3.91173388671875,-0.5114714503288269,0.013598132878541946,-2.012322187423706
1772537156748781800,3.92178173828125,-0.45956408977508545,0.26784905791282654,-1.8942354917526245
1772537156758830800,3.931830810546875,-0.5033107399940491,0.35875099897384644,-1.560595154762268
1772537156768878800,3.94187890625,-0.5735473036766052,0.15139368176460266,-1.120198369026184
1772537156778926800,3.9519267578125,-0.6221997737884521,-0.1398181915283203,-0.6193424463272095
1772537156788975600,3.9619755859375,-0.5852831602096558,-0.3808838129043579,-0.17367848753929138
1772537156799023900,3.97202392578125,-0.4874529540538788,-0.6190614700317383,-0.008372614160180092
1772537156809071900,3.98207177734375,-0.37785980105400085,-0.782146155834198,-0.18241482973098755
1772537156819121000,3.992120849609375,-0.22441114485263824,-0.7891294956207275,-0.6355168223381042
1772537156829169000,4.0021689453125,-0.06240673363208771,-0.5894075632095337,-1.2050784826278687
1772537156839217000,4.012216796875,0.07407467812299728,-0.19504879415035248,-1.652161717414856
1772537156849265000,4.022264892578125,0.21780353784561157,0.2670145630836487,-1.8006811141967773
1772537156859313700,4.032313720703125,0.3128514885902405,0.5720895528793335,-1.5948368310928345
1772537156869362000,4.04236181640625,0.29032978415489197,0.5516828298568726,-1.212523341178894
1772537156879409700,4.05240966796875,0.09043105691671371,0.36464768648147583,-0.649946391582489
1772537156889459000,4.062458984375,-0.1802331656217575,0.05919811874628067,-0.02185242623090744
1772537156899506700,4.072506591796875,-0.47209432721138,-0.2539355456829071,0.5430817604064941
1772537156909554700,4.0825546875,-0.7411074042320251,-0.4516647160053253,0.9654717445373535
1772537156919603700,4.092603759765625,-0.8882430791854858,-0.5637217164039612,1.2406628131866455
1772537156929651700,4.102651611328125,-0.9091513156890869,-0.6075589656829834,1.3852088451385498
1772537156939700000,4.112699951171875,-0.8298122882843018,-0.5571157932281494,1.3737822771072388
1772537156949747700,4.122747802734375,-0.6423267722129822,-0.4120587110519409,1.1896445751190186
1772537156959797000,4.132796875,-0.3855869174003601,-0.2669704854488373,0.8497192859649658
1772537156969844700,4.1428447265625,-0.10317222774028778,-0.11791158467531204,0.400070458650589
1772537156979892700,4.152892822265625,0.1697373390197754,0.0863262340426445,-0.08833356946706772
1772537156989941800,4.162941650390625,0.4031812846660614,0.29937317967414856,-0.5280545949935913
1772537156999989800,4.17298974609375,0.5595442652702332,0.4740099608898163,-0.8429158329963684
1772537157010038000,4.1830380859375,0.6473593711853027,0.5676808953285217,-0.9552890658378601
1772537157020086800,4.193086669921875,0.7394067645072937,0.6413945555686951,-0.7759496569633484
1772537157030135000,4.203135009765625,0.8007588386535645,0.5992466807365417,-0.29751136898994446
1772537157040182800,4.213182861328125,0.7628670930862427,0.4119977056980133,0.39982351660728455
1772537157050231800,4.223231689453125,0.617613673210144,0.16465868055820465,1.1096206903457642
1772537157060279800,4.23327978515625,0.3710009753704071,-0.03282323479652405,1.699777364730835
1772537157070327800,4.243327880859375,0.070135697722435,-0.14107176661491394,2.1288955211639404
1772537157080375800,4.253375732421875,-0.20238158106803894,-0.174502432346344,2.4069719314575195
1772537157090424000,4.263424072265625,-0.3688927888870239,-0.1869426965713501,2.5217959880828857
1772537157100472300,4.273472412109375,-0.43767449259757996,-0.17753960192203522,2.4673361778259277
1772537157110520000,4.28352001953125,-0.4142526090145111,-0.14282865822315216,2.255699396133423
1772537157120569300,4.2935693359375,-0.307632178068161,-0.08337891101837158,1.8931334018707275
1772537157130617000,4.3036171875,-0.1354004293680191,-0.014383241534233093,1.3965160846710205
1772537157140665000,4.3136650390625,0.03998123109340668,0.05043090879917145,0.8279770016670227
1772537157150714000,4.323714111328125,0.16740821301937103,0.11528219282627106,0.25916171073913574
1772537157160762000,4.33376220703125,0.26108279824256897,0.19331175088882446,-0.22303315997123718
1772537157170810000,4.34381005859375,0.32988229393959045,0.22759413719177246,-0.6104620099067688
1772537157180859100,4.353859130859375,0.3582247197628021,0.16444872319698334,-0.9082769155502319
1772537157190907100,4.3639072265625,0.331487238407135,-0.0033905403688549995,-1.0872068405151367
1772537157200955100,4.373955078125,0.236725851893425,-0.19371894001960754,-1.0971451997756958
1772537157211003100,4.384003173828125,0.13429398834705353,-0.3815213441848755,-0.982695996761322
1772537157221052200,4.39405224609375,0.06085333228111267,-0.5097150206565857,-0.8708690404891968
1772537157231100200,4.40410009765625,-0.018441978842020035,-0.5687525868415833,-0.7953458428382874
1772537157241148200,4.414148193359375,-0.09894295036792755,-0.5638694167137146,-0.7442965507507324
1772537157251197200,4.424197265625,-0.20087207853794098,-0.4896899163722992,-0.7464863657951355
1772537157261245200,4.4342451171875,-0.33504319190979004,-0.2617853879928589,-0.7425233721733093
1772537157271293200,4.444293212890625,-0.4676518440246582,0.027722207829356194,-0.6795276999473572
1772537157281342200,4.45434228515625,-0.5725752711296082,0.17272253334522247,-0.4866485297679901
1772537157291390200,4.46439013671875,-0.6339192986488342,0.14710204303264618,-0.14718297123908997
1772537157301438200,4.474438232421875,-0.6510916352272034,-0.03979914262890816,0.23095127940177917
1772537157311486200,4.484486328125,-0.6115821599960327,-0.24597609043121338,0.5139600038528442
1772537157321535200,4.49453515625,-0.4606291651725769,-0.352178156375885,0.5418789982795715
1772537157331583200,4.504583251953125,-0.26496466994285583,-0.37787115573883057,0.2688424587249756
1772537157341631200,4.51463134765625,-0.0940198302268982,-0.2928990125656128,-0.221381276845932
1772537157351680300,4.52468017578125,0.07639800757169724,-0.09773644804954529,-0.7622255682945251
1772537157361728300,4.534728271484375,0.2081270068883896,0.16768883168697357,-1.1869492530822754
1772537157371776000,4.54477587890625,0.30726346373558044,0.38088300824165344,-1.3997043371200562
1772537157381825300,4.5548251953125,0.33466020226478577,0.5190435647964478,-1.329318881034851
1772537157391873000,4.564873046875,0.2617581784725189,0.581553041934967,-0.9712738990783691
1772537157401921300,4.57492138671875,0.1501655876636505,0.44263431429862976,-0.4056914746761322
1772537157411970000,4.584969970703125,0.026235312223434448,0.1363498568534851,0.2084796130657196
1772537157422018000,4.59501806640625,-0.09850182384252548,-0.14895112812519073,0.7216217517852783
1772537157432066300,4.60506640625,-0.18546715378761292,-0.29760056734085083,1.0461959838867188
1772537157442114000,4.615114013671875,-0.21848556399345398,-0.32637521624565125,1.2163996696472168
1772537157452163300,4.625163330078125,-0.18771889805793762,-0.2863753139972687,1.240179181098938
1772537157462211000,4.635211181640625,-0.0884450376033783,-0.2526290714740753,1.1245657205581665
1772537157472259300,4.64525927734375,0.030188068747520447,-0.22012870013713837,0.9148789644241333
1772537157482308000,4.65530810546875,0.13338661193847656,-0.06883557885885239,0.6972747445106506
1772537157492356000,4.665356201171875,0.21464312076568604,0.15058784186840057,0.5047791004180908
1772537157502404000,4.675404052734375,0.2312881499528885,0.2650100290775299,0.3271467685699463
1772537157512453000,4.685453125,0.14087341725826263,0.2561200261116028,0.15203270316123962
1772537157522501000,4.695501220703125,0.012220903299748898,0.13873055577278137,-0.021569451317191124
1772537157532549000,4.705549072265625,-0.08456028997898102,0.012061120942234993,-0.16304124891757965
1772537157542597000,4.71559716796875,-0.11851052939891815,0.007678621914237738,-0.18412815034389496
1772537157552646100,4.725646240234375,-0.11916092783212662,0.11632374674081802,-0.040901411324739456
1772537157562694100,4.735694091796875,-0.1270904839038849,0.22754481434822083,0.241948664188385
1772537157572742100,4.7457421875,-0.1617235243320465,0.2586791515350342,0.6145576238632202
1772537157582791200,4.755791259765625,-0.21766188740730286,0.23554587364196777,1.011325716972351
1772537157592839200,4.765839111328125,-0.3025844693183899,0.19853302836418152,1.3571404218673706
1772537157602887200,4.77588720703125,-0.4090230464935303,0.17140154540538788,1.6284451484680176
1772537157612936200,4.785936279296875,-0.49619969725608826,0.185245081782341,1.811678409576416
1772537157622984200,4.795984130859375,-0.5692501664161682,0.21650713682174683,1.8963161706924438
1772537157633032200,4.8060322265625,-0.6175576448440552,0.22026118636131287,1.8739182949066162
1772537157643080200,4.816080078125,-0.5963021516799927,0.1981859803199768,1.7386400699615479
1772537157653129200,4.826129150390625,-0.4933388829231262,0.18097813427448273,1.4813356399536133
1772537157663177200,4.83617724609375,-0.3750931918621063,0.21352489292621613,1.0868580341339111
1772537157673225200,4.84622509765625,-0.2785426378250122,0.3052298426628113,0.6165956258773804
1772537157683274200,4.856274169921875,-0.16062265634536743,0.43672555685043335,0.20125141739845276
1772537157693322200,4.866322265625,-0.046973444521427155,0.5238891839981079,-0.12980830669403076
1772537157703370000,4.876369873046875,0.019879087805747986,0.46037757396698,-0.4230298101902008
1772537157713419300,4.886419189453125,0.08191919326782227,0.2725413143634796,-0.648163378238678
1772537157723467000,4.896467041015625,0.1609088033437729,0.12242425978183746,-0.7529129385948181
1772537157733515300,4.906515380859375,0.22098854184150696,0.10849358886480331,-0.699739933013916
1772537157743564000,4.91656396484375,0.21976694464683533,0.14540019631385803,-0.5521246790885925
1772537157753612300,4.9266123046875,0.11161012947559357,0.1132088452577591,-0.38901814818382263
1772537157763660300,4.936660400390625,-0.1376180648803711,-0.1448107212781906,-0.22892248630523682
1772537157773708000,4.9467080078125,-0.5142333507537842,-0.4924490451812744,-0.037518326193094254
1772537157783757300,4.95675732421875,-0.8943556547164917,-0.7361423969268799,0.2079838365316391
1772537157793805000,4.96680517578125,-1.1792707443237305,-0.7885838747024536,0.48323172330856323
1772537157803853300,4.976853271484375,-1.315940260887146,-0.5681945085525513,0.7667334675788879
1772537157813902000,4.986902099609375,-1.2472130060195923,-0.24924089014530182,1.0147783756256104
1772537157823950000,4.9969501953125,-0.9894147515296936,-0.06786602735519409,1.1960583925247192
1772537157833998000,5.006998046875,-0.6259535551071167,-0.07200367748737335,1.2509398460388184
1772537157844047000,5.017047119140625,-0.24132999777793884,-0.17992721498012543,1.0386422872543335
1772537157854095000,5.02709521484375,0.09868992865085602,-0.2670764625072479,0.5794317722320557
1772537157864143000,5.03714306640625,0.35316163301467896,-0.192316472530365,-0.00033868709579110146
1772537157874191400,5.04719140625,0.5149410367012024,0.047025974839925766,-0.5916747450828552
1772537157884240100,5.057240234375,0.5430759787559509,0.3679659068584442,-1.0758010149002075
1772537157894288100,5.0672880859375,0.4428430497646332,0.6733846068382263,-1.3575104475021362
1772537157904336100,5.077336181640625,0.2694486081600189,0.9277322292327881,-1.3369148969650269
1772537157914385200,5.08738525390625,0.120633065700531,0.9768241047859192,-0.9770552515983582
1772537157924433200,5.09743310546875,0.0249123927205801,0.7820892333984375,-0.36200961470603943
1772537157934481200,5.107481201171875,-0.026488926261663437,0.4406609535217285,0.3024758994579315
1772537157944530200,5.1175302734375,-0.07329638302326202,-0.00012227660045027733,0.8065361380577087
1772537157954578200,5.127578125,-0.12231369316577911,-0.37184107303619385,1.07856023311615
1772537157964626200,5.137626220703125,-0.14063411951065063,-0.549140214920044,1.1174464225769043
1772537157974675200,5.14767529296875,-0.14328734576702118,-0.5568785071372986,0.9076833724975586
1772537157984723200,5.15772314453125,-0.1339540332555771,-0.4533334970474243,0.4947703778743744
1772537157994771200,5.167771240234375,-0.08410715311765671,-0.30681753158569336,-0.04450352489948273
1772537158004819200,5.177819091796875,-0.010453172959387302,-0.18535611033439636,-0.5713854432106018
1772537158014868200,5.1878681640625,0.04985581338405609,-0.061080463230609894,-0.9626655578613281
1772537158024916200,5.197916259765625,0.09640280902385712,0.06249633803963661,-1.1638132333755493
1772537158034964000,5.2079638671875,0.14288391172885895,0.14167749881744385,-1.1589651107788086
1772537158045013200,5.21801318359375,0.18920640647411346,0.10722231864929199,-0.9633879065513611
1772537158055061000,5.22806103515625,0.2031964808702469,-0.10089864581823349,-0.6220464110374451
1772537158065109200,5.238109130859375,0.14701522886753082,-0.45560771226882935,-0.18511325120925903
1772537158075158000,5.248157958984375,0.02147800847887993,-0.7848049998283386,0.285449355840683
1772537158085206300,5.258206298828125,-0.11348061263561249,-0.9048839807510376,0.6789652109146118
1772537158095253500,5.26825341796875,-0.1964246928691864,-0.841077446937561,0.9352126121520996
1772537158105301500,5.278301513671875,-0.21254374086856842,-0.6448695659637451,1.0504473447799683
1772537158115350500,5.2883505859375,-0.1339845508337021,-0.33960357308387756,1.0584086179733276
1772537158125398500,5.2983984375,0.03801277279853821,0.018517551943659782,1.0023674964904785
1772537158135446500,5.308446533203125,0.2444748729467392,0.2954820692539215,0.936731219291687
1772537158145495600,5.31849560546875,0.3866032361984253,0.4313797056674957,0.8547548651695251
1772537158155543600,5.32854345703125,0.41861164569854736,0.45232483744621277,0.7662680745124817
1772537158165591600,5.338591552734375,0.3414666950702667,0.41053342819213867,0.685562789440155
1772537158175640600,5.348640625,0.2286490648984909,0.4023388624191284,0.6178173422813416
1772537158185688600,5.3586884765625,0.12334278225898743,0.43789634108543396,0.6007120013237
1772537158195736600,5.368736572265625,0.03767687827348709,0.3993774354457855,0.5970397591590881
1772537158205784600,5.37878466796875,-0.03578777611255646,0.24343664944171906,0.5355693697929382
1772537158215833600,5.38883349609375,-0.09547320753335953,0.11260674148797989,0.40293383598327637
1772537158225881600,5.398881591796875,-0.10147468745708466,0.06789195537567139,0.24902760982513428
1772537158235929600,5.4089296875,-0.05427201837301254,0.004428300075232983,0.08842141926288605
1772537158245978600,5.418978515625,0.017106344923377037,-0.046087704598903656,-0.09113913029432297
1772537158256026600,5.429026611328125,0.09981267899274826,-0.15545813739299774,-0.2924131155014038
1772537158266074600,5.43907470703125,0.15923841297626495,-0.3367862403392792,-0.511128842830658
1772537158276123600,5.44912353515625,0.15581625699996948,-0.41930294036865234,-0.695009708404541
1772537158286171600,5.459171630859375,0.11469344794750214,-0.3677371144294739,-0.8108330368995667
1772537158296219600,5.4692197265625,0.06922104209661484,-0.3103739619255066,-0.8390396237373352
1772537158306268700,5.4792685546875,0.01616259105503559,-0.3111768662929535,-0.8536489605903625
1772537158316316700,5.489316650390625,-0.06079184263944626,-0.29697954654693604,-0.8942152857780457
1772537158326364400,5.499364501953125,-0.18776755034923553,-0.20050032436847687,-0.9954711198806763
1772537158336412700,5.50941259765625,-0.37045934796333313,-0.0030897939577698708,-1.0775576829910278
1772537158346461400,5.51946142578125,-0.5948095321655273,0.21587014198303223,-1.0158426761627197
1772537158356509700,5.529509765625,-0.7882599234580994,0.21244584023952484,-0.7878901958465576
1772537158366557700,5.5395576171875,-0.8844749927520752,-0.12694701552391052,-0.392602801322937
1772537158376606500,5.5496064453125,-0.8511173129081726,-0.6134490370750427,0.056815218180418015
1772537158386654700,5.55965478515625,-0.6706240177154541,-1.0312241315841675,0.282507985830307
1772537158396702500,5.569702392578125,-0.4187965393066406,-1.1523127555847168,0.1637411266565323
1772537158406751700,5.579751708984375,-0.10821813344955444,-0.948920488357544,-0.22835606336593628
1772537158416799500,5.589799560546875,0.2768411338329315,-0.5832445025444031,-0.7915664315223694
1772537158426847700,5.59984765625,0.5912498235702515,-0.07255975157022476,-1.3643772602081299
1772537158436895500,5.6098955078125,0.7671641111373901,0.47821229696273804,-1.7548331022262573
1772537158446944500,5.619944580078125,0.8066182732582092,0.9022383093833923,-1.802240252494812
1772537158456992500,5.629992431640625,0.7303277850151062,1.1015514135360718,-1.4656866788864136
1772537158467040500,5.64004052734375,0.5598648190498352,0.9504266381263733,-0.8604550957679749
1772537158477089500,5.650089599609375,0.32271966338157654,0.480440229177475,-0.17835186421871185
1772537158487137500,5.660137451171875,0.03896963596343994,-0.06046208366751671,0.44949138164520264
1772537158497185500,5.670185546875,-0.2372124195098877,-0.44013217091560364,0.9003413915634155
1772537158507234600,5.680234619140625,-0.4366544187068939,-0.5974273681640625,1.114351511001587
1772537158517282600,5.690282470703125,-0.4982839822769165,-0.5815834403038025,1.141177773475647
1772537158527330600,5.70033056640625,-0.4464716613292694,-0.5117331147193909,1.026893973350525
1772537158537378600,5.710378662109375,-0.32037925720214844,-0.4099343419075012,0.8459001779556274
1772537158547427600,5.720427490234375,-0.1573968231678009,-0.2920094430446625,0.6271652579307556
1772537158557475600,5.7304755859375,0.0028916439041495323,-0.25730258226394653,0.3370942771434784
1772537158567523600,5.740523681640625,0.10638169199228287,-0.3334510922431946,-0.0642637237906456
1772537158577572600,5.750572509765625,0.10353636741638184,-0.37202805280685425,-0.4813413918018341
1772537158587620600,5.76062060546875,0.06856825947761536,-0.22538112103939056,-0.7023909091949463
1772537158597668600,5.770668701171875,0.02327827736735344,0.05057083070278168,-0.69800865650177
1772537158607717600,5.780717529296875,-0.011545054614543915,0.31687551736831665,-0.4751876890659332
1772537158617765600,5.790765625,-0.041579652577638626,0.43737930059432983,-0.07858680933713913
1772537158627813600,5.800813720703125,-0.10462857037782669,0.3917679488658905,0.41213732957839966
1772537158637862700,5.810862548828125,-0.18856342136859894,0.2854479253292084,0.9290028214454651
1772537158647910700,5.82091064453125,-0.2761765122413635,0.1906609833240509,1.4248268604278564
1772537158657958400,5.83095849609375,-0.37044334411621094,0.1498349905014038,1.8308169841766357
1772537158668006700,5.841006591796875,-0.4540122151374817,0.2035665214061737,2.1298789978027344
1772537158678055400,5.851055419921875,-0.5053476095199585,0.29895591735839844,2.3120226860046387
1772537158688103700,5.861103759765625,-0.533378005027771,0.38918831944465637,2.3601293563842773
1772537158698151700,5.871151611328125,-0.5453832745552063,0.42031586170196533,2.29063081741333
1772537158708200700,5.88120068359375,-0.5448970198631287,0.3501295745372772,2.091376543045044
1772537158718248700,5.891248779296875,-0.5334225296974182,0.24711130559444427,1.7595313787460327
1772537158728296400,5.90129638671875,-0.5155401229858398,0.15262195467948914,1.3396391868591309
1772537158738345700,5.911345703125,-0.4961046874523163,0.0906028002500534,0.878785252571106
1772537158748393500,5.9213935546875,-0.4866219460964203,0.08022259175777435,0.43374601006507874
1772537158758441700,5.931441650390625,-0.4671374559402466,0.13093210756778717,0.0019820949528366327
1772537158768489500,5.941489501953125,-0.35186874866485596,0.2328030914068222,-0.42067205905914307
1772537158778538500,5.95153857421875,-0.0843060165643692,0.3518195152282715,-0.8127197027206421
1772537158788586500,5.96158642578125,0.23396171629428864,0.4396963119506836,-1.1342530250549316
1772537158798634500,5.971634521484375,0.4652729630470276,0.3723635971546173,-1.4113506078720093
1772537158808683500,5.98168359375,0.5249227285385132,0.035512879490852356,-1.6923205852508545
1772537158818731500,5.9917314453125,0.44914719462394714,-0.461651474237442,-1.9049967527389526
1772537158828779800,6.00177978515625,0.3224598169326782,-0.7971605062484741,-2.015009641647339
1772537158838828500,6.01182861328125,0.12124703079462051,-0.7981505990028381,-2.0738649368286133
1772537158848876500,6.02187646484375,-0.1663368195295334,-0.5313236713409424,-2.1034295558929443
1772537158858924500,6.031924560546875,-0.4542589485645294,-0.09478539228439331,-1.983182430267334
1772537158868973600,6.0419736328125,-0.6428033113479614,0.20749323070049286,-1.630761742591858
1772537158879021600,6.052021484375,-0.7185329794883728,0.14032356441020966,-1.0941824913024902
1772537158889069600,6.062069580078125,-0.6916957497596741,-0.16960713267326355,-0.4099853038787842
1772537158899117600,6.07211767578125,-0.5852182507514954,-0.5460562109947205,0.25467240810394287
1772537158909166600,6.08216650390625,-0.47520360350608826,-0.7983217239379883,0.6470766663551331
1772537158919214600,6.092214599609375,-0.34804466366767883,-0.8093164563179016,0.6346922516822815
1772537158929262600,6.1022626953125,-0.14391042292118073,-0.653862714767456,0.25581449270248413
1772537158939311600,6.1123115234375,0.08882250636816025,-0.375028520822525,-0.38946661353111267
1772537158949359600,6.122359619140625,0.2893681228160858,-0.051823023706674576,-1.1272271871566772
1772537158959407600,6.13240771484375,0.4074651002883911,0.20811256766319275,-1.6979132890701294
1772537158969456600,6.14245654296875,0.4397734999656677,0.42912402749061584,-1.8975350856781006
1772537158979504600,6.152504638671875,0.4324396550655365,0.5323998332023621,-1.7007436752319336
1772537158989552400,6.162552490234375,0.40596064925193787,0.36049652099609375,-1.2945094108581543
1772537158999600600,6.1726005859375,0.2945055365562439,0.22683991491794586,-0.6166602969169617
1772537159009649400,6.1826494140625,0.06843724101781845,0.04170893877744675,0.06814544647932053
1772537159019697700,6.19269775390625,-0.2216932475566864,-0.296629935503006,0.5172098875045776
1772537159029745700,6.20274560546875,-0.5230177044868469,-0.5034393072128296,0.7569820284843445
1772537159039794700,6.212794677734375,-0.7155424952507019,-0.5301517248153687,0.8356980681419373
1772537159049842700,6.2228427734375,-0.7365543246269226,-0.4408835768699646,0.77033531665802
1772537159059890400,6.232890380859375,-0.593527615070343,-0.2923011779785156,0.6163461804389954
1772537159069939700,6.242939697265625,-0.3440658748149872,-0.15171077847480774,0.4198496341705322
1772537159079987500,6.252987548828125,-0.0750906839966774,-0.026371214538812637,0.22800606489181519
1772537159090035700,6.26303564453125,0.16470938920974731,0.14672227203845978,0.057844456285238266
1772537159100083500,6.27308349609375,0.34010234475135803,0.33403027057647705,-0.08350342512130737
1772537159110132200,6.28313232421875,0.4347470998764038,0.44501805305480957,-0.20702803134918213
1772537159120180500,6.293180419921875,0.42864030599594116,0.34733322262763977,-0.28205734491348267
1772537159130228200,6.303228271484375,0.32972678542137146,0.18686047196388245,-0.20498839020729065
1772537159140277500,6.313277587890625,0.17490853369235992,0.03804532065987587,0.05555204302072525
1772537159150325200,6.3233251953125,0.014199014753103256,-0.1175013929605484,0.4186394512653351
1772537159160373200,6.333373291015625,-0.0832156389951706,-0.2272018939256668,0.7516202330589294
1772537159170422300,6.34342236328125,-0.08376877754926682,-0.2301739752292633,0.9890426397323608
1772537159180470300,6.35347021484375,-0.03550872951745987,-0.11841919273138046,1.1222527027130127
1772537159190518300,6.363518310546875,0.023616638034582138,0.05424286425113678,1.1347978115081787
1772537159200566300,6.373566162109375,0.06093867868185043,0.23146167397499084,1.0807600021362305
1772537159210615300,6.383615234375,0.04959254711866379,0.3499731421470642,0.9895104765892029
1772537159220663300,6.393663330078125,-0.02073759399354458,0.39141646027565,0.8983083367347717
1772537159230711300,6.403711181640625,-0.09649387747049332,0.3763386905193329,0.8429691791534424
1772537159240760300,6.41376025390625,-0.17340131103992462,0.3664122521877289,0.7947555184364319
1772537159250808300,6.423808349609375,-0.23952414095401764,0.37175828218460083,0.7160931825637817
1772537159260856300,6.433856201171875,-0.2925066649913788,0.35876816511154175,0.5813114047050476
1772537159270905300,6.4439052734375,-0.3186764717102051,0.266247034072876,0.36518043279647827
1772537159280953300,6.453953369140625,-0.32962581515312195,0.19494928419589996,0.06982266902923584
1772537159291001300,6.46400146484375,-0.3040347099304199,0.13852515816688538,-0.25834667682647705
1772537159301049300,6.47404931640625,-0.24018363654613495,0.03357088565826416,-0.5369188189506531
1772537159311098400,6.484098388671875,-0.20259445905685425,-0.04640037938952446,-0.7265047430992126
1772537159321146400,6.494146484375,-0.2215525209903717,-0.10837416350841522,-0.8526799082756042
1772537159331194400,6.5041943359375,-0.26534152030944824,-0.20312224328517914,-0.9548459649085999
1772537159341243400,6.514243408203125,-0.216583251953125,-0.3028954267501831,-1.0239853858947754
1772537159351291100,6.524291015625,-0.005372216925024986,-0.2819962501525879,-1.070860743522644
1772537159361339400,6.53433935546875,0.17363311350345612,-0.22175508737564087,-1.3662734031677246
1772537159371388200,6.54438818359375,0.12075072526931763,-0.07125026732683182,-1.829501748085022
1772537159381436400,6.5544365234375,-0.12064367532730103,0.05402844399213791,-2.1465158462524414
1772537159391484200,6.564484130859375,-0.45234596729278564,0.07833697646856308,-2.1072750091552734
1772537159401532200,6.5745322265625,-0.7677159905433655,0.06844037771224976,-1.6465178728103638
1772537159411581200,6.584581298828125,-0.9429548978805542,0.004436891060322523,-0.905342161655426
1772537159421629200,6.594629150390625,-0.9768480658531189,-0.19933557510375977,-0.12544018030166626
1772537159431677400,6.604677490234375,-0.9684880971908569,-0.5347519516944885,0.4574914276599884
1772537159441726200,6.614726318359375,-0.9594690203666687,-0.8440936803817749,0.7040483951568604
1772537159451774500,6.6247744140625,-0.9015873074531555,-0.9343881607055664,0.6128556132316589
1772537159461822200,6.634822265625,-0.7117112874984741,-0.7574428915977478,0.24772030115127563
1772537159471871500,6.64487158203125,-0.37761959433555603,-0.34937843680381775,-0.26574912667274475
1772537159481919200,6.654919189453125,0.021784046664834023,0.20632034540176392,-0.8040879964828491
1772537159491967200,6.66496728515625,0.34124699234962463,0.7008270025253296,-1.2094563245773315
1772537159502015200,6.67501513671875,0.49067553877830505,0.9599357843399048,-1.4017834663391113
1772537159512064300,6.685064208984375,0.4649251699447632,1.0554159879684448,-1.2299941778182983
1772537159522112300,6.6951123046875,0.28980860114097595,0.9407745599746704,-0.6802988648414612
1772537159532160300,6.70516015625,0.023718610405921936,0.5908703207969666,0.12611961364746094
1772537159542209300,6.715209228515625,-0.2596651315689087,0.06924249231815338,0.9361016154289246
1772537159552257300,6.72525732421875,-0.47278299927711487,-0.41213932633399963,1.4775733947753906
1772537159562305300,6.73530517578125,-0.5578616857528687,-0.7015130519866943,1.6698764562606812
1772537159572354300,6.745354248046875,-0.519352912902832,-0.7833932638168335,1.4788774251937866
1772537159582402300,6.75540234375,-0.3530042767524719,-0.6694706678390503,0.949953019618988
1772537159592450300,6.7654501953125,-0.06646572053432465,-0.4685649871826172,0.20700106024742126
1772537159602498300,6.775498291015625,0.27035170793533325,-0.17803846299648285,-0.49240055680274963
1772537159612547300,6.78554736328125,0.576192319393158,0.15793953835964203,-0.9469086527824402
1772537159622595300,6.79559521484375,0.7953677773475647,0.43439704179763794,-1.1064287424087524
1772537159632643300,6.805643310546875,0.910479724407196,0.6292727589607239,-0.9544061422348022
1772537159642692400,6.8156923828125,0.9020106196403503,0.6876497268676758,-0.5564663410186768
1772537159652740400,6.825740234375,0.7813299894332886,0.47981879115104675,-0.03173203021287918
1772537159662788400,6.835788330078125,0.5331740379333496,0.17407231032848358,0.5717558860778809
1772537159672837400,6.84583740234375,0.24258506298065186,-0.12787635624408722,1.1613075733184814
1772537159682885400,6.855885498046875,-0.003079465590417385,-0.31266656517982483,1.6572328805923462
1772537159692933400,6.865933349609375,-0.1325802057981491,-0.36726588010787964,2.0211880207061768
1772537159702982100,6.875982177734375,-0.11117564886808395,-0.34420907497406006,2.2282330989837646
1772537159713030400,6.886030517578125,0.052740052342414856,-0.18885330855846405,2.271982192993164
1772537159723078100,6.896078125,0.28287220001220703,0.09786641597747803,2.1570935249328613
1772537159733126400,6.90612646484375,0.5095838904380798,0.41212183237075806,1.9091100692749023
1772537159743175200,6.916175048828125,0.693386971950531,0.6686419248580933,1.5651226043701172
1772537159753223200,6.92622314453125,0.7783737778663635,0.8168798685073853,1.2185170650482178
1772537159763271400,6.936271484375,0.7429808974266052,0.7778337001800537,0.949405312538147
1772537159773320200,6.9463203125,0.623535692691803,0.5924875736236572,0.7749499082565308
1772537159783368400,6.956368408203125,0.48039937019348145,0.3989686667919159,0.6310615539550781
1772537159793416200,6.966416259765625,0.35043367743492126,0.27772560715675354,0.47600722312927246
1772537159803465500,6.976465576171875,0.2585538327693939,0.273979127407074,0.30148470401763916
1772537159813513200,6.98651318359375,0.2383849322795868,0.25229379534721375,0.09147819876670837
1772537159823561200,6.996561279296875,0.25010764598846436,0.19872795045375824,-0.09377676248550415
1772537159833609200,7.006609130859375,0.250210165977478,0.1716851443052292,-0.2356145977973938
1772537159843658200,7.016658203125,0.2752610743045807,0.10646066814661026,-0.32229694724082947
1772537159853706200,7.026706298828125,0.32720842957496643,-0.012082490138709545,-0.34636232256889343
1772537159863754200,7.036754150390625,0.39899298548698425,-0.2307262122631073,-0.4012373685836792
1772537159873803300,7.04680322265625,0.4405236542224884,-0.38098573684692383,-0.5331258773803711
1772537159883851300,7.056851318359375,0.42124658823013306,-0.41129642724990845,-0.723024845123291
1772537159893899300,7.066899169921875,0.3588061034679413,-0.34699785709381104,-0.9307500720024109
1772537159903948300,7.0769482421875,0.224399596452713,-0.2499687373638153,-1.13963782787323
1772537159913996300,7.086996337890625,0.045000821352005005,-0.15816931426525116,-1.304825782775879
1772537159924044300,7.097044189453125,-0.14552423357963562,-0.02675784006714821,-1.3725035190582275
1772537159934092300,7.10709228515625,-0.3524121642112732,0.2077808976173401,-1.309694766998291
1772537159944141300,7.117141357421875,-0.5524358749389648,0.48728615045547485,-1.0589810609817505
1772537159954189300,7.127189208984375,-0.6814918518066406,0.5200528502464294,-0.6166960000991821
1772537159964237300,7.1372373046875,-0.765286922454834,0.20108714699745178,-0.04204230755567551
1772537159974286300,7.147286376953125,-0.832308828830719,-0.30794626474380493,0.5674492716789246
1772537159984334300,7.157334228515625,-0.8623077273368835,-0.723700225353241,1.023729920387268
1772537159994382300,7.16738232421875,-0.8569143414497375,-0.8393157720565796,1.1522234678268433
1772537160004431400,7.177431396484375,-0.7765278220176697,-0.746823251247406,0.8941068649291992
1772537160014479400,7.187479248046875,-0.5925739407539368,-0.577286958694458,0.30832913517951965
1772537160024527400,7.19752734375,-0.3323855400085449,-0.32758283615112305,-0.4243265688419342
1772537160034575000,7.2075751953125,-0.03282972425222397,0.08885062485933304,-1.1077715158462524
1772537160044624400,7.217624267578125,0.28502151370048523,0.47881051898002625,-1.596161961555481
1772537160054672100,7.227672119140625,0.5979418754577637,0.7225440740585327,-1.7345774173736572
1772537160064720400,7.237720458984375,0.7636727094650269,0.6895570755004883,-1.5260899066925049
1772537160074769200,7.24776904296875,0.7045063972473145,0.3695116639137268,-1.0372822284698486
1772537160084817200,7.257817138671875,0.4871595799922943,-0.07426576316356659,-0.3754958510398865
1772537160094865400,7.267865478515625,0.2257348895072937,-0.43844637274742126,0.3131539225578308
1772537160104914200,7.2779140625,-0.00290671456605196,-0.7174829244613647,0.8516027331352234
1772537160114962400,7.28796240234375,-0.15995891392230988,-0.9779203534126282,1.1726640462875366
1772537160125010200,7.29801025390625,-0.21488432586193085,-1.119413137435913,1.246312141418457
1772537160135059500,7.3080595703125,-0.10596077144145966,-1.0185048580169678,1.1194701194763184
1772537160145107200,7.318107177734375,0.13778001070022583,-0.6833343505859375,0.9329233765602112
1772537160155155200,7.3281552734375,0.40008512139320374,-0.2301681935787201,0.7937228679656982
1772537160165203500,7.338203369140625,0.6042442917823792,0.13984206318855286,0.7443826794624329
1772537160175252200,7.348252197265625,0.7257009744644165,0.31277814507484436,0.781057596206665
1772537160185300200,7.35830029296875,0.7841975092887878,0.38678497076034546,0.8676968216896057
1772537160195348200,7.36834814453125,0.7898588180541992,0.408332884311676,0.9649056792259216
1772537160205397200,7.378397216796875,0.7520948052406311,0.33563166856765747,1.0498360395431519
1772537160215445200,7.3884453125,0.6410265564918518,0.20273460447788239,1.1004440784454346
1772537160225493200,7.3984931640625,0.4508500397205353,0.12083058804273605,1.1879361867904663
1772537160235542300,7.408542236328125,0.23636385798454285,0.12189079076051712,1.3714889287948608
1772537160245590300,7.41859033203125,0.07565012574195862,0.25071263313293457,1.635843276977539
1772537160255638300,7.42863818359375,0.0084833400323987,0.464265912771225,1.8539879322052002
1772537160265686300,7.438686279296875,-0.0043614646419882774,0.6384217143058777,1.9386200904846191
1772537160275735300,7.4487353515625,-0.046564579010009766,0.5843188166618347,1.8322473764419556
1772537160285783300,7.458783203125,-0.09965973347425461,0.39265117049217224,1.5401419401168823
1772537160295831300,7.468831298828125,-0.14924432337284088,0.23698516190052032,1.118164300918579
1772537160305880300,7.47888037109375,-0.15943394601345062,0.13019965589046478,0.6366552710533142
1772537160315928300,7.48892822265625,-0.10975933074951172,0.14943140745162964,0.16100941598415375
1772537160325976300,7.498976318359375,-0.010841837152838707,0.18305306136608124,-0.30462464690208435
1772537160336025300,7.509025390625,0.1410454362630844,0.20475143194198608,-0.7231569290161133
1772537160346073300,7.5190732421875,0.3112781345844269,0.15382973849773407,-1.106894850730896
1772537160356121300,7.529121337890625,0.40760841965675354,0.10745825618505478,-1.4302606582641602
1772537160366169000,7.539169189453125,0.409797728061676,0.10893303900957108,-1.647597312927246
1772537160376218400,7.54921826171875,0.326683908700943,0.1526368409395218,-1.6912281513214111
1772537160386266000,7.55926611328125,0.1843469738960266,0.13349789381027222,-1.5087895393371582
1772537160396314400,7.569314453125,0.02629876509308815,-0.006699948105961084,-1.141711950302124
1772537160406363100,7.579363037109375,-0.11933089047670364,-0.2198893129825592,-0.7234098315238953
1772537160416411400,7.589411376953125,-0.28669777512550354,-0.5011273622512817,-0.43436577916145325
1772537160426459400,7.59945947265625,-0.4444577395915985,-0.855277419090271,-0.4306698143482208
1772537160436508200,7.609508056640625,-0.5431544780731201,-1.119403600692749,-0.7228103280067444
1772537160446556400,7.619556396484375,-0.6178890466690063,-1.0822339057922363,-1.2735062837600708
1772537160456604200,7.629604248046875,-0.6895602941513062,-0.7004348039627075,-1.903894305229187
1772537160466652400,7.63965234375,-0.7888413667678833,-0.18956322968006134,-2.3763654232025146
1772537160476701200,7.649701171875,-0.8625816106796265,0.13786496222019196,-2.5141243934631348
1772537160486749200,7.659749267578125,-0.8709818124771118,0.22633592784404755,-2.2845876216888428
1772537160496797400,7.66979736328125,-0.8010094165802002,0.11727229505777359,-1.734739899635315
1772537160506846200,7.67984619140625,-0.7192262411117554,-0.18746060132980347,-1.0905373096466064
1772537160516894500,7.68989453125,-0.7029902935028076,-0.5374372005462646,-0.5476347208023071
1772537160526942200,7.699942138671875,-0.7186132669448853,-0.7556586265563965,-0.20447462797164917
1772537160536991200,7.7099912109375,-0.6784210801124573,-0.8002505898475647,-0.02167605608701706
1772537160547039200,7.720039306640625,-0.5514532923698425,-0.6547450423240662,0.04142298549413681
1772537160557087200,7.730087158203125,-0.3717769980430603,-0.3521319031715393,0.022541439160704613
1772537160567135200,7.74013525390625,-0.18522073328495026,0.041425205767154694,-0.03246322274208069
1772537160577184300,7.750184326171875,0.019061287865042686,0.438285231590271,-0.06331541389226913
1772537160587232300,7.760232177734375,0.2429530918598175,0.7345489859580994,-0.005371761508285999
1772537160597280300,7.7702802734375,0.42854824662208557,0.8469858169555664,0.1423814743757248
1772537160607329300,7.780329345703125,0.521836519241333,0.7229025363922119,0.35784912109375
1772537160617377300,7.790377197265625,0.4827250838279724,0.47830772399902344,0.6053867936134338
1772537160627425300,7.80042529296875,0.30803290009498596,0.23630161583423615,0.8597416877746582
1772537160637474300,7.810474365234375,0.07831423729658127,0.07884141802787781,1.0926162004470825
1772537160647522300,7.820522216796875,-0.11933356523513794,-0.032432157546281815,1.2208747863769531
1772537160657570300,7.8305703125,-0.2793791890144348,-0.15535248816013336,1.2327215671539307
1772537160667618300,7.840618408203125,-0.3479229509830475,-0.37663373351097107,1.0851757526397705
1772537160677667300,7.850667236328125,-0.2927132248878479,-0.511616051197052,0.7416815757751465
1772537160687715300,7.86071533203125,-0.1926661729812622,-0.37015488743782043,0.23499348759651184
1772537160697763300,7.870763427734375,-0.04199304059147835,-0.05860365182161331,-0.255313903093338
1772537160707812400,7.880812255859375,0.18087033927440643,0.24041590094566345,-0.5116116404533386
1772537160717860000,7.890860107421875,0.42281585931777954,0.4313717484474182,-0.46737492084503174
1772537160727908400,7.900908447265625,0.6133864521980286,0.4909537136554718,-0.13074661791324615
1772537160737957000,7.91095703125,0.729917049407959,0.49673357605934143,0.37682923674583435
1772537160748005400,7.92100537109375,0.766636848449707,0.5504269599914551,0.9152784943580627
1772537160758053400,7.931053466796875,0.6965262293815613,0.5860068202018738,1.3969870805740356
1772537160768101000,7.94110107421875,0.5194103717803955,0.5048468112945557,1.7324720621109009
1772537160778150400,7.951150390625,0.27329859137535095,0.4261306822299957,1.9275717735290527
1772537160788198100,7.9611982421875,0.004824263509362936,0.39779239892959595,1.9497017860412598
1772537160798246400,7.971246337890625,-0.24598291516304016,0.3702443838119507,1.8480446338653564
1772537160808295200,7.981295166015625,-0.40520399808883667,0.43680158257484436,1.6971278190612793
1772537160818343400,7.991343505859375,-0.4365600645542145,0.521082878112793,1.4621834754943848
1772537160828391400,8.001391357421875,-0.3507145345211029,0.5704331994056702,1.1238610744476318
1772537160838440200,8.011440185546874,-0.20382152497768402,0.5432122349739075,0.6901775002479553
1772537160848488400,8.021488525390625,-0.06904852390289307,0.3823988139629364,0.21117742359638214
1772537160858536200,8.0315361328125,0.018807558342814445,0.18603327870368958,-0.2303648293018341
1772537160868584400,8.04158447265625,0.09142308682203293,0.08888686448335648,-0.6087256073951721
1772537160878633200,8.05163330078125,0.16775727272033691,0.07814500480890274,-0.9056851267814636
1772537160888681200,8.06168115234375,0.18870225548744202,0.12400401383638382,-1.09935462474823
1772537160898729200,8.071729248046875,0.13296017050743103,0.13179855048656464,-1.1989760398864746
1772537160908778200,8.0817783203125,0.0037368950434029102,0.07115780562162399,-1.2342116832733154
1772537160918826200,8.091826171875,-0.12796467542648315,-0.10031914710998535,-1.1873387098312378
1772537160928874200,8.101874267578125,-0.2513931095600128,-0.31518688797950745,-1.0303840637207031
1772537160938923300,8.11192333984375,-0.3327540159225464,-0.505498468875885,-0.7507606744766235
1772537160948971300,8.12197119140625,-0.40004026889801025,-0.6009703278541565,-0.5004515647888184
1772537160959019300,8.132019287109374,-0.4765353202819824,-0.6292746663093567,-0.4907568693161011
1772537160969068300,8.142068359375,-0.553345263004303,-0.6562708616256714,-0.7780036330223083
1772537160979116300,8.1521162109375,-0.5837907791137695,-0.5747610926628113,-1.2500782012939453
1772537160989164300,8.162164306640625,-0.5757675170898438,-0.3253267705440521,-1.8411378860473633
1772537160999212300,8.17221240234375,-0.5727642774581909,-0.03178596496582031,-2.331907033920288
1772537161009261300,8.18226123046875,-0.6248726844787598,0.23558393120765686,-2.4883275032043457
1772537161019309300,8.192309326171875,-0.7321810126304626,0.279544472694397,-2.2483277320861816
1772537161029357300,8.202357421875,-0.8741302490234375,0.08759449422359467,-1.634483814239502
1772537161039406300,8.21240625,-1.0034294128417969,-0.28462380170822144,-0.8826366662979126
1772537161049454300,8.222454345703126,-1.0668305158615112,-0.6514263153076172,-0.18641580641269684
1772537161059502300,8.23250244140625,-1.030165433883667,-0.9109806418418884,0.25956326723098755
1772537161069551000,8.242551025390625,-0.9273607730865479,-1.0028765201568604,0.28962820768356323
1772537161079599400,8.252599365234374,-0.7481664419174194,-0.8291784524917603,0.03800584003329277
1772537161089647400,8.2626474609375,-0.490607351064682,-0.3852351903915405,-0.3708372116088867
1772537161099694800,8.27269482421875,-0.24809031188488007,0.10396808385848999,-0.8146878480911255
1772537161109744000,8.282744140625,-0.07199358195066452,0.5299054384231567,-1.0645782947540283
1772537161119791900,8.2927919921875,0.03589852526783943,0.7620689272880554,-1.0501322746276855
1772537161129840000,8.302840087890624,0.06934649497270584,0.7270466685295105,-0.7510967254638672
1772537161139889000,8.312888916015625,0.02390124648809433,0.4304219186306,-0.2186879962682724
1772537161149937200,8.322937255859374,-0.06182242929935455,0.0980915054678917,0.38874536752700806
1772537161159985200,8.332985107421875,-0.16806603968143463,-0.11416535824537277,0.861558198928833
1772537161170034200,8.3430341796875,-0.2545141875743866,-0.2780757248401642,1.0887949466705322
1772537161180082200,8.353082275390625,-0.3373643159866333,-0.434100478887558,1.1180223226547241
1772537161190130000,8.3631298828125,-0.3800306022167206,-0.47995150089263916,1.0295957326889038
1772537161200178200,8.37317822265625,-0.37206053733825684,-0.4012388586997986,0.7844861149787903
1772537161210227000,8.38322705078125,-0.38248568773269653,-0.2252800315618515,0.45105916261672974
1772537161220275200,8.393275146484376,-0.36189255118370056,-0.17421257495880127,0.07726532965898514
1772537161230323200,8.4033232421875,-0.18874773383140564,-0.019104914739727974,-0.205589160323143
1772537161240372200,8.413372314453126,-0.006977393291890621,0.14016197621822357,-0.31109800934791565
1772537161250420000,8.423419921875,0.15858449041843414,0.25749513506889343,-0.2829439640045166
1772537161260468000,8.433468017578125,0.29076066613197327,0.0645158439874649,-0.027843210846185684
1772537161270516200,8.44351611328125,0.33703848719596863,-0.4470529556274414,0.3919462263584137
1772537161280565000,8.45356494140625,0.25485411286354065,-0.8372782468795776,0.7692855596542358
1772537161290613200,8.46361328125,0.05425301194190979,-0.9409785866737366,1.1462053060531616
1772537161300661000,8.473660888671875,-0.02795264683663845,-0.8982840776443481,1.4161332845687866
