time,seconds_elapsed,z,y,x
1772462707665389600,0.0693896484375,-0.997528076171875,-0.0119171142578125,0.029541015625
1772462707675437600,0.0794375,-1.000274658203125,-0.0127716064453125,0.0299072265625
1772462707685485600,0.089485595703125,-1.0088348388671875,-0.0112457275390625,0.028839111328125
1772462707695534600,0.09953466796875,-1.0084228515625,-0.0096282958984375,0.0281982421875
1772462707705582600,0.10958251953125,-0.998443603515625,-0.0100250244140625,0.02740478515625
1772462707715630600,0.119630615234375,-0.9945526123046875,-0.0096435546875,0.027740478515625
1772462707725679600,0.1296796875,-1.000396728515625,-0.00994873046875,0.029388427734375
1772462707735727600,0.1397275390625,-1.005035400390625,-0.0100860595703125,0.02850341796875
1772462707745775400,0.149775390625,-1.0029144287109375,-0.010406494140625,0.028076171875
1772462707755824600,0.15982470703125,-0.9983062744140625,-0.0099029541015625,0.028076171875
1772462707765872400,0.169872314453125,-0.9974517822265625,-0.011199951171875,0.0289459228515625
1772462707775920600,0.179920654296875,-1.0047454833984375,-0.0111541748046875,0.02838134765625
1772462707785969400,0.189969482421875,-1.0069732666015625,-0.0106201171875,0.02825927734375
1772462707796017700,0.200017578125,-1.00164794921875,-0.0102386474609375,0.029327392578125
1772462707806065700,0.210065673828125,-0.9981536865234375,-0.01165771484375,0.029052734375
1772462707816113400,0.220113525390625,-1.0004119873046875,-0.0109710693359375,0.0282745361328125
1772462707826162700,0.23016259765625,-1.0051422119140625,-0.010284423828125,0.0281524658203125
1772462707836210400,0.24021044921875,-1.005828857421875,-0.0102386474609375,0.02923583984375
1772462707846258700,0.2502587890625,-0.99908447265625,-0.0097503662109375,0.0293731689453125
1772462707856307500,0.260307373046875,-0.998870849609375,-0.010345458984375,0.0285797119140625
1772462707866355500,0.27035546875,-1.003875732421875,-0.0107879638671875,0.0277862548828125
1772462707876403500,0.280403564453125,-1.0058441162109375,-0.0112762451171875,0.0284271240234375
1772462707886452500,0.290452392578125,-1.002960205078125,-0.0106201171875,0.0290679931640625
1772462707896500500,0.30050048828125,-0.999664306640625,-0.0104217529296875,0.029754638671875
1772462707906548500,0.310548583984375,-1.0012054443359375,-0.0100860595703125,0.0289154052734375
1772462707916597500,0.320597412109375,-1.0045623779296875,-0.010894775390625,0.0295562744140625
1772462707926645500,0.3306455078125,-1.004486083984375,-0.00958251953125,0.02801513671875
1772462707936693500,0.340693603515625,-1.000518798828125,-0.0096282958984375,0.0275421142578125
1772462707946742500,0.350742431640625,-1.0012664794921875,-0.0103607177734375,0.0273284912109375
1772462707956790500,0.36079052734375,-1.0037841796875,-0.0112152099609375,0.027862548828125
1772462707966838500,0.370838623046875,-1.004150390625,-0.01177978515625,0.0291595458984375
1772462707976887600,0.380887451171875,-1.0022125244140625,-0.0110626220703125,0.02813720703125
1772462707986935600,0.390935546875,-0.999603271484375,-0.0108642578125,0.0288543701171875
1772462707996983600,0.400983642578125,-1.0025787353515625,-0.0101776123046875,0.0286407470703125
1772462708007031600,0.411031494140625,-1.0046844482421875,-0.009857177734375,0.0280303955078125
1772462708017080600,0.42108056640625,-1.0027923583984375,-0.009796142578125,0.027618408203125
1772462708027128600,0.431128662109375,-1.001007080078125,-0.009979248046875,0.02752685546875
1772462708037176600,0.441176513671875,-1.0010833740234375,-0.010986328125,0.028350830078125
1772462708047225600,0.4512255859375,-1.0041351318359375,-0.011810302734375,0.02960205078125
1772462708057273600,0.461273681640625,-1.0032196044921875,-0.01019287109375,0.0296630859375
1772462708067321600,0.471321533203125,-1.0026092529296875,-0.0119171142578125,0.028594970703125
1772462708077373200,0.481373291015625,-1.001068115234375,-0.0109100341796875,0.0286102294921875
1772462708087421400,0.49142138671875,-1.00201416015625,-0.0102691650390625,0.0291290283203125
1772462708097469400,0.501469482421875,-1.00445556640625,-0.01080322265625,0.028533935546875
1772462708107518500,0.5115185546875,-1.0039520263671875,-0.0111083984375,0.0270233154296875
1772462708117566500,0.52156640625,-1.0009307861328125,-0.0096435546875,0.028564453125
1772462708127614200,0.5316142578125,-1.0011138916015625,-0.010467529296875,0.028839111328125
1772462708137663500,0.54166357421875,-1.0037689208984375,-0.0112152099609375,0.0289306640625
1772462708147711200,0.551711181640625,-1.0050506591796875,-0.0115203857421875,0.0287628173828125
1772462708157759500,0.561759521484375,-1.0023651123046875,-0.0109405517578125,0.028717041015625
1772462708167808300,0.571808349609375,-1.0012969970703125,-0.010711669921875,0.0295867919921875
1772462708177856500,0.5818564453125,-1.0013885498046875,-0.01007080078125,0.028839111328125
1772462708187904300,0.591904296875,-1.0023345947265625,-0.010650634765625,0.028594970703125
1772462708197953500,0.60195361328125,-1.004058837890625,-0.0111541748046875,0.0278472900390625
1772462708208001300,0.612001220703125,-1.0015869140625,-0.0105743408203125,0.027923583984375
1772462708218049300,0.62204931640625,-1.0008544921875,-0.0103912353515625,0.0284881591796875
1772462708228097500,0.63209765625,-1.003265380859375,-0.011016845703125,0.0284271240234375
1772462708238146300,0.642146240234375,-1.0033416748046875,-0.010894775390625,0.0279998779296875
1772462708248194600,0.652194580078125,-1.002197265625,-0.0105743408203125,0.028900146484375
1772462708258242300,0.6622421875,-1.00115966796875,-0.0101165771484375,0.0282440185546875
1772462708268291600,0.67229150390625,-1.0009613037109375,-0.0103607177734375,0.0275421142578125
1772462708278339300,0.68233935546875,-1.0036163330078125,-0.0103912353515625,0.02801513671875
1772462708288387300,0.69238720703125,-1.00250244140625,-0.010772705078125,0.0282440185546875
1772462708298436400,0.702436279296875,-1.0023040771484375,-0.0104217529296875,0.0294952392578125
1772462708308484400,0.712484375,-1.0023040771484375,-0.0109710693359375,0.029327392578125
1772462708318532400,0.722532470703125,-1.0015869140625,-0.0107269287109375,0.0294342041015625
1772462708328581400,0.732581298828125,-1.0025482177734375,-0.011199951171875,0.0285797119140625
1772462708338629400,0.74262939453125,-1.001556396484375,-0.0107879638671875,0.0292816162109375
1772462708348677400,0.752677490234375,-1.00213623046875,-0.010833740234375,0.028778076171875
1772462708358726100,0.76272607421875,-1.003662109375,-0.010986328125,0.027496337890625
1772462708368774400,0.7727744140625,-1.002716064453125,-0.0110321044921875,0.0281524658203125
1772462708378822400,0.782822509765625,-1.0009613037109375,-0.010467529296875,0.0284423828125
1772462708388871400,0.792871337890625,-1.001373291015625,-0.010498046875,0.028564453125
1772462708398919400,0.80291943359375,-1.0027313232421875,-0.0109405517578125,0.029327392578125
1772462708408967200,0.81296728515625,-1.002655029296875,-0.0107269287109375,0.0293121337890625
1772462708419016400,0.823016357421875,-1.0017242431640625,-0.0107879638671875,0.0275115966796875
1772462708429064200,0.833064208984375,-1.00128173828125,-0.0112457275390625,0.0278472900390625
1772462708439112400,0.843112548828125,-1.0019683837890625,-0.01104736328125,0.0282440185546875
1772462708449161200,0.8531611328125,-1.0040740966796875,-0.010772705078125,0.02813720703125
1772462708459209500,0.86320947265625,-1.0037689208984375,-0.0107421875,0.02850341796875
1772462708469257500,0.873257568359375,-1.0009002685546875,-0.01068115234375,0.0285797119140625
1772462708479305200,0.88330517578125,-1.0018157958984375,-0.01031494140625,0.02801513671875
1772462708489354500,0.8933544921875,-1.0029296875,-0.009429931640625,0.0278778076171875
1772462708499402200,0.90340234375,-1.0032501220703125,-0.0099334716796875,0.0284423828125
1772462708509450500,0.913450439453125,-1.0010223388671875,-0.01055908203125,0.0286865234375
1772462708519499300,0.923499267578125,-1.000762939453125,-0.0114593505859375,0.0291748046875
1772462708529547500,0.933547607421875,-1.001617431640625,-0.011688232421875,0.0297088623046875
1772462708539595300,0.94359521484375,-1.0039825439453125,-0.0113525390625,0.0299224853515625
1772462708549644500,0.95364453125,-1.002288818359375,-0.0114593505859375,0.0281829833984375
1772462708559692300,0.9636923828125,-1.00128173828125,-0.0109405517578125,0.0289764404296875
1772462708569740300,0.973740234375,-1.0019378662109375,-0.01019287109375,0.0287322998046875
1772462708579789300,0.983789306640625,-1.0020599365234375,-0.009857177734375,0.0283203125
1772462708589837300,0.99383740234375,-1.0037384033203125,-0.0095977783203125,0.0283050537109375
1772462708599885600,1.003885498046875,-1.003814697265625,-0.0095062255859375,0.0279998779296875
1772462708609934300,1.013934326171875,-1.002166748046875,-0.0101318359375,0.0281524658203125
1772462708619982600,1.023982666015625,-1.0001220703125,-0.010498046875,0.02874755859375
1772462708630030300,1.0340302734375,-1.0022430419921875,-0.010894775390625,0.02923583984375
1772462708640079400,1.044079345703125,-1.0030670166015625,-0.0111236572265625,0.0290985107421875
1772462708650127400,1.05412744140625,-1.0036163330078125,-0.0110626220703125,0.02935791015625
1772462708660175400,1.06417529296875,-1.000701904296875,-0.0104827880859375,0.02825927734375
1772462708670224400,1.074224365234375,-0.9999237060546875,-0.0103607177734375,0.0278472900390625
1772462708680272400,1.0842724609375,-1.001953125,-0.0106658935546875,0.0288848876953125
1772462708690320100,1.094320068359375,-1.002471923828125,-0.010528564453125,0.0286407470703125
1772462708700369400,1.104369384765625,-1.001068115234375,-0.009979248046875,0.028289794921875
1772462708710417200,1.114417236328125,-1.0015411376953125,-0.0105743408203125,0.027923583984375
1772462708720465400,1.12446533203125,-1.0034942626953125,-0.01055908203125,0.02862548828125
1772462708730514200,1.13451416015625,-1.002777099609375,-0.0104827880859375,0.0284576416015625
1772462708740562400,1.1445625,-1.0019989013671875,-0.0104217529296875,0.0284271240234375
1772462708750610400,1.1546103515625,-1.0017547607421875,-0.0109710693359375,0.0288543701171875
1772462708760658200,1.164658203125,-1.00299072265625,-0.010589599609375,0.0283203125
1772462708770707500,1.17470751953125,-1.002685546875,-0.0102691650390625,0.02862548828125
1772462708780755200,1.184755126953125,-1.0030059814453125,-0.0102081298828125,0.0284881591796875
1772462708790803500,1.194803466796875,-1.0034027099609375,-0.0109100341796875,0.0295562744140625
1772462708800852200,1.204852294921875,-1.0005645751953125,-0.0106048583984375,0.028961181640625
1772462708810900500,1.214900390625,-1.001251220703125,-0.010772705078125,0.028533935546875
1772462708820948500,1.224948486328125,-1.004119873046875,-0.011260986328125,0.0284881591796875
1772462708830997500,1.23499755859375,-1.0037841796875,-0.0108795166015625,0.028076171875
1772462708841045500,1.24504541015625,-1.001800537109375,-0.0101776123046875,0.0282135009765625
1772462708851093200,1.25509326171875,-1.002166748046875,-0.010406494140625,0.027923583984375
1772462708861142300,1.265142333984375,-1.0030670166015625,-0.01141357421875,0.0294342041015625
1772462708871190300,1.275190185546875,-1.002899169921875,-0.010986328125,0.029022216796875
1772462708881238500,1.285238525390625,-1.0028533935546875,-0.009857177734375,0.02947998046875
1772462708891287300,1.295287353515625,-1.00164794921875,-0.01025390625,0.0280914306640625
1772462708901335600,1.30533544921875,-1.00238037109375,-0.010986328125,0.02764892578125
1772462708911383300,1.31538330078125,-1.0032806396484375,-0.0109710693359375,0.0280303955078125
1772462708921432300,1.325432373046875,-1.0040283203125,-0.010772705078125,0.028045654296875
1772462708931480300,1.335480224609375,-1.002685546875,-0.0104217529296875,0.0291595458984375
1772462708941528300,1.3455283203125,-1.0002288818359375,-0.010406494140625,0.0286865234375
1772462708951577300,1.355577392578125,-1.0018768310546875,-0.010711669921875,0.02801513671875
1772462708961625300,1.365625244140625,-1.003509521484375,-0.010833740234375,0.0285797119140625
1772462708971673300,1.37567333984375,-1.0028839111328125,-0.0102996826171875,0.0293121337890625
1772462708981722400,1.385722412109375,-0.9997406005859375,-0.00982666015625,0.028564453125
1772462708991770400,1.395770263671875,-1.0016937255859375,-0.0115966796875,0.0287322998046875
1772462709001818400,1.405818359375,-1.004364013671875,-0.01129150390625,0.028228759765625
1772462709011867400,1.415867431640625,-1.0035247802734375,-0.010711669921875,0.0289154052734375
1772462709021915400,1.425915283203125,-1.0009765625,-0.0106353759765625,0.0286407470703125
1772462709031963400,1.43596337890625,-1.0007781982421875,-0.010986328125,0.0278472900390625
1772462709042012400,1.446012451171875,-1.0025787353515625,-0.01092529296875,0.028289794921875
1772462709052060400,1.456060302734375,-1.0025787353515625,-0.0101470947265625,0.0292510986328125
1772462709062108200,1.466108154296875,-1.0032806396484375,-0.0103302001953125,0.027923583984375
1772462709072157700,1.47615771484375,-1.0019989013671875,-0.0102081298828125,0.02874755859375
1772462709082205400,1.486205322265625,-1.0018310546875,-0.01141357421875,0.0290679931640625
1772462709092253700,1.496253662109375,-1.0024871826171875,-0.0111541748046875,0.02850341796875
1772462709102302500,1.506302490234375,-1.0015716552734375,-0.01043701171875,0.0286712646484375
1772462709112350700,1.516350830078125,-1.001068115234375,-0.01031494140625,0.0287933349609375
1772462709122398700,1.526398681640625,-1.001708984375,-0.0094757080078125,0.028656005859375
1772462709132446500,1.536446533203125,-1.00396728515625,-0.0097503662109375,0.0284423828125
1772462709142495700,1.546495849609375,-1.003448486328125,-0.0101165771484375,0.028228759765625
1772462709152543500,1.55654345703125,-1.001708984375,-0.0113372802734375,0.0276336669921875
1772462709162591700,1.566591796875,-1.0004119873046875,-0.01080322265625,0.028411865234375
1772462709172640500,1.576640625,-1.00128173828125,-0.010986328125,0.029388427734375
1772462709182688800,1.586688720703125,-1.003753662109375,-0.010772705078125,0.0287322998046875
1772462709192736500,1.596736572265625,-1.0022735595703125,-0.01080322265625,0.0288848876953125
1772462709202785800,1.606785888671875,-1.0018157958984375,-0.01019287109375,0.02862548828125
1772462709212833500,1.61683349609375,-1.0019683837890625,-0.0108184814453125,0.0277557373046875
1772462709222881500,1.626881591796875,-1.0037994384765625,-0.010406494140625,0.0286102294921875
1772462709232930600,1.6369306640625,-1.0034332275390625,-0.010650634765625,0.029052734375
1772462709242978600,1.646978515625,-1.0023345947265625,-0.01025390625,0.0293121337890625
1772462709253026800,1.65702685546875,-1.0024261474609375,-0.01104736328125,0.02886962890625
1772462709263075600,1.66707568359375,-1.0016326904296875,-0.011138916015625,0.0294952392578125
1772462709273123600,1.67712353515625,-1.0025787353515625,-0.0116424560546875,0.02899169921875
1772462709283171600,1.687171630859375,-1.0020751953125,-0.0110931396484375,0.0296173095703125
1772462709293220600,1.697220703125,-1.002410888671875,-0.0105438232421875,0.0291748046875
1772462709303268600,1.7072685546875,-1.0038299560546875,-0.0108795166015625,0.02880859375
1772462709313316600,1.717316650390625,-1.0025482177734375,-0.01043701171875,0.0289459228515625
1772462709323365600,1.72736572265625,-1.0010986328125,-0.010833740234375,0.0279083251953125
1772462709333413600,1.73741357421875,-1.0029144287109375,-0.010345458984375,0.02838134765625
1772462709343461600,1.747461669921875,-1.002349853515625,-0.01080322265625,0.0294189453125
1772462709353510700,1.7575107421875,-1.00128173828125,-0.0103607177734375,0.028656005859375
1772462709363558700,1.76755859375,-1.0016021728515625,-0.010223388671875,0.0286407470703125
1772462709373606700,1.777606689453125,-1.003662109375,-0.0109405517578125,0.0280914306640625
1772462709383655400,1.787655517578125,-1.0020751953125,-0.010650634765625,0.028594970703125
1772462709393703700,1.79770361328125,-1.002838134765625,-0.0097808837890625,0.0287322998046875
1772462709403751700,1.807751708984375,-1.0012969970703125,-0.0103607177734375,0.0296478271484375
1772462709413800700,1.81780078125,-1.0019378662109375,-0.0101776123046875,0.029327392578125
1772462709423848700,1.8278486328125,-1.0034332275390625,-0.0096893310546875,0.0284576416015625
1772462709433896400,1.837896484375,-1.0038299560546875,-0.010589599609375,0.0285186767578125
1772462709443945700,1.84794580078125,-1.00311279296875,-0.0097503662109375,0.029205322265625
1772462709453993500,1.857993408203125,-1.0019073486328125,-0.0104522705078125,0.02874755859375
1772462709464041700,1.868041748046875,-1.002777099609375,-0.01043701171875,0.0280303955078125
1772462709474090500,1.878090576171875,-1.00286865234375,-0.010009765625,0.0280914306640625
1772462709484138800,1.888138671875,-1.0025634765625,-0.0102081298828125,0.02783203125
1772462709494186800,1.898186767578125,-1.0015411376953125,-0.0106353759765625,0.0281982421875
1772462709504235500,1.908235595703125,-1.0023345947265625,-0.010833740234375,0.0284271240234375
1772462709514283800,1.91828369140625,-1.0025787353515625,-0.0103912353515625,0.02886962890625
1772462709524331500,1.92833154296875,-1.0014190673828125,-0.010986328125,0.0291748046875
1772462709534380800,1.938380859375,-1.0015869140625,-0.011383056640625,0.028656005859375
1772462709544428500,1.948428466796875,-1.0027313232421875,-0.0106658935546875,0.0286865234375
1772462709554476500,1.9584765625,-1.0030670166015625,-0.0111083984375,0.0287322998046875
1772462709564525600,1.968525634765625,-1.0020751953125,-0.0104522705078125,0.0271759033203125
1772462709574573600,1.978573486328125,-1.0012054443359375,-0.01025390625,0.028350830078125
1772462709584621600,1.98862158203125,-1.0030059814453125,-0.0095062255859375,0.0287322998046875
1772462709594670600,1.998670654296875,-1.002532958984375,-0.0098876953125,0.0295562744140625
1772462709604718600,2.008718505859375,-1.0027313232421875,-0.01080322265625,0.02838134765625
1772462709614766600,2.0187666015625,-1.0032958984375,-0.0105133056640625,0.0272674560546875
1772462709624815600,2.028815673828125,-1.0020294189453125,-0.0104827880859375,0.0278472900390625
1772462709634863600,2.038863525390625,-1.0015869140625,-0.0109710693359375,0.0291748046875
1772462709644911600,2.04891162109375,-1.0022430419921875,-0.0111541748046875,0.028656005859375
1772462709654960600,2.058960693359375,-1.0034332275390625,-0.010284423828125,0.0288848876953125
1772462709665008600,2.069008544921875,-1.0031890869140625,-0.010711669921875,0.0287628173828125
1772462709675056600,2.079056640625,-1.00244140625,-0.01055908203125,0.02850341796875
1772462709685105700,2.089105712890625,-1.0028228759765625,-0.010711669921875,0.0290374755859375
1772462709695153700,2.099153564453125,-1.002166748046875,-0.01031494140625,0.02911376953125
1772462709705201700,2.10920166015625,-1.0014495849609375,-0.011077880859375,0.028594970703125
1772462709715250700,2.119250732421875,-1.0018768310546875,-0.0103302001953125,0.0283660888671875
1772462709725298700,2.129298583984375,-1.002227783203125,-0.0103759765625,0.028350830078125
1772462709735346400,2.139346435546875,-1.002410888671875,-0.0111083984375,0.0289306640625
1772462709745395700,2.149395751953125,-1.0024566650390625,-0.0106964111328125,0.0286865234375
1772462709755443500,2.159443359375,-1.0028839111328125,-0.0105743408203125,0.028350830078125
1772462709765491700,2.16949169921875,-1.0027618408203125,-0.0110321044921875,0.0295257568359375
1772462709775540500,2.17954052734375,-1.002349853515625,-0.01031494140625,0.028411865234375
1772462709785588500,2.18958837890625,-1.0021820068359375,-0.0113067626953125,0.0281829833984375
1772462709795636700,2.19963671875,-1.002410888671875,-0.010345458984375,0.0281524658203125
1772462709805685500,2.209685546875,-1.0030975341796875,-0.0107879638671875,0.028289794921875
1772462709815733800,2.219733642578125,-1.003143310546875,-0.0105743408203125,0.028717041015625
1772462709825781500,2.229781494140625,-1.0015106201171875,-0.0099334716796875,0.0285797119140625
1772462709835830800,2.239830810546875,-1.0006561279296875,-0.01055908203125,0.029052734375
1772462709845878500,2.24987841796875,-1.0025634765625,-0.011138916015625,0.0287322998046875
1772462709855926500,2.259926513671875,-1.00323486328125,-0.01129150390625,0.029144287109375
1772462709865975600,2.2699755859375,-1.0035552978515625,-0.0108489990234375,0.02880859375
1772462709876023600,2.2800234375,-1.00128173828125,-0.011077880859375,0.0280609130859375
1772462709886071800,2.29007177734375,-1.00146484375,-0.009979248046875,0.028472900390625
1772462709896120600,2.30012060546875,-1.0031280517578125,-0.010040283203125,0.0282135009765625
1772462709906168600,2.31016845703125,-1.0031280517578125,-0.0107421875,0.0286102294921875
1772462709916216600,2.320216552734375,-1.0023193359375,-0.01080322265625,0.029266357421875
1772462709926265600,2.330265625,-1.000579833984375,-0.0105743408203125,0.0287933349609375
1772462709936313600,2.340313720703125,-1.002288818359375,-0.01043701171875,0.0288543701171875
1772462709946361600,2.350361572265625,-1.002838134765625,-0.0107421875,0.027801513671875
1772462709956409600,2.36040966796875,-1.002197265625,-0.0111083984375,0.0284576416015625
1772462709966458600,2.370458740234375,-1.002197265625,-0.01092529296875,0.0288238525390625
1772462709976506600,2.380506591796875,-1.0010528564453125,-0.0110931396484375,0.0288238525390625
1772462709986554600,2.3905546875,-1.001129150390625,-0.0105438232421875,0.029449462890625
1772462709996603600,2.400603759765625,-1.00335693359375,-0.0106201171875,0.0288238525390625
1772462710006651600,2.410651611328125,-1.0027313232421875,-0.0102691650390625,0.029327392578125
1772462710016699600,2.42069970703125,-1.0021514892578125,-0.0103607177734375,0.02923583984375
1772462710026748700,2.430748779296875,-1.0013885498046875,-0.01092529296875,0.028228759765625
1772462710036796700,2.440796630859375,-1.002960205078125,-0.0110015869140625,0.02874755859375
1772462710046844700,2.4508447265625,-1.0025787353515625,-0.0101165771484375,0.028228759765625
1772462710056893700,2.460893798828125,-1.0023651123046875,-0.010833740234375,0.02838134765625
1772462710066941400,2.47094140625,-1.0028228759765625,-0.0111541748046875,0.0294036865234375
1772462710076985600,2.480985595703125,-1.0026397705078125,-0.0110321044921875,0.02960205078125
1772462710087034400,2.491034423828125,-1.0023345947265625,-0.0105133056640625,0.028594970703125
1772462710097082600,2.50108251953125,-1.0025634765625,-0.010589599609375,0.02862548828125
1772462710107131400,2.51113134765625,-1.001922607421875,-0.0106201171875,0.0285491943359375
1772462710117179600,2.5211796875,-1.0033111572265625,-0.010498046875,0.028533935546875
1772462710127227600,2.5312275390625,-1.002532958984375,-0.0106353759765625,0.0279388427734375
1772462710137275400,2.541275390625,-1.0027618408203125,-0.0100555419921875,0.0288543701171875
1772462710147324700,2.55132470703125,-1.0016937255859375,-0.0101776123046875,0.02899169921875
1772462710157372400,2.561372314453125,-1.003173828125,-0.01104736328125,0.0283966064453125
1772462710167420700,2.571420654296875,-1.00213623046875,-0.0107879638671875,0.02825927734375
1772462710177469400,2.581469482421875,-1.0013885498046875,-0.0106353759765625,0.027984619140625
1772462710187517700,2.591517578125,-1.002044677734375,-0.010101318359375,0.02801513671875
1772462710197565400,2.6015654296875,-1.0023040771484375,-0.0105743408203125,0.0291900634765625
1772462710207614500,2.611614501953125,-1.0024261474609375,-0.0116119384765625,0.028839111328125
1772462710217662500,2.621662353515625,-1.002960205078125,-0.010650634765625,0.0287628173828125
1772462710227710500,2.63171044921875,-1.0027923583984375,-0.0103759765625,0.028961181640625
1772462710237759500,2.641759521484375,-1.0034332275390625,-0.0104522705078125,0.028778076171875
1772462710247807500,2.651807373046875,-1.0020751953125,-0.0111236572265625,0.029327392578125
1772462710257855500,2.66185546875,-1.001068115234375,-0.0108489990234375,0.0293121337890625
1772462710267904500,2.671904541015625,-1.00103759765625,-0.0105743408203125,0.02825927734375
1772462710277952500,2.681952392578125,-1.0029296875,-0.010467529296875,0.028350830078125
1772462710288000500,2.69200048828125,-1.0034332275390625,-0.0109100341796875,0.02813720703125
1772462710298049500,2.702049560546875,-1.00225830078125,-0.011444091796875,0.0294189453125
1772462710308097500,2.71209765625,-1.0019378662109375,-0.0110626220703125,0.02899169921875
1772462710318145500,2.7221455078125,-1.0026702880859375,-0.011566162109375,0.028900146484375
1772462710328194600,2.732194580078125,-1.0035858154296875,-0.0105438232421875,0.029571533203125
1772462710338242600,2.74224267578125,-1.0030059814453125,-0.010223388671875,0.028656005859375
1772462710348290600,2.75229052734375,-1.0011444091796875,-0.0114898681640625,0.0282135009765625
1772462710358339600,2.762339599609375,-1.001739501953125,-0.0102386474609375,0.0285797119140625
1772462710368387600,2.7723876953125,-1.003509521484375,-0.010162353515625,0.028472900390625
1772462710378435600,2.782435546875,-1.003143310546875,-0.0099945068359375,0.028564453125
1772462710388484400,2.792484375,-1.001190185546875,-0.01025390625,0.0288238525390625
1772462710398532600,2.80253271484375,-1.0023040771484375,-0.011199951171875,0.0286102294921875
1772462710408580600,2.81258056640625,-1.003173828125,-0.0110015869140625,0.029052734375
1772462710418629600,2.822629638671875,-1.003875732421875,-0.0100250244140625,0.029144287109375
1772462710428677600,2.832677734375,-1.0018463134765625,-0.0104522705078125,0.0272674560546875
1772462710438725400,2.842725341796875,-1.0034942626953125,-0.0101165771484375,0.0281524658203125
1772462710448774700,2.852774658203125,-1.0027923583984375,-0.0106658935546875,0.029052734375
1772462710458822400,2.862822509765625,-1.0010528564453125,-0.0105438232421875,0.028289794921875
1772462710468870700,2.87287060546875,-1.0013885498046875,-0.010101318359375,0.0287017822265625
1772462710478919400,2.88291943359375,-1.00341796875,-0.00982666015625,0.0275115966796875
1772462710488967400,2.892967529296875,-1.0025634765625,-0.010772705078125,0.0283355712890625
1772462710499015700,2.903015625,-1.00140380859375,-0.01068115234375,0.02935791015625
1772462710509064400,2.913064453125,-1.000885009765625,-0.0108642578125,0.0289154052734375
1772462710519112700,2.92311279296875,-1.00177001953125,-0.010711669921875,0.0287017822265625
1772462710529160400,2.933160400390625,-1.0013580322265625,-0.0111541748046875,0.028839111328125
1772462710539209700,2.943209716796875,-1.00189208984375,-0.0111083984375,0.0294952392578125
1772462710549257500,2.953257568359375,-1.00286865234375,-0.0113525390625,0.0279541015625
1772462710559305500,2.963305419921875,-1.002166748046875,-0.0108642578125,0.027984619140625
1772462710569354500,2.9733544921875,-1.0030670166015625,-0.0101470947265625,0.0278778076171875
1772462710579402500,2.983402587890625,-1.0031280517578125,-0.0109405517578125,0.0290374755859375
1772462710589450500,2.993450439453125,-1.0025482177734375,-0.0113525390625,0.0294189453125
1772462710599499500,3.00349951171875,-1.0025482177734375,-0.0104217529296875,0.02886962890625
1772462710609547500,3.013547607421875,-1.001708984375,-0.0105438232421875,0.028778076171875
1772462710619595500,3.023595458984375,-1.0021820068359375,-0.010223388671875,0.02880859375
1772462710629644500,3.03364453125,-1.0024261474609375,-0.01080322265625,0.0285797119140625
1772462710639692500,3.043692626953125,-1.0033721923828125,-0.0111236572265625,0.0289154052734375
1772462710649740500,3.053740478515625,-1.002288818359375,-0.01043701171875,0.02947998046875
1772462710659789600,3.06378955078125,-1.0018310546875,-0.0107421875,0.02911376953125
1772462710669837600,3.073837646484375,-1.0029449462890625,-0.0113677978515625,0.029083251953125
1772462710679885600,3.083885498046875,-1.003814697265625,-0.0106964111328125,0.028076171875
1772462710689934600,3.0939345703125,-1.0030517578125,-0.0098114013671875,0.028839111328125
1772462710699982600,3.103982666015625,-1.001251220703125,-0.01080322265625,0.0281524658203125
1772462710710030600,3.114030517578125,-1.00164794921875,-0.0111083984375,0.02777099609375
1772462710720079400,3.124079345703125,-1.001922607421875,-0.010528564453125,0.029541015625
1772462710730127600,3.134127685546875,-1.0037078857421875,-0.01104736328125,0.0290069580078125
1772462710740175400,3.14417529296875,-1.0025177001953125,-0.0113525390625,0.029144287109375
1772462710750224600,3.154224609375,-1.0018310546875,-0.010986328125,0.0296478271484375
1772462710760272400,3.1642724609375,-1.0029296875,-0.0109100341796875,0.0297088623046875
1772462710770320400,3.1743203125,-1.00360107421875,-0.0103759765625,0.0286102294921875
1772462710780369400,3.184369384765625,-1.003173828125,-0.0106201171875,0.0282135009765625
1772462710790417400,3.19441748046875,-1.0025634765625,-0.0097198486328125,0.0291900634765625
1772462710800465700,3.204465576171875,-1.0020904541015625,-0.0104217529296875,0.02899169921875
1772462710810514400,3.214514404296875,-1.002471923828125,-0.0111541748046875,0.02825927734375
1772462710820562700,3.224562744140625,-1.0029754638671875,-0.0112762451171875,0.0290374755859375
1772462710830610400,3.2346103515625,-1.001678466796875,-0.010986328125,0.028961181640625
1772462710840659700,3.24465966796875,-1.0025787353515625,-0.01031494140625,0.02874755859375
1772462710850707500,3.25470751953125,-1.0035552978515625,-0.010986328125,0.028839111328125
1772462710860755500,3.26475537109375,-1.0020599365234375,-0.0101165771484375,0.0276641845703125
1772462710870804500,3.274804443359375,-1.001861572265625,-0.00970458984375,0.027679443359375
1772462710880852500,3.2848525390625,-1.0044097900390625,-0.010101318359375,0.0281829833984375
1772462710890900700,3.294900634765625,-1.003204345703125,-0.010162353515625,0.027099609375
1772462710900949500,3.304949462890625,-1.0029754638671875,-0.010955810546875,0.029693603515625
1772462710910997500,3.31499755859375,-1.0020599365234375,-0.011383056640625,0.0294036865234375
1772462710921045500,3.32504541015625,-1.0018768310546875,-0.0110015869140625,0.02911376953125
1772462710931094500,3.335094482421875,-1.0033111572265625,-0.0113525390625,0.0284423828125
1772462710941142500,3.345142578125,-1.003448486328125,-0.0104522705078125,0.028533935546875
1772462710951190500,3.3551904296875,-1.00299072265625,-0.0105438232421875,0.0284271240234375
1772462710961239600,3.365239501953125,-1.0028076171875,-0.0101165771484375,0.0284881591796875
1772462710971287600,3.37528759765625,-1.002471923828125,-0.0104217529296875,0.028045654296875
1772462710981335600,3.38533544921875,-1.00335693359375,-0.009765625,0.0287322998046875
1772462710991384600,3.395384521484375,-1.0017852783203125,-0.009552001953125,0.0287628173828125
1772462711001432300,3.405432373046875,-1.0024871826171875,-0.0105133056640625,0.028594970703125
1772462711011480600,3.41548046875,-1.00115966796875,-0.0109710693359375,0.028167724609375
1772462711021529300,3.425529296875,-1.0030364990234375,-0.011322021484375,0.0279998779296875
1772462711031577600,3.43557763671875,-1.002685546875,-0.0111541748046875,0.0303497314453125
1772462711041625600,3.44562548828125,-1.00201416015625,-0.0109710693359375,0.029388427734375
1772462711051674600,3.455674560546875,-1.0020599365234375,-0.010986328125,0.0286865234375
1772462711061722600,3.46572265625,-1.002288818359375,-0.0108184814453125,0.0282440185546875
1772462711071771000,3.47577099609375,-1.0037689208984375,-0.010498046875,0.0284271240234375
1772462711081820000,3.48581982421875,-1.001678466796875,-0.0105133056640625,0.0284576416015625
1772462711091868000,3.495867919921875,-1.001373291015625,-0.0106201171875,0.028961181640625
1772462711101916000,3.505916015625,-1.0035858154296875,-0.01129150390625,0.029296875
1772462711111965000,3.51596484375,-1.0027618408203125,-0.0107574462890625,0.02874755859375
1772462711122013000,3.526012939453125,-1.003692626953125,-0.01019287109375,0.0285797119140625
1772462711132061000,3.53606103515625,-1.00189208984375,-0.0111236572265625,0.02850341796875
1772462711142110000,3.54610986328125,-1.0020904541015625,-0.01104736328125,0.0283660888671875
1772462711152158000,3.556157958984375,-1.0026092529296875,-0.010345458984375,0.0281219482421875
1772462711162206000,3.5662060546875,-1.00396728515625,-0.0105438232421875,0.029144287109375
1772462711172254700,3.576254638671875,-1.002410888671875,-0.0104522705078125,0.0286102294921875
1772462711182303000,3.586302978515625,-1.0010223388671875,-0.0105133056640625,0.028228759765625
1772462711192351000,3.59635107421875,-1.0018463134765625,-0.0104827880859375,0.0290374755859375
1772462711202400000,3.60639990234375,-1.00439453125,-0.0097503662109375,0.0274658203125
1772462711212448000,3.616447998046875,-1.0037994384765625,-0.0101776123046875,0.028717041015625
1772462711222495700,3.626495849609375,-1.001373291015625,-0.0112457275390625,0.0285491943359375
1772462711232545000,3.636544921875,-1.0006561279296875,-0.0111846923828125,0.0291595458984375
1772462711242592800,3.6465927734375,-1.0030517578125,-0.01007080078125,0.029022216796875
1772462711252641000,3.65664111328125,-1.0036468505859375,-0.010772705078125,0.02734375
1772462711262689800,3.666689697265625,-1.002655029296875,-0.009857177734375,0.029052734375
1772462711272738000,3.676738037109375,-1.000640869140625,-0.009490966796875,0.0286407470703125
1772462711282785800,3.686785888671875,-1.0017547607421875,-0.01068115234375,0.027740478515625
1772462711292835000,3.6968349609375,-1.0032806396484375,-0.010772705078125,0.029205322265625
1772462711302882800,3.7068828125,-1.0026702880859375,-0.01055908203125,0.0290374755859375
1772462711312930800,3.716930908203125,-1.00079345703125,-0.0109405517578125,0.028045654296875
1772462711322979800,3.726979736328125,-1.001922607421875,-0.0107879638671875,0.0287628173828125
1772462711333027800,3.73702783203125,-1.001983642578125,-0.0108642578125,0.0287628173828125
1772462711343076000,3.747076171875,-1.003265380859375,-0.010986328125,0.027862548828125
1772462711353124900,3.757124755859375,-1.0028076171875,-0.0103607177734375,0.0278472900390625
1772462711363173000,3.767173095703125,-1.001129150390625,-0.0107574462890625,0.02880859375
1772462711373220900,3.777220947265625,-1.00177001953125,-0.01068115234375,0.0286102294921875
1772462711383270100,3.787270263671875,-1.003387451171875,-0.0109100341796875,0.029266357421875
1772462711393318000,3.79731787109375,-1.002105712890625,-0.0112457275390625,0.0283966064453125
1772462711403366000,3.807365966796875,-1.001312255859375,-0.010833740234375,0.0282135009765625
1772462711413415000,3.817414794921875,-1.000823974609375,-0.0106658935546875,0.028900146484375
1772462711423463000,3.827462890625,-1.0019683837890625,-0.011627197265625,0.02801513671875
1772462711433511000,3.837510986328125,-1.0041656494140625,-0.01177978515625,0.0279388427734375
1772462711443560000,3.847559814453125,-1.001190185546875,-0.0113067626953125,0.028228759765625
1772462711453607700,3.857607666015625,-1.00079345703125,-0.0106353759765625,0.027557373046875
1772462711463656000,3.867656005859375,-1.0019989013671875,-0.010498046875,0.0280609130859375
1772462711473704700,3.87770458984375,-1.0026397705078125,-0.0112457275390625,0.02813720703125
1772462711483753000,3.8877529296875,-1.0039215087890625,-0.0106964111328125,0.0285797119140625
1772462711493801000,3.897801025390625,-1.0022125244140625,-0.010986328125,0.0293426513671875
1772462711503850000,3.90785009765625,-1.0016021728515625,-0.0100555419921875,0.02728271484375
1772462711513898000,3.91789794921875,-1.0015106201171875,-0.011077880859375,0.0289459228515625
1772462711523945700,3.92794580078125,-1.0026702880859375,-0.010345458984375,0.0288848876953125
1772462711533995000,3.9379951171875,-1.001983642578125,-0.0105743408203125,0.02850341796875
1772462711544042800,3.948042724609375,-1.0022125244140625,-0.01019287109375,0.028289794921875
1772462711554091000,3.958091064453125,-1.0034027099609375,-0.0104522705078125,0.0277099609375
1772462711564139800,3.968139892578125,-1.0025177001953125,-0.0106353759765625,0.02886962890625
1772462711574188000,3.97818798828125,-1.0026702880859375,-0.0109100341796875,0.0289154052734375
1772462711584236000,3.988236083984375,-1.0018768310546875,-0.01177978515625,0.029083251953125
1772462711594285000,3.99828515625,-1.0031280517578125,-0.0109100341796875,0.0282135009765625
1772462711604332800,4.008332763671875,-1.00286865234375,-0.0110321044921875,0.028411865234375
1772462711614380800,4.018380859375,-1.0026092529296875,-0.010528564453125,0.0286407470703125
1772462711624429800,4.028429931640625,-1.0025787353515625,-0.010162353515625,0.0279998779296875
1772462711634477800,4.038477783203125,-1.0018310546875,-0.00994873046875,0.028564453125
1772462711644526000,4.048526123046875,-1.002655029296875,-0.010833740234375,0.0287322998046875
1772462711654574800,4.058574951171875,-1.0029754638671875,-0.0107269287109375,0.0281524658203125
1772462711664623000,4.068623046875,-1.0026702880859375,-0.01019287109375,0.028717041015625
1772462711674670800,4.0786708984375,-1.00177001953125,-0.0101776123046875,0.0291290283203125
1772462711684719900,4.088719970703125,-1.00152587890625,-0.0107879638671875,0.028717041015625
1772462711694767900,4.098767822265625,-1.0024566650390625,-0.01141357421875,0.0287017822265625
1772462711704815900,4.10881591796875,-1.002044677734375,-0.011077880859375,0.0280303955078125
1772462711714865000,4.118864990234375,-1.0007781982421875,-0.0098419189453125,0.0287322998046875
1772462711724913000,4.128912841796875,-1.001556396484375,-0.010833740234375,0.0291595458984375
1772462711734961000,4.1389609375,-1.0029144287109375,-0.010162353515625,0.028961181640625
1772462711745010000,4.149010009765625,-1.00244140625,-0.01043701171875,0.028533935546875
1772462711755058000,4.159057861328125,-1.0031585693359375,-0.01007080078125,0.0295562744140625
1772462711765106000,4.16910595703125,-1.0027313232421875,-0.0098419189453125,0.0288238525390625
1772462711775155000,4.179155029296875,-1.0032501220703125,-0.0103759765625,0.0289154052734375
1772462711785203000,4.189202880859375,-1.002044677734375,-0.010223388671875,0.028564453125
1772462711795251000,4.1992509765625,-1.0018768310546875,-0.0104217529296875,0.0281829833984375
1772462711805300000,4.209300048828125,-1.0021820068359375,-0.0111083984375,0.0281219482421875
1772462711815348000,4.219347900390625,-1.0022430419921875,-0.010772705078125,0.028900146484375
1772462711825395700,4.229395751953125,-1.0030670166015625,-0.0100250244140625,0.029449462890625
1772462711835445000,4.239445068359375,-1.0020904541015625,-0.0104217529296875,0.0279541015625
1772462711845492700,4.24949267578125,-1.002593994140625,-0.010955810546875,0.0286865234375
1772462711855541000,4.259541015625,-1.0031585693359375,-0.0108489990234375,0.028594970703125
1772462711865589800,4.26958984375,-1.0020294189453125,-0.0110931396484375,0.02825927734375
1772462711875638000,4.279637939453125,-1.0022430419921875,-0.00994873046875,0.028472900390625
1772462711885686000,4.28968603515625,-1.00299072265625,-0.0108184814453125,0.029327392578125
1772462711895735000,4.299735107421875,-1.00225830078125,-0.01055908203125,0.028839111328125
1772462711905783000,4.309782958984375,-1.0027923583984375,-0.0104522705078125,0.0289306640625
1772462711915830800,4.319830810546875,-1.001983642578125,-0.0103607177734375,0.02789306640625
1772462711925880000,4.329880126953125,-1.00213623046875,-0.0102691650390625,0.0272979736328125
1772462711935927800,4.339927734375,-1.003204345703125,-0.0107879638671875,0.0284423828125
1772462711945976000,4.34997607421875,-1.0021209716796875,-0.01055908203125,0.0293426513671875
1772462711956024800,4.36002490234375,-1.002532958984375,-0.0108642578125,0.02880859375
1772462711966072800,4.37007275390625,-1.002777099609375,-0.0110015869140625,0.0286102294921875
1772462711976120800,4.380120849609375,-1.001983642578125,-0.010955810546875,0.0293731689453125
1772462711986169900,4.390169921875,-1.0028076171875,-0.011383056640625,0.029296875
1772462711996217900,4.4002177734375,-1.0019683837890625,-0.01068115234375,0.0289459228515625
1772462712006265900,4.410265869140625,-1.0012969970703125,-0.010162353515625,0.0284271240234375
1772462712016315000,4.42031494140625,-1.0016632080078125,-0.011199951171875,0.027618408203125
1772462712026363000,4.43036279296875,-1.0019989013671875,-0.0099639892578125,0.0279693603515625
1772462712036411000,4.440410888671875,-1.0024261474609375,-0.010040283203125,0.0291748046875
1772462712046460000,4.4504599609375,-1.0026092529296875,-0.010345458984375,0.028839111328125
1772462712056508000,4.4605078125,-1.0021209716796875,-0.0102996826171875,0.0291748046875
1772462712066556000,4.470555908203125,-1.002593994140625,-0.0106353759765625,0.0290985107421875
1772462712076605700,4.480605712890625,-1.002288818359375,-0.0105438232421875,0.0286102294921875
1772462712086653700,4.49065380859375,-1.0020599365234375,-0.0102081298828125,0.0281524658203125
1772462712096702000,4.500701904296875,-1.0019683837890625,-0.0110626220703125,0.0291595458984375
1772462712106750700,4.510750732421875,-1.0029754638671875,-0.0106964111328125,0.0286102294921875
1772462712116798700,4.520798828125,-1.00244140625,-0.0108184814453125,0.0282440185546875
1772462712126846700,4.5308466796875,-1.0017547607421875,-0.0110626220703125,0.0283966064453125
1772462712136895700,4.540895751953125,-1.0033721923828125,-0.0114288330078125,0.0283660888671875
1772462712146943700,4.55094384765625,-1.00274658203125,-0.01092529296875,0.0284576416015625
1772462712156991700,4.56099169921875,-1.0027313232421875,-0.0108489990234375,0.0290679931640625
1772462712167040800,4.571040771484375,-1.002471923828125,-0.0110931396484375,0.029052734375
1772462712177088800,4.5810888671875,-1.00274658203125,-0.011016845703125,0.0287322998046875
1772462712187136800,4.59113671875,-1.0021820068359375,-0.010467529296875,0.028472900390625
1772462712197185800,4.601185791015625,-1.002960205078125,-0.0114593505859375,0.0279693603515625
1772462712207233800,4.61123388671875,-1.00177001953125,-0.0115203857421875,0.02911376953125
1772462712217281800,4.62128173828125,-1.0025177001953125,-0.0106201171875,0.0294647216796875
1772462712227330600,4.63133056640625,-1.0019989013671875,-0.011016845703125,0.028594970703125
1772462712237378800,4.64137890625,-1.0016021728515625,-0.0106353759765625,0.029022216796875
1772462712247426800,4.6514267578125,-1.0025482177734375,-0.0108184814453125,0.0279541015625
1772462712257475800,4.661475830078125,-1.0024566650390625,-0.010589599609375,0.0284881591796875
1772462712267523800,4.67152392578125,-1.0026397705078125,-0.0105438232421875,0.0280914306640625
1772462712277571600,4.681571533203125,-1.0028076171875,-0.0102081298828125,0.0278778076171875
1772462712287620900,4.691620849609375,-1.003265380859375,-0.009918212890625,0.028656005859375
1772462712297668600,4.701668701171875,-1.002777099609375,-0.010589599609375,0.0296630859375
1772462712307716900,4.711716796875,-1.0020294189453125,-0.01068115234375,0.0294952392578125
1772462712317765600,4.721765625,-1.0009613037109375,-0.011016845703125,0.029510498046875
1772462712327813600,4.731813720703125,-1.0028839111328125,-0.011016845703125,0.029266357421875
1772462712337862000,4.74186181640625,-1.0030364990234375,-0.0103912353515625,0.02838134765625
1772462712347910700,4.75191064453125,-1.0033416748046875,-0.009765625,0.0276641845703125
1772462712357959000,4.761958984375,-1.002685546875,-0.0112457275390625,0.028594970703125
1772462712368006700,4.772006591796875,-1.0018768310546875,-0.00970458984375,0.029083251953125
1772462712378056000,4.782055908203125,-1.0022125244140625,-0.0091400146484375,0.0284271240234375
1772462712388103700,4.792103759765625,-1.0030364990234375,-0.0101776123046875,0.0285186767578125
1772462712398151700,4.802151611328125,-1.002410888671875,-0.010284423828125,0.0283355712890625
1772462712408200700,4.81220068359375,-1.001953125,-0.010528564453125,0.0290679931640625
1772462712418248700,4.822248779296875,-1.002532958984375,-0.010772705078125,0.0286102294921875
1772462712428296700,4.832296630859375,-1.0019073486328125,-0.0111236572265625,0.029052734375
1772462712438345700,4.842345703125,-1.0030670166015625,-0.0106048583984375,0.028656005859375
1772462712448393700,4.852393798828125,-1.002349853515625,-0.0107574462890625,0.0291290283203125
1772462712458441700,4.862441650390625,-1.002410888671875,-0.0110321044921875,0.0288848876953125
1772462712468490800,4.87249072265625,-1.001922607421875,-0.009857177734375,0.0284881591796875
1772462712478538800,4.882538818359375,-1.0023345947265625,-0.010528564453125,0.027740478515625
1772462712488586800,4.892586669921875,-1.002685546875,-0.0102081298828125,0.02825927734375
1772462712498635800,4.9026357421875,-1.0020904541015625,-0.0105133056640625,0.0281829833984375
1772462712508683800,4.912683837890625,-1.0023345947265625,-0.0105438232421875,0.0282135009765625
1772462712518731800,4.922731689453125,-1.0020294189453125,-0.0103912353515625,0.02923583984375
1772462712528780800,4.93278076171875,-1.0024871826171875,-0.0108795166015625,0.02899169921875
1772462712538828800,4.942828857421875,-1.0026702880859375,-0.0107879638671875,0.0287017822265625
1772462712548876800,4.952876708984375,-1.0023040771484375,-0.0102081298828125,0.028656005859375
1772462712558925600,4.962925537109375,-1.0034027099609375,-0.0101776123046875,0.0292205810546875
1772462712568973800,4.972973876953125,-1.002838134765625,-0.01055908203125,0.02813720703125
1772462712579021600,4.983021484375,-1.0009307861328125,-0.0108184814453125,0.0285797119140625
1772462712589070800,4.99307080078125,-1.0018310546875,-0.0101470947265625,0.0282135009765625
1772462712599118600,5.00311865234375,-1.002716064453125,-0.01092529296875,0.0286102294921875
1772462712609166800,5.013166748046875,-1.0033111572265625,-0.0100555419921875,0.0285491943359375
1772462712619215600,5.023215576171875,-1.0018310546875,-0.0105743408203125,0.029296875
1772462712629263600,5.033263671875,-1.001495361328125,-0.010955810546875,0.029693603515625
1772462712639312000,5.043311767578125,-1.0035400390625,-0.01055908203125,0.028900146484375
1772462712649360600,5.053360595703125,-1.0020751953125,-0.0111083984375,0.0277862548828125
1772462712659409000,5.063408935546875,-1.0023193359375,-0.01055908203125,0.02886962890625
1772462712669456600,5.07345654296875,-1.00238037109375,-0.0107879638671875,0.02813720703125
1772462712679506000,5.083505859375,-1.0032196044921875,-0.010986328125,0.0279541015625
1772462712689553700,5.0935537109375,-1.003936767578125,-0.0103759765625,0.028228759765625
1772462712699601700,5.1036015625,-1.002655029296875,-0.01104736328125,0.0284576416015625
1772462712709650700,5.113650634765625,-1.001861572265625,-0.0117034912109375,0.0285491943359375
1772462712719698700,5.12369873046875,-1.0019073486328125,-0.0105743408203125,0.028472900390625
1772462712729747000,5.133746826171875,-1.0031585693359375,-0.0098419189453125,0.02874755859375
1772462712739795700,5.143795654296875,-1.0034637451171875,-0.0105743408203125,0.0286407470703125
1772462712749843700,5.15384375,-1.0026397705078125,-0.009979248046875,0.027374267578125
1772462712759891700,5.1638916015625,-1.0018768310546875,-0.0104827880859375,0.0275726318359375
1772462712769940700,5.173940673828125,-1.0021820068359375,-0.0109405517578125,0.0277862548828125
1772462712779988700,5.18398876953125,-1.002838134765625,-0.0105438232421875,0.028472900390625
1772462712790036700,5.19403662109375,-1.0022125244140625,-0.0099945068359375,0.028656005859375
1772462712800085800,5.204085693359375,-1.001678466796875,-0.00994873046875,0.0289154052734375
1772462712810133800,5.2141337890625,-1.0018768310546875,-0.010162353515625,0.02874755859375
1772462712820181800,5.224181640625,-1.0023956298828125,-0.01116943359375,0.0284423828125
1772462712830230800,5.234230712890625,-1.0029296875,-0.0100250244140625,0.028472900390625
1772462712840278500,5.244278564453125,-1.0019989013671875,-0.0096435546875,0.029937744140625
1772462712850326800,5.254326904296875,-1.0018768310546875,-0.0110321044921875,0.029327392578125
1772462712860375600,5.26437548828125,-1.00201416015625,-0.0107574462890625,0.029266357421875
1772462712870423800,5.274423828125,-1.002197265625,-0.0099945068359375,0.0284881591796875
1772462712880471800,5.284471923828125,-1.002288818359375,-0.010162353515625,0.0288238525390625
1772462712890520800,5.294520751953125,-1.0016937255859375,-0.0104827880859375,0.0287017822265625
1772462712900568800,5.30456884765625,-1.0027618408203125,-0.010162353515625,0.029052734375
1772462712910616600,5.314616455078125,-1.0030517578125,-0.0101165771484375,0.0286712646484375
1772462712920665900,5.324665771484375,-1.00189208984375,-0.0104217529296875,0.0289306640625
1772462712930713600,5.334713623046875,-1.0016326904296875,-0.0101318359375,0.02960205078125
1772462712940761900,5.344761962890625,-1.0022430419921875,-0.01007080078125,0.0284881591796875
1772462712950810600,5.354810546875,-1.00286865234375,-0.0106201171875,0.0287322998046875
1772462712960859000,5.36485888671875,-1.0033721923828125,-0.01153564453125,0.0286712646484375
1772462712970907600,5.37490771484375,-1.0014495849609375,-0.0108642578125,0.02972412109375
1772462712980956000,5.384955810546875,-1.001373291015625,-0.0109100341796875,0.0282135009765625
1772462712991003600,5.395003662109375,-1.00177001953125,-0.0095672607421875,0.02880859375
1772462713001051600,5.4050517578125,-1.0036163330078125,-0.010955810546875,0.029205322265625
1772462713011100700,5.4151005859375,-1.002288818359375,-0.0098876953125,0.0283050537109375
1772462713021148700,5.425148681640625,-1.0017242431640625,-0.0102081298828125,0.028656005859375
1772462713031197000,5.435197021484375,-1.0013275146484375,-0.0114898681640625,0.029022216796875
1772462713041245700,5.44524560546875,-1.002166748046875,-0.01153564453125,0.028961181640625
1772462713051294000,5.4552939453125,-1.0021209716796875,-0.0111083984375,0.029266357421875
1772462713061342700,5.4653427734375,-1.00225830078125,-0.0110931396484375,0.028472900390625
1772462713071390700,5.475390625,-1.0019378662109375,-0.0117034912109375,0.02764892578125
1772462713081438000,5.48543798828125,-1.0016326904296875,-0.01055908203125,0.02801513671875
1772462713091486700,5.49548681640625,-1.0025482177734375,-0.0098724365234375,0.0279388427734375
1772462713101534700,5.50553466796875,-1.003082275390625,-0.0099334716796875,0.0281219482421875
1772462713111582700,5.515582763671875,-1.002960205078125,-0.0107574462890625,0.0284576416015625
1772462713121631700,5.5256318359375,-1.0025787353515625,-0.0103607177734375,0.02947998046875
1772462713131679700,5.5356796875,-1.0028228759765625,-0.010711669921875,0.0280609130859375
1772462713141727700,5.545727783203125,-1.00323486328125,-0.0102081298828125,0.0283355712890625
1772462713151776800,5.55577685546875,-1.002044677734375,-0.0107879638671875,0.0281829833984375
1772462713161824800,5.56582470703125,-1.0019378662109375,-0.011383056640625,0.0298004150390625
1772462713171872800,5.575872802734375,-1.000885009765625,-0.01068115234375,0.0293426513671875
1772462713181921800,5.585921875,-1.0015106201171875,-0.0107879638671875,0.029022216796875
1772462713191969800,5.5959697265625,-1.00360107421875,-0.0108795166015625,0.0288543701171875
1772462713202017800,5.606017822265625,-1.0023193359375,-0.0103607177734375,0.028717041015625
1772462713212066800,5.61606689453125,-1.001617431640625,-0.010162353515625,0.0287017822265625
1772462713222114800,5.62611474609375,-1.0014801025390625,-0.010498046875,0.0278472900390625
1772462713232162800,5.636162841796875,-1.002838134765625,-0.01123046875,0.0287322998046875
1772462713242211800,5.6462119140625,-1.0028839111328125,-0.010772705078125,0.0281982421875
1772462713252259800,5.656259765625,-1.0022430419921875,-0.0104522705078125,0.0293731689453125
1772462713262307800,5.666307861328125,-1.0026092529296875,-0.0109100341796875,0.02838134765625
1772462713272356900,5.67635693359375,-1.0022735595703125,-0.0107269287109375,0.0290069580078125
1772462713282404900,5.68640478515625,-1.0009918212890625,-0.010284423828125,0.0283660888671875
1772462713292452900,5.696452880859375,-1.002197265625,-0.010650634765625,0.028106689453125
1772462713302501600,5.706501708984375,-1.0030670166015625,-0.01019287109375,0.0286407470703125
1772462713312550000,5.7165498046875,-1.0033416748046875,-0.0103912353515625,0.0291595458984375
1772462713322597600,5.72659765625,-1.0024871826171875,-0.010711669921875,0.0285186767578125
1772462713332647000,5.73664697265625,-1.0019378662109375,-0.010406494140625,0.0273895263671875
1772462713342694700,5.746694580078125,-1.00244140625,-0.010650634765625,0.02874755859375
1772462713352742700,5.75674267578125,-1.0013885498046875,-0.010589599609375,0.0280914306640625
1772462713362791700,5.766791748046875,-1.00244140625,-0.0112457275390625,0.0283203125
1772462713372839700,5.776839599609375,-1.0022735595703125,-0.0109710693359375,0.0286102294921875
1772462713382888000,5.786887939453125,-1.002197265625,-0.010345458984375,0.02862548828125
1772462713392936700,5.796936767578125,-1.0014801025390625,-0.010406494140625,0.028350830078125
1772462713402985000,5.80698486328125,-1.0026092529296875,-0.0101470947265625,0.0289154052734375
1772462713413032700,5.81703271484375,-1.0032501220703125,-0.010833740234375,0.028411865234375
1772462713423082000,5.82708203125,-1.0012969970703125,-0.0115203857421875,0.02838134765625
1772462713433129700,5.837129638671875,-1.00164794921875,-0.011505126953125,0.0291900634765625
1772462713443177700,5.847177734375,-1.0036163330078125,-0.0111846923828125,0.0287322998046875
1772462713453226800,5.857226806640625,-1.0040740966796875,-0.011749267578125,0.028594970703125
1772462713463274800,5.867274658203125,-1.0020599365234375,-0.0111541748046875,0.029052734375
1772462713473322800,5.87732275390625,-1.0013427734375,-0.011016845703125,0.029052734375
1772462713483371800,5.887371826171875,-1.0016937255859375,-0.010223388671875,0.0281219482421875
1772462713493419800,5.897419677734375,-1.0028228759765625,-0.01025390625,0.0282745361328125
1772462713503467800,5.9074677734375,-1.002166748046875,-0.0103607177734375,0.0295867919921875
1772462713513516800,5.917516845703125,-1.002105712890625,-0.00958251953125,0.0288543701171875
1772462713523564800,5.927564697265625,-1.0029144287109375,-0.0106658935546875,0.02783203125
1772462713533612800,5.93761279296875,-1.0024261474609375,-0.0108795166015625,0.0281982421875
1772462713543661800,5.947661865234375,-1.0022430419921875,-0.0101470947265625,0.02899169921875
1772462713553709800,5.957709716796875,-1.00238037109375,-0.0106658935546875,0.029205322265625
1772462713563757800,5.9677578125,-1.00299072265625,-0.0111236572265625,0.0283966064453125
1772462713573806800,5.977806884765625,-1.0022430419921875,-0.010223388671875,0.029144287109375
1772462713583854600,5.9878544921875,-1.0025177001953125,-0.0112762451171875,0.028594970703125
1772462713593902800,5.99790283203125,-1.0027923583984375,-0.0104522705078125,0.028350830078125
1772462713603951600,6.00795166015625,-1.0029754638671875,-0.010894775390625,0.0283355712890625
1772462713613999900,6.017999755859375,-1.00250244140625,-0.010955810546875,0.0291290283203125
1772462713624047900,6.0280478515625,-1.0028076171875,-0.0107269287109375,0.028564453125
1772462713634097000,6.038096923828125,-1.0030670166015625,-0.0106658935546875,0.0288848876953125
1772462713644145000,6.048144775390625,-1.003570556640625,-0.0109100341796875,0.02880859375
1772462713654192600,6.058192626953125,-1.0016326904296875,-0.0107269287109375,0.028717041015625
1772462713664241700,6.06824169921875,-1.0038299560546875,-0.010406494140625,0.0288543701171875
1772462713674289700,6.07828955078125,-1.0027923583984375,-0.0104522705078125,0.0292205810546875
1772462713684338000,6.088337890625,-1.0018310546875,-0.0107574462890625,0.028411865234375
1772462713694386700,6.09838671875,-1.0023345947265625,-0.010223388671875,0.02801513671875
1772462713704435000,6.10843505859375,-1.002960205078125,-0.009552001953125,0.0281829833984375
1772462713714482700,6.118482666015625,-1.0019989013671875,-0.010345458984375,0.0286407470703125
1772462713724532000,6.128531982421875,-1.002593994140625,-0.0107421875,0.0282745361328125
1772462713734579700,6.138579833984375,-1.003082275390625,-0.0103302001953125,0.028717041015625
1772462713744627700,6.148627685546875,-1.0024566650390625,-0.011322021484375,0.029632568359375
1772462713754676700,6.1586767578125,-1.0012664794921875,-0.0111846923828125,0.0291748046875
1772462713764724700,6.168724853515625,-1.0015716552734375,-0.010833740234375,0.0281219482421875
1772462713774773000,6.17877294921875,-1.002197265625,-0.0099029541015625,0.028228759765625
1772462713784821800,6.18882177734375,-1.003570556640625,-0.0102691650390625,0.02850341796875
1772462713794870000,6.1988701171875,-1.001373291015625,-0.01055908203125,0.028167724609375
1772462713804917800,6.208917724609375,-1.0005340576171875,-0.010772705078125,0.027923583984375
1772462713814966800,6.218966796875,-1.0032196044921875,-0.011993408203125,0.02880859375
1772462713825014800,6.229014892578125,-1.0050506591796875,-0.0110015869140625,0.0282440185546875
1772462713835062800,6.239062744140625,-1.0032501220703125,-0.009765625,0.028076171875
1772462713845111800,6.24911181640625,-0.9989166259765625,-0.0101470947265625,0.02825927734375
1772462713855159800,6.259159912109375,-0.9999847412109375,-0.0109405517578125,0.028656005859375
1772462713865207600,6.26920751953125,-1.0040740966796875,-0.0116119384765625,0.02911376953125
1772462713875256800,6.2792568359375,-1.00445556640625,-0.0106353759765625,0.028717041015625
1772462713885304600,6.2893046875,-1.002197265625,-0.0111541748046875,0.028778076171875
1772462713895352800,6.299352783203125,-0.9982452392578125,-0.011566162109375,0.0285186767578125
1772462713905401600,6.309401611328125,-1.00115966796875,-0.0108642578125,0.0294189453125
1772462713915449900,6.319449951171875,-1.006103515625,-0.0110626220703125,0.02911376953125
1772462713925497900,6.329497802734375,-1.004547119140625,-0.010009765625,0.0284423828125
1772462713935547000,6.339546875,-0.999908447265625,-0.009765625,0.029388427734375
1772462713945595000,6.349594970703125,-0.9999847412109375,-0.0098876953125,0.029083251953125
1772462713955644000,6.359643798828125,-1.0066680908203125,-0.0106964111328125,0.0279541015625
1772462713965692000,6.36969189453125,-1.0056610107421875,-0.0099029541015625,0.0299072265625
1772462713975739600,6.37973974609375,-1.0002288818359375,-0.0095672607421875,0.030029296875
1772462713985788000,6.389787841796875,-0.998992919921875,-0.0107574462890625,0.028594970703125
1772462713995836700,6.399836669921875,-1.0035247802734375,-0.0111846923828125,0.0286865234375
1772462714005885000,6.409885009765625,-1.00634765625,-0.01092529296875,0.0276336669921875
1772462714015932700,6.4199326171875,-1.0057220458984375,-0.0103302001953125,0.0289154052734375
1772462714025981700,6.429981689453125,-1.002197265625,-0.0097198486328125,0.0289764404296875
1772462714036029700,6.44002978515625,-1.0009765625,-0.0107879638671875,0.0281982421875
1772462714046077700,6.45007763671875,-1.0010833740234375,-0.0108795166015625,0.0289154052734375
1772462714056126700,6.460126708984375,-1.003997802734375,-0.011322021484375,0.0289764404296875
1772462714066174700,6.4701748046875,-1.004180908203125,-0.0102996826171875,0.0290985107421875
1772462714076223000,6.480222900390625,-0.999847412109375,-0.0100860595703125,0.027618408203125
1772462714086272500,6.4902724609375,-1.0006256103515625,-0.0113983154296875,0.0283660888671875
1772462714096320500,6.500320556640625,-1.0029449462890625,-0.0112762451171875,0.028564453125
1772462714106369300,6.510369384765625,-1.0039825439453125,-0.0104217529296875,0.0290374755859375
1772462714116417300,6.520417236328125,-1.00250244140625,-0.0097503662109375,0.0287933349609375
1772462714126465300,6.53046533203125,-1.000640869140625,-0.0107574462890625,0.0277252197265625
1772462714136514300,6.540514404296875,-1.001434326171875,-0.010955810546875,0.0286102294921875
1772462714146562300,6.550562255859375,-1.005096435546875,-0.0103607177734375,0.0294647216796875
1772462714156610300,6.5606103515625,-1.00225830078125,-0.0105743408203125,0.029205322265625
1772462714166659300,6.570659423828125,-1.0003204345703125,-0.0103302001953125,0.0282135009765625
1772462714176707300,6.580707275390625,-1.0018768310546875,-0.011932373046875,0.0280914306640625
1772462714186755300,6.59075537109375,-1.0033416748046875,-0.0110321044921875,0.0285491943359375
1772462714196804400,6.600804443359375,-1.001800537109375,-0.01123046875,0.02899169921875
1772462714206852400,6.610852294921875,-0.99969482421875,-0.0108489990234375,0.0289306640625
1772462714216900400,6.620900390625,-0.996246337890625,-0.0115509033203125,0.029144287109375
1772462714226949400,6.630949462890625,-0.98968505859375,-0.0128173828125,0.0300140380859375
1772462714236997400,6.640997314453125,-1.0031585693359375,-0.01324462890625,0.029571533203125
1772462714247045400,6.65104541015625,-1.0323333740234375,-0.009521484375,0.028228759765625
1772462714257094400,6.661094482421875,-1.0267791748046875,-0.00482177734375,0.0276031494140625
1772462714267142400,6.671142333984375,-0.983734130859375,-0.004486083984375,0.0261688232421875
1772462714277190400,6.6811904296875,-0.9697723388671875,-0.009521484375,0.027557373046875
1772462714287239400,6.691239501953125,-1.0065765380859375,-0.01220703125,0.0303955078125
1772462714297287400,6.701287353515625,-1.031829833984375,-0.0147705078125,0.0303955078125
1772462714307335400,6.71133544921875,-1.0043487548828125,-0.0141448974609375,0.0286102294921875
1772462714317384400,6.721384521484375,-0.9724884033203125,-0.0120849609375,0.0273590087890625
1772462714327432400,6.731432373046875,-0.9878387451171875,-0.0097198486328125,0.0284271240234375
1772462714337480200,6.741480224609375,-1.0242156982421875,-0.0081024169921875,0.0313568115234375
1772462714347529500,6.751529541015625,-1.0240020751953125,-0.01055908203125,0.0298309326171875
1772462714357577200,6.7615771484375,-0.994140625,-0.0102996826171875,0.0263671875
1772462714367625500,6.77162548828125,-0.984130859375,-0.0105743408203125,0.02606201171875
1772462714377674200,6.78167431640625,-1.002410888671875,-0.00994873046875,0.030029296875
1772462714387722200,6.79172216796875,-1.0176239013671875,-0.00970458984375,0.03131103515625
1772462714397770500,6.8017705078125,-1.0048828125,-0.0091094970703125,0.0281982421875
1772462714407819300,6.8118193359375,-0.9902191162109375,-0.010345458984375,0.026763916015625
1772462714417867500,6.821867431640625,-0.9963226318359375,-0.01220703125,0.0263519287109375
1772462714427915300,6.831915283203125,-1.01043701171875,-0.0124359130859375,0.028594970703125
1772462714437964500,6.841964599609375,-1.0102996826171875,-0.0125274658203125,0.0329132080078125
1772462714448012300,6.85201220703125,-0.9972381591796875,-0.01251220703125,0.0318145751953125
1772462714458060300,6.862060302734375,-0.993408203125,-0.0121917724609375,0.028167724609375
1772462714468109300,6.872109375,-1.0039520263671875,-0.0113677978515625,0.0276336669921875
1772462714478157300,6.8821572265625,-1.01116943359375,-0.0093841552734375,0.0274658203125
1772462714488205300,6.892205322265625,-1.0039520263671875,-0.00787353515625,0.028961181640625
1772462714498254300,6.90225439453125,-0.99530029296875,-0.0099639892578125,0.0282135009765625
1772462714508302300,6.91230224609375,-0.997894287109375,-0.0115814208984375,0.0265350341796875
1772462714518350300,6.922350341796875,-1.0064849853515625,-0.0125885009765625,0.0287017822265625
1772462714528399400,6.9323994140625,-1.0068359375,-0.0124664306640625,0.0302581787109375
1772462714538447400,6.942447265625,-0.999664306640625,-0.0117645263671875,0.029632568359375
1772462714548495400,6.952495361328125,-0.9985198974609375,-0.0112762451171875,0.02838134765625
1772462714558544400,6.96254443359375,-1.002471923828125,-0.0109100341796875,0.0268402099609375
1772462714568592400,6.97259228515625,-1.005126953125,-0.0095367431640625,0.029998779296875
1772462714578640400,6.982640380859375,-1.0025482177734375,-0.0094146728515625,0.0295867919921875
1772462714588689400,6.992689453125,-0.9997406005859375,-0.0099639892578125,0.0291595458984375
1772462714598737400,7.0027373046875,-1.0006561279296875,-0.0114593505859375,0.0283660888671875
1772462714608785400,7.012785400390625,-1.0046844482421875,-0.0112457275390625,0.029449462890625
1772462714618834200,7.022834228515625,-1.0050811767578125,-0.011260986328125,0.0302581787109375
1772462714628882400,7.03288232421875,-1.00201416015625,-0.0115509033203125,0.02886962890625
1772462714638930400,7.042930419921875,-1.0001373291015625,-0.0108184814453125,0.0274810791015625
1772462714648979500,7.0529794921875,-1.0015106201171875,-0.0108795166015625,0.0289459228515625
1772462714659027500,7.06302734375,-1.003265380859375,-0.0100555419921875,0.0297393798828125
1772462714669075200,7.0730751953125,-1.001556396484375,-0.01080322265625,0.029144287109375
1772462714679124500,7.08312451171875,-1.0018463134765625,-0.0105133056640625,0.028411865234375
1772462714689172200,7.093172119140625,-1.002288818359375,-0.010772705078125,0.0281524658203125
1772462714699221200,7.10322119140625,-1.0045928955078125,-0.0105743408203125,0.0285491943359375
1772462714709269200,7.113269287109375,-1.0041961669921875,-0.0108642578125,0.0289764404296875
1772462714719317500,7.1233173828125,-1.0024871826171875,-0.01190185546875,0.027557373046875
1772462714729365200,7.133365234375,-1.000518798828125,-0.0120849609375,0.0279083251953125
1772462714739414500,7.14341455078125,-1.0024566650390625,-0.0107269287109375,0.02923583984375
1772462714749462300,7.153462158203125,-1.0044708251953125,-0.0099334716796875,0.0293121337890625
1772462714759511600,7.163511474609375,-1.0031280517578125,-0.009979248046875,0.029388427734375
1772462714769559300,7.173559326171875,-1.0015106201171875,-0.01092529296875,0.0274505615234375
1772462714779607300,7.183607177734375,-1.0003814697265625,-0.0108489990234375,0.028045654296875
1772462714789656300,7.19365625,-1.0028839111328125,-0.0101776123046875,0.0299224853515625
1772462714799704300,7.203704345703125,-1.003875732421875,-0.0109100341796875,0.028961181640625
1772462714809752600,7.213752685546875,-1.000762939453125,-0.010711669921875,0.028167724609375
1772462714819801300,7.22380126953125,-0.999542236328125,-0.0110626220703125,0.02838134765625
1772462714829849600,7.233849609375,-1.0023193359375,-0.01104736328125,0.0291290283203125
1772462714839897300,7.2438974609375,-1.0056304931640625,-0.0102996826171875,0.028472900390625
1772462714849946400,7.2539462890625,-1.00347900390625,-0.010650634765625,0.027313232421875
1772462714859994400,7.263994384765625,-0.999114990234375,-0.01104736328125,0.028289794921875
1772462714870042400,7.27404248046875,-0.999847412109375,-0.010498046875,0.0289764404296875
1772462714880091400,7.28409130859375,-1.003082275390625,-0.010101318359375,0.0296173095703125
1772462714890139400,7.294139404296875,-1.00537109375,-0.0111236572265625,0.0289459228515625
1772462714900187100,7.304187255859375,-1.002838134765625,-0.0120086669921875,0.02874755859375
1772462714910236400,7.314236328125,-1.0017852783203125,-0.01141357421875,0.02880859375
1772462714920284200,7.3242841796875,-1.0027923583984375,-0.0115203857421875,0.0281829833984375
1772462714930332400,7.33433251953125,-1.003570556640625,-0.011016845703125,0.02899169921875
1772462714940381200,7.344381103515625,-1.002899169921875,-0.010650634765625,0.0285491943359375
1772462714950429400,7.354429443359375,-0.9998931884765625,-0.010894775390625,0.0283050537109375
1772462714960477400,7.3644775390625,-1.0025482177734375,-0.0106048583984375,0.0285491943359375
1772462714970526500,7.3745263671875,-1.0036773681640625,-0.0105743408203125,0.0280609130859375
1772462714980574500,7.384574462890625,-1.003387451171875,-0.0108642578125,0.0274810791015625
1772462714990622200,7.394622314453125,-1.0032806396484375,-0.010894775390625,0.02838134765625
1772462715000671500,7.40467138671875,-1.0012664794921875,-0.011016845703125,0.028900146484375
1772462715010719200,7.41471923828125,-1.0018463134765625,-0.0112762451171875,0.02850341796875
1772462715020767500,7.424767578125,-1.00360107421875,-0.011932373046875,0.028472900390625
1772462715030816300,7.434816162109375,-1.003082275390625,-0.0108489990234375,0.027679443359375
1772462715040864500,7.444864501953125,-1.0031280517578125,-0.01171875,0.028106689453125
1772462715050912300,7.454912353515625,-1.0010833740234375,-0.0100860595703125,0.0282745361328125
1772462715060961500,7.46496142578125,-1.003143310546875,-0.010009765625,0.0276947021484375
1772462715071009300,7.47500927734375,-1.0030364990234375,-0.010528564453125,0.0277862548828125
1772462715081057000,7.48505712890625,-1.0023193359375,-0.0104217529296875,0.028717041015625
1772462715091106000,7.49510595703125,-1.001434326171875,-0.0115966796875,0.02935791015625
1772462715101154000,7.505154052734375,-1.0009002685546875,-0.01190185546875,0.02935791015625
1772462715111202000,7.5152021484375,-1.0024871826171875,-0.0115966796875,0.0289154052734375
1772462715121251000,7.5252509765625,-1.00347900390625,-0.0099334716796875,0.0287322998046875
1772462715131299000,7.535299072265625,-1.0021820068359375,-0.01025390625,0.028717041015625
1772462715141346800,7.545346923828125,-1.0010528564453125,-0.0111083984375,0.0281982421875
1772462715151396000,7.55539599609375,-1.0029449462890625,-0.0108489990234375,0.02813720703125
1772462715161443800,7.56544384765625,-1.003082275390625,-0.01129150390625,0.028167724609375
1772462715171492000,7.5754921875,-1.0022735595703125,-0.01031494140625,0.02911376953125
1772462715181540900,7.585540771484375,-1.0016632080078125,-0.010040283203125,0.029205322265625
1772462715191588900,7.5955888671875,-1.002044677734375,-0.010833740234375,0.0286712646484375
1772462715201637000,7.60563720703125,-1.0029296875,-0.01202392578125,0.0292816162109375
1772462715211686000,7.615685791015625,-1.0027618408203125,-0.0114898681640625,0.0288543701171875
1772462715221734100,7.625734130859375,-1.0020751953125,-0.0110931396484375,0.0285491943359375
1772462715231782000,7.635781982421875,-1.0008697509765625,-0.011260986328125,0.0287933349609375
1772462715241831200,7.6458310546875,-1.0018157958984375,-0.0104217529296875,0.028533935546875
1772462715251879000,7.65587890625,-1.002716064453125,-0.0102691650390625,0.0283203125
1772462715261928200,7.66592822265625,-1.00372314453125,-0.0098114013671875,0.0276336669921875
1772462715271976000,7.675975830078125,-1.0020599365234375,-0.0103302001953125,0.028076171875
1772462715282024000,7.68602392578125,-1.0016326904296875,-0.0108795166015625,0.0290069580078125
1772462715292072000,7.696072021484375,-1.0017852783203125,-0.0107879638671875,0.029327392578125
1772462715302121000,7.706120849609375,-1.0020599365234375,-0.01092529296875,0.0290374755859375
1772462715312169000,7.7161689453125,-1.003204345703125,-0.0106201171875,0.028778076171875
1772462715322218000,7.726218017578125,-1.002410888671875,-0.0104522705078125,0.0286712646484375
1772462715332266000,7.736265869140625,-1.003021240234375,-0.0101318359375,0.0276947021484375
1772462715342314000,7.74631396484375,-1.0028839111328125,-0.0105438232421875,0.0271148681640625
1772462715352363000,7.756363037109375,-1.002227783203125,-0.0104217529296875,0.027984619140625
1772462715362411000,7.766410888671875,-1.0027008056640625,-0.0104522705078125,0.0286407470703125
1772462715372459000,7.776458984375,-1.0019378662109375,-0.0111846923828125,0.0279998779296875
1772462715382508000,7.786508056640625,-1.0019073486328125,-0.0116729736328125,0.029815673828125
1772462715392556000,7.79655615234375,-1.001861572265625,-0.01123046875,0.029998779296875
1772462715402604000,7.80660400390625,-1.00347900390625,-0.0117645263671875,0.0295867919921875
1772462715412653000,7.816653076171875,-1.0021820068359375,-0.01129150390625,0.0289306640625
1772462715422700800,7.82670068359375,-1.0025634765625,-0.0099029541015625,0.0285797119140625
1772462715432749000,7.8367490234375,-1.0024871826171875,-0.0107421875,0.02880859375
1772462715442797800,7.8467978515625,-1.0012359619140625,-0.0103912353515625,0.02880859375
1772462715452846000,7.85684619140625,-1.0014495849609375,-0.01031494140625,0.02789306640625
1772462715462894000,7.86689404296875,-1.00299072265625,-0.0105133056640625,0.028717041015625
1772462715472943000,7.876943115234375,-1.0023345947265625,-0.0112152099609375,0.028717041015625
1772462715482991000,7.8869912109375,-1.0018463134765625,-0.010833740234375,0.0285491943359375
1772462715493038800,7.897038818359375,-1.001861572265625,-0.0103607177734375,0.0290679931640625
1772462715503087900,7.907087890625,-1.0022735595703125,-0.010528564453125,0.029449462890625
1772462715513135900,7.917135986328125,-1.0033721923828125,-0.0102081298828125,0.029693603515625
1772462715523184000,7.92718408203125,-1.0009002685546875,-0.01116943359375,0.0284576416015625
1772462715533233000,7.93723291015625,-1.001617431640625,-0.01007080078125,0.0286712646484375
1772462715543281200,7.94728125,-1.0026092529296875,-0.0099639892578125,0.028167724609375
1772462715553329000,7.957328857421875,-1.00164794921875,-0.01031494140625,0.0286865234375
1772462715563378200,7.967378173828125,-1.0019989013671875,-0.0107879638671875,0.0286407470703125
1772462715573426000,7.977426025390625,-1.0013885498046875,-0.01116943359375,0.029388427734375
1772462715583474000,7.987473876953125,-1.0022125244140625,-0.0109100341796875,0.0282745361328125
1772462715593523000,7.99752294921875,-1.0034942626953125,-0.0116424560546875,0.0286407470703125
1772462715603571000,8.007571044921875,-1.0025787353515625,-0.0111236572265625,0.0279693603515625
1772462715613619200,8.017619140625,-1.002105712890625,-0.00994873046875,0.027740478515625
1772462715623668000,8.02766796875,-1.0020751953125,-0.0099029541015625,0.0285491943359375
1772462715633716200,8.03771630859375,-1.0016326904296875,-0.0103912353515625,0.029052734375
1772462715643764000,8.047763916015626,-1.00299072265625,-0.0107421875,0.028289794921875
1772462715653813000,8.05781298828125,-1.002838134765625,-0.0106201171875,0.0278167724609375
1772462715663861000,8.067861083984376,-1.00238037109375,-0.010223388671875,0.028961181640625
1772462715673909000,8.077908935546875,-1.0026092529296875,-0.01043701171875,0.028656005859375
1772462715683958000,8.0879580078125,-1.0021820068359375,-0.0112762451171875,0.0290374755859375
1772462715694006000,8.098006103515624,-1.00238037109375,-0.0104217529296875,0.02947998046875
1772462715704053800,8.1080537109375,-1.0024871826171875,-0.010772705078125,0.0283050537109375
1772462715714103000,8.11810302734375,-1.0032501220703125,-0.0099945068359375,0.0293731689453125
1772462715724150800,8.12815087890625,-1.001251220703125,-0.010986328125,0.0289459228515625
1772462715734199000,8.138198974609375,-1.00042724609375,-0.0111083984375,0.029266357421875
1772462715744247800,8.148247802734375,-1.001708984375,-0.01043701171875,0.029205322265625
1772462715754296000,8.158296142578125,-1.0030059814453125,-0.0112152099609375,0.0283355712890625
1772462715764344000,8.168343994140624,-1.00323486328125,-0.0113525390625,0.028839111328125
1772462715774393000,8.17839306640625,-1.001434326171875,-0.011260986328125,0.02935791015625
1772462715784441000,8.188441162109376,-1.001861572265625,-0.0105743408203125,0.0282440185546875
1772462715794488800,8.19848876953125,-1.002899169921875,-0.0108184814453125,0.0290069580078125
1772462715804538000,8.2085380859375,-1.003662109375,-0.010498046875,0.0288848876953125
1772462715814585900,8.2185859375,-1.002288818359375,-0.0102081298828125,0.0286712646484375
1772462715824634000,8.228634033203125,-1.001922607421875,-0.010284423828125,0.0290985107421875
1772462715834683000,8.238682861328124,-1.002288818359375,-0.0102081298828125,0.0291290283203125
1772462715844731100,8.248731201171875,-1.0035552978515625,-0.010467529296875,0.029083251953125
1772462715854779000,8.25877880859375,-1.00213623046875,-0.0106201171875,0.0290679931640625
1772462715864828200,8.268828125,-1.001129150390625,-0.0097198486328125,0.02886962890625
1772462715874876000,8.2788759765625,-1.0035247802734375,-0.0100860595703125,0.0287322998046875
1772462715884925000,8.288925048828125,-1.0034332275390625,-0.0106658935546875,0.028045654296875
1772462715894973000,8.298972900390625,-1.00244140625,-0.011444091796875,0.02801513671875
1772462715905021000,8.30902099609375,-1.001708984375,-0.0105438232421875,0.0278472900390625
1772462715915070000,8.319070068359375,-1.00347900390625,-0.0118408203125,0.0284576416015625
1772462715925118000,8.329117919921876,-1.0032501220703125,-0.01092529296875,0.0289154052734375
1772462715935166000,8.339166015625,-1.0020294189453125,-0.0108795166015625,0.02923583984375
1772462715945215000,8.349215087890625,-1.0013427734375,-0.011322021484375,0.0283966064453125
1772462715955263000,8.359262939453124,-1.0023651123046875,-0.0108642578125,0.0287628173828125
1772462715965311000,8.36931103515625,-1.00341796875,-0.0105743408203125,0.02935791015625
1772462715975360000,8.379360107421874,-1.00360107421875,-0.00970458984375,0.02935791015625
1772462715985408000,8.389407958984375,-1.0013580322265625,-0.0110321044921875,0.0284423828125
1772462715995456000,8.3994560546875,-1.0008392333984375,-0.0106048583984375,0.0283966064453125
1772462716005505000,8.409505126953125,-1.0021209716796875,-0.0113372802734375,0.0286865234375
1772462716015553000,8.419552978515625,-1.0033111572265625,-0.01080322265625,0.0293121337890625
1772462716025601000,8.42960107421875,-1.00372314453125,-0.01116943359375,0.0291900634765625
1772462716035650000,8.439650146484375,-1.002227783203125,-0.0116729736328125,0.0286102294921875
1772462716045698000,8.449697998046876,-1.0014801025390625,-0.0113983154296875,0.0277862548828125
1772462716055746000,8.45974609375,-1.0025634765625,-0.0106048583984375,0.0286407470703125
1772462716065795000,8.469795166015626,-1.00347900390625,-0.010711669921875,0.029571533203125
1772462716075843000,8.479843017578125,-1.0023040771484375,-0.0105438232421875,0.0291595458984375
1772462716085890000,8.48989013671875,-1.0027618408203125,-0.0105133056640625,0.0284271240234375
1772462716095939000,8.49993896484375,-1.00238037109375,-0.0110321044921875,0.0286407470703125
1772462716105987000,8.509987060546875,-1.0019989013671875,-0.0110931396484375,0.02825927734375
1772462716116035300,8.520035400390626,-1.0022125244140625,-0.011199951171875,0.0286102294921875
1772462716126084000,8.530083984375,-1.0023193359375,-0.010498046875,0.0284271240234375
1772462716136132000,8.540132080078125,-1.002227783203125,-0.0108489990234375,0.028289794921875
1772462716146180000,8.55018017578125,-1.0023956298828125,-0.0107421875,0.0292816162109375
1772462716156229000,8.56022900390625,-1.0015716552734375,-0.010498046875,0.028228759765625
1772462716166277000,8.570277099609376,-1.003143310546875,-0.0106353759765625,0.02880859375
1772462716176325000,8.5803251953125,-1.00286865234375,-0.01019287109375,0.0284271240234375
1772462716186374100,8.5903740234375,-1.0030975341796875,-0.010986328125,0.028411865234375
1772462716196422100,8.600422119140624,-1.00067138671875,-0.010833740234375,0.0288848876953125
1772462716206470000,8.610469970703125,-1.0023651123046875,-0.01068115234375,0.02880859375
1772462716216519200,8.620519287109374,-1.0039825439453125,-0.0108184814453125,0.029052734375
1772462716226567000,8.63056689453125,-1.002349853515625,-0.010894775390625,0.02838134765625
1772462716236616200,8.6406162109375,-1.0013885498046875,-0.0105438232421875,0.0286102294921875
1772462716246664000,8.650663818359375,-1.0022430419921875,-0.010986328125,0.0289154052734375
1772462716256712200,8.660712158203125,-1.0035247802734375,-0.01055908203125,0.0279541015625
1772462716266761000,8.670760986328125,-1.00250244140625,-0.011627197265625,0.028594970703125
1772462716276809200,8.680809326171875,-1.0021820068359375,-0.0109405517578125,0.028564453125
1772462716286857200,8.690857177734374,-1.0021209716796875,-0.0104827880859375,0.02862548828125
1772462716296906200,8.70090625,-1.002655029296875,-0.0105438232421875,0.0282745361328125
1772462716306954200,8.710954345703126,-1.001800537109375,-0.011016845703125,0.0297393798828125
1772462716317002000,8.721001953125,-1.0023345947265625,-0.0106048583984375,0.0286712646484375
1772462716327051300,8.73105126953125,-1.001617431640625,-0.011077880859375,0.0284881591796875
1772462716337099000,8.74109912109375,-1.002288818359375,-0.0101470947265625,0.0278778076171875
1772462716347147300,8.751147216796875,-1.00189208984375,-0.0106201171875,0.02923583984375
1772462716357196000,8.761196044921874,-1.0017547607421875,-0.010467529296875,0.0291748046875
1772462716367244000,8.771244140625,-1.0021209716796875,-0.010406494140625,0.0290679931640625
1772462716377292000,8.7812919921875,-1.0028839111328125,-0.0111541748046875,0.028717041015625
1772462716387341000,8.791341064453125,-1.00152587890625,-0.0111541748046875,0.0283660888671875
1772462716397389000,8.80138916015625,-1.001708984375,-0.01055908203125,0.0274658203125
1772462716407437000,8.81143701171875,-1.0030059814453125,-0.0107269287109375,0.0282135009765625
1772462716417486000,8.821486083984375,-1.0028533935546875,-0.010284423828125,0.0284881591796875
1772462716427534000,8.8315341796875,-1.0035400390625,-0.0110015869140625,0.029083251953125
1772462716437582000,8.84158203125,-1.0020904541015625,-0.0109405517578125,0.0286102294921875
1772462716447631000,8.851631103515626,-1.002166748046875,-0.0110015869140625,0.02764892578125
1772462716457679000,8.86167919921875,-1.00201416015625,-0.0107574462890625,0.02947998046875
1772462716467727000,8.87172705078125,-1.00250244140625,-0.0111083984375,0.0284271240234375
1772462716477776100,8.881776123046874,-1.002349853515625,-0.010772705078125,0.0275115966796875
1772462716487824100,8.89182421875,-1.00238037109375,-0.0106353759765625,0.028717041015625
1772462716497872100,8.9018720703125,-1.0018463134765625,-0.0108184814453125,0.029449462890625
1772462716507921200,8.911921142578125,-1.0027923583984375,-0.0112152099609375,0.0290069580078125
1772462716517969200,8.92196923828125,-1.0029144287109375,-0.0113525390625,0.0286102294921875
1772462716528017200,8.93201708984375,-1.0024566650390625,-0.010986328125,0.0284881591796875
1772462716538066200,8.942066162109375,-1.00225830078125,-0.010772705078125,0.0287933349609375
1772462716548114200,8.9521142578125,-1.001678466796875,-0.0113525390625,0.0290679931640625
1772462716558162200,8.962162109375,-1.0034027099609375,-0.0105133056640625,0.0290679931640625
1772462716568211200,8.972211181640626,-1.0027923583984375,-0.0098419189453125,0.02886962890625
1772462716578259200,8.98225927734375,-1.0024871826171875,-0.0100250244140625,0.02874755859375
1772462716588308000,8.992307861328126,-1.0029144287109375,-0.009765625,0.02850341796875
1772462716598356000,9.00235595703125,-1.0023193359375,-0.0106964111328125,0.0283660888671875
1772462716608404200,9.012404296875,-1.00244140625,-0.011260986328125,0.0283660888671875
1772462716618453000,9.022452880859374,-1.0010528564453125,-0.0111083984375,0.02813720703125
1772462716628501200,9.032501220703125,-1.00128173828125,-0.0115509033203125,0.02935791015625
1772462716638549000,9.042549072265626,-1.00390625,-0.0111846923828125,0.029296875
1772462716648598300,9.052598388671875,-1.002685546875,-0.010772705078125,0.028564453125
1772462716658646000,9.06264599609375,-1.0017852783203125,-0.0101318359375,0.0282135009765625
1772462716668694000,9.072694091796874,-1.002349853515625,-0.010711669921875,0.0295867919921875
1772462716678743000,9.082742919921875,-1.000640869140625,-0.0111846923828125,0.0287322998046875
1772462716688791000,9.092791015625,-1.0006561279296875,-0.0106964111328125,0.0289459228515625
1772462716698839300,9.10283935546875,-1.003448486328125,-0.0110015869140625,0.029388427734375
1772462716708888000,9.11288818359375,-1.005523681640625,-0.0104522705078125,0.0293731689453125
1772462716718936300,9.122936279296875,-1.0027923583984375,-0.0112457275390625,0.028350830078125
1772462716728984000,9.132984130859375,-0.999267578125,-0.0102386474609375,0.0279998779296875
1772462716739033300,9.143033447265625,-1.0021514892578125,-0.009429931640625,0.028564453125
1772462716749081000,9.1530810546875,-1.006317138671875,-0.009979248046875,0.0283203125
1772462716759129000,9.163129150390626,-1.004974365234375,-0.0113067626953125,0.02947998046875
1772462716769178000,9.17317822265625,-0.9990386962890625,-0.0110015869140625,0.029266357421875
