time,seconds_elapsed,z,y,x
1772537152896514600,0.0695146484375,0.3383466303348541,0.13262036442756653,0.4426429271697998
1772537152906562600,0.0795625,0.9083259701728821,-0.11139310151338577,0.4062787890434265
1772537152916611300,0.089611328125,1.060701608657837,-0.3260257840156555,0.23667219281196594
1772537152926659600,0.09965966796875,0.9829493165016174,-0.6756476759910583,-0.07478316128253937
1772537152936707600,0.10970751953125,0.9034198522567749,-0.9015892148017883,-0.4054495096206665
1772537152946756600,0.119756591796875,0.9850984811782837,-0.8391695022583008,-0.6168584227561951
1772537152956804600,0.1298046875,1.1962608098983765,-0.5652045607566833,-0.7118970155715942
1772537152966852400,0.139852294921875,1.3817830085754395,-0.2944643795490265,-0.757936418056488
1772537152976901600,0.149901611328125,1.4548982381820679,0.18905088305473328,-0.6586210131645203
1772537152986949400,0.159949462890625,1.0712112188339233,0.6653399467468262,-0.4595036804676056
1772537152996997600,0.16999755859375,0.3652261793613434,0.7221880555152893,-0.46890756487846375
1772537153007045600,0.180045654296875,0.07124701887369156,0.08463206142187119,-0.5383686423301697
1772537153017094700,0.1900947265625,0.23734411597251892,-0.32475197315216064,-0.41809338331222534
1772537153027142400,0.200142333984375,0.3841671049594879,-0.30030548572540283,-0.26599225401878357
1772537153037190400,0.2101904296875,0.43419671058654785,-0.20760565996170044,-0.09608525037765503
1772537153047239400,0.220239501953125,0.3236158788204193,-0.047869253903627396,0.07701009511947632
1772537153057287400,0.230287353515625,0.14656147360801697,-0.06371666491031647,0.1983407884836197
1772537153067335700,0.240335693359375,0.023860326036810875,-0.26110589504241943,0.23511956632137299
1772537153077384400,0.250384521484375,-0.09218665212392807,-0.44582489132881165,0.19732265174388885
1772537153087428900,0.260428955078125,-0.28835776448249817,-0.7217579483985901,0.1466570794582367
1772537153097476600,0.2704765625,-0.3097253739833832,-0.956678032875061,0.08111722022294998
1772537153107526000,0.28052587890625,-0.2064674198627472,-0.8566334843635559,-0.029109682887792587
1772537153117573600,0.29057373046875,-0.051355864852666855,-0.6316032409667969,-0.04680478945374489
1772537153127622000,0.300621826171875,0.08784542977809906,-0.4769867956638336,-0.03795803338289261
1772537153137670700,0.310670654296875,0.19810189306735992,-0.44361287355422974,0.005358812864869833
1772537153147719000,0.320718994140625,0.2509896159172058,-0.47140002250671387,0.019478892907500267
1772537153157767000,0.330766845703125,0.22565309703350067,-0.43856003880500793,0.08865316957235336
1772537153167814700,0.340814697265625,0.10892941057682037,-0.340415894985199,0.22209404408931732
1772537153177864000,0.350864013671875,-0.04825461283326149,-0.19145411252975464,0.33432871103286743
1772537153187911700,0.36091162109375,-0.1849520057439804,-0.12843121588230133,0.4842332601547241
1772537153197960000,0.3709599609375,-0.35285258293151855,-0.23889140784740448,0.6942251324653625
1772537153208008700,0.3810087890625,-0.5264206528663635,-0.4525240659713745,0.8233668208122253
1772537153218056700,0.391056640625,-0.6426825523376465,-0.6949465274810791,0.8590835332870483
1772537153228104700,0.401104736328125,-0.6864995360374451,-0.8695074319839478,0.8625760078430176
1772537153238153700,0.41115380859375,-0.7191533446311951,-0.9660432934761047,0.8817662596702576
1772537153248201700,0.42120166015625,-0.7995491027832031,-0.9974057674407959,0.8752912878990173
1772537153258249700,0.431249755859375,-0.8638362288475037,-1.0013182163238525,0.776985228061676
1772537153268298800,0.441298828125,-0.836615264415741,-0.9943207502365112,0.5829113721847534
1772537153278346800,0.4513466796875,-0.7169399857521057,-0.853051483631134,0.3680456578731537
1772537153288394800,0.461394775390625,-0.574870228767395,-0.6054414510726929,0.1930924952030182
1772537153298442800,0.47144287109375,-0.49378761649131775,-0.4190446734428406,0.07160867005586624
1772537153308491800,0.48149169921875,-0.5243774652481079,-0.35342705249786377,0.08222856372594833
1772537153318539800,0.491539794921875,-0.521075427532196,-0.25207698345184326,0.2120257019996643
1772537153328587800,0.501587890625,-0.32920610904693604,-0.07837123423814774,0.3858558237552643
1772537153338636800,0.51163671875,0.009955961257219315,0.08614101260900497,0.5364924669265747
1772537153348684800,0.521684814453125,0.40017110109329224,0.1371234953403473,0.6146466732025146
1772537153358732800,0.53173291015625,0.7239981889724731,0.05465392395853996,0.6257451176643372
1772537153368781800,0.54178173828125,0.9060526490211487,-0.07693659514188766,0.6238550543785095
1772537153378829800,0.551829833984375,0.977682888507843,-0.133613720536232,0.6431262493133545
1772537153388877800,0.5618779296875,0.9942554831504822,-0.026992201805114746,0.6583182215690613
1772537153398926800,0.5719267578125,0.997931718826294,0.08925984054803848,0.6869317889213562
1772537153408974800,0.581974853515625,0.9886157512664795,0.17985977232456207,0.7857968211174011
1772537153419022800,0.59202294921875,0.9235232472419739,0.2717321813106537,0.8178879022598267
1772537153429072000,0.60207177734375,0.8602476119995117,0.2396690547466278,0.7826787829399109
1772537153439120000,0.612119873046875,0.7719638347625732,0.08185278624296188,0.605583131313324
1772537153449167600,0.622167724609375,0.6383697986602783,-0.14563682675361633,0.29587239027023315
1772537153459216000,0.6322158203125,0.4431622624397278,-0.27917784452438354,-0.02652828022837639
1772537153469264600,0.6422646484375,0.25614044070243835,-0.24462012946605682,-0.2658628225326538
1772537153479313000,0.65231298828125,0.1313266009092331,-0.15106727182865143,-0.36872023344039917
1772537153489361000,0.66236083984375,0.07802742719650269,-0.11569597572088242,-0.3103160560131073
1772537153499409700,0.67240966796875,0.1396058350801468,-0.19156010448932648,-0.1816033571958542
1772537153509458000,0.6824580078125,0.26767298579216003,-0.31271371245384216,-0.06733536720275879
1772537153519505700,0.692505615234375,0.4112038016319275,-0.3293139934539795,0.02593572624027729
1772537153529555000,0.702554931640625,0.5388770699501038,-0.22489702701568604,0.11017976701259613
1772537153539602700,0.712602783203125,0.5937320590019226,-0.04634326323866844,0.1908796727657318
1772537153549651000,0.72265087890625,0.5668378472328186,0.013674000278115273,0.26316291093826294
1772537153559699700,0.73269970703125,0.4542335569858551,-0.052079178392887115,0.3670150339603424
1772537153569747700,0.742747802734375,0.3282308876514435,-0.1518113613128662,0.4956744611263275
1772537153579795700,0.752795654296875,0.25374650955200195,-0.22637055814266205,0.6038856506347656
1772537153589844700,0.7628447265625,0.26214665174484253,-0.20229318737983704,0.6358640789985657
1772537153599892700,0.772892822265625,0.34765809774398804,-0.12560586631298065,0.5413607358932495
1772537153609940700,0.782940673828125,0.4526319205760956,-0.09919049590826035,0.29948896169662476
1772537153619988700,0.79298876953125,0.423048198223114,-0.09452064335346222,0.01350568886846304
1772537153630037800,0.803037841796875,0.4812640845775604,0.33243706822395325,-0.21642950177192688
1772537153640085800,0.813085693359375,0.6111233234405518,0.5965344905853271,-0.6573821306228638
1772537153650133800,0.8231337890625,0.6628088355064392,0.33633434772491455,-1.0706714391708374
1772537153660182800,0.833182861328125,0.622025191783905,0.18137991428375244,-1.2225126028060913
1772537153670230800,0.843230712890625,0.560160219669342,0.08937115967273712,-1.3020479679107666
1772537153680278800,0.85327880859375,0.44519317150115967,-0.031132353469729424,-1.2511816024780273
1772537153690327800,0.863327880859375,0.2672545909881592,-0.11996501684188843,-1.1031146049499512
1772537153700375800,0.873375732421875,0.06114324927330017,-0.14732128381729126,-1.0079619884490967
1772537153710423800,0.883423828125,-0.1928035467863083,-0.08182135969400406,-1.0037907361984253
1772537153720472800,0.893472900390625,-0.5072892904281616,0.06371453404426575,-1.059203028678894
1772537153730520800,0.903520751953125,-0.8421594500541687,0.11506320536136627,-1.1496365070343018
1772537153740568800,0.91356884765625,-1.1586790084838867,0.10467687994241714,-1.1646631956100464
1772537153750617900,0.923617919921875,-1.3845281600952148,0.12086863070726395,-0.9988822340965271
1772537153760665900,0.933665771484375,-1.4263818264007568,0.1907864660024643,-0.6114689707756042
1772537153770713900,0.9437138671875,-1.2298864126205444,0.18421004712581635,-0.10642710328102112
1772537153780761600,0.95376171875,-0.9014430046081543,0.062426358461380005,0.2723920941352844
1772537153790811000,0.963810791015625,-0.6205013394355774,-0.1072353795170784,0.32959601283073425
1772537153800858600,0.973858642578125,-0.44569918513298035,-0.30878740549087524,0.051654137670993805
1772537153810907000,0.983906982421875,-0.3324589133262634,-0.4752703905105591,-0.3746439218521118
1772537153820955600,0.99395556640625,-0.1817263811826706,-0.6201956272125244,-0.8118422627449036
1772537153831004000,1.00400390625,-0.02870221808552742,-0.7182625532150269,-1.1846299171447754
1772537153841052000,1.014052001953125,0.07653738558292389,-0.6781228184700012,-1.4042997360229492
1772537153851100700,1.0241005859375,0.16752535104751587,-0.5163701772689819,-1.4132479429244995
1772537153861149000,1.03414892578125,0.2824774980545044,-0.4398743212223053,-1.2546948194503784
1772537153871196700,1.04419677734375,0.34206733107566833,-0.48457759618759155,-0.9765292406082153
1772537153881246000,1.054245849609375,0.30978715419769287,-0.5959872007369995,-0.5682855248451233
1772537153891293700,1.064293701171875,0.2381529062986374,-0.6432926654815674,-0.08503473550081253
1772537153901341700,1.074341796875,0.16685663163661957,-0.6785140633583069,0.38911792635917664
1772537153911390000,1.084389892578125,0.11614444851875305,-0.766752302646637,0.8377923965454102
1772537153921438700,1.094438720703125,0.05823267996311188,-0.8619997501373291,1.2655847072601318
1772537153931486700,1.10448681640625,-0.022612635046243668,-0.9103097319602966,1.6354656219482422
1772537153941534700,1.11453466796875,-0.131147101521492,-0.8356512188911438,1.9386541843414307
1772537153951583700,1.124583740234375,-0.24283155798912048,-0.7645463943481445,2.1974287033081055
1772537153961631700,1.1346318359375,-0.30978474020957947,-0.6564585566520691,2.2929680347442627
1772537153971679700,1.1446796875,-0.2190559208393097,-0.39753058552742004,2.2147216796875
1772537153981728800,1.154728759765625,-0.09063296020030975,-0.08534099906682968,2.044827699661255
1772537153991776800,1.16477685546875,0.03272971510887146,0.16721215844154358,1.8116999864578247
1772537154001824800,1.17482470703125,0.15999366343021393,0.3231183886528015,1.5754389762878418
1772537154011873800,1.184873779296875,0.2718682587146759,0.41255295276641846,1.4063730239868164
1772537154021921800,1.194921875,0.3659217953681946,0.46574240922927856,1.2580621242523193
1772537154031969800,1.2049697265625,0.40100735425949097,0.48178979754447937,1.0982599258422852
1772537154042018800,1.215018798828125,0.32038867473602295,0.3998616635799408,0.9384228587150574
1772537154052066800,1.22506689453125,0.217239111661911,0.5126110911369324,0.7328489422798157
1772537154062114800,1.23511474609375,0.153957337141037,0.44799375534057617,0.32460764050483704
1772537154072162800,1.245162841796875,0.06380295008420944,0.23506924510002136,-0.13699807226657867
1772537154082211800,1.2552119140625,0.006602775305509567,0.10807161033153534,-0.5723098516464233
1772537154092263700,1.265263671875,0.08513806015253067,0.23652492463588715,-0.6860007047653198
1772537154102311700,1.275311767578125,0.28989601135253906,0.46521854400634766,-0.6477848887443542
1772537154112360700,1.285360595703125,0.33449915051460266,0.4126823842525482,-0.6793414950370789
1772537154122408700,1.29540869140625,0.2729681432247162,0.2096344530582428,-0.7920626997947693
1772537154132456700,1.305456787109375,0.15862533450126648,0.02852911315858364,-1.0107686519622803
1772537154142505700,1.315505615234375,-0.004618986509740353,0.02093723975121975,-1.2358683347702026
1772537154152553500,1.325553466796875,-0.1700311154127121,0.1355849951505661,-1.380177617073059
1772537154162601700,1.335601806640625,-0.3132636547088623,0.168356791138649,-1.4273853302001953
1772537154172650500,1.345650390625,-0.4572863280773163,0.17650233209133148,-1.3083702325820923
1772537154182698800,1.35569873046875,-0.5905061364173889,0.2608201503753662,-0.957047700881958
1772537154192746800,1.365746826171875,-0.6293497085571289,0.3928048014640808,-0.39766639471054077
1772537154202794500,1.37579443359375,-0.5506985783576965,0.46333035826683044,0.23581892251968384
1772537154212843800,1.38584375,-0.4348321557044983,0.27893495559692383,0.6878319382667542
1772537154222891500,1.3958916015625,-0.30475032329559326,-0.09600242972373962,0.8313286304473877
1772537154232939800,1.405939697265625,-0.1344451606273651,-0.3187553584575653,0.7326856851577759
1772537154242988500,1.415988525390625,0.07818987965583801,-0.2735564410686493,0.4985235035419464
1772537154253036800,1.426036865234375,0.28387540578842163,-0.16825026273727417,0.15377038717269897
1772537154263084500,1.43608447265625,0.42373421788215637,-0.1046273410320282,-0.2856343984603882
1772537154273133800,1.4461337890625,0.47115474939346313,0.005833387840539217,-0.7184473276138306
1772537154283181600,1.456181640625,0.45165640115737915,0.16259104013442993,-1.050162434577942
1772537154293229600,1.4662294921875,0.36251693964004517,0.28635427355766296,-1.1642115116119385
1772537154303278600,1.476278564453125,0.25800731778144836,0.2979065179824829,-1.0249217748641968
1772537154313326600,1.48632666015625,0.15785913169384003,0.12750576436519623,-0.6860060691833496
1772537154323374800,1.496374755859375,0.07721329480409622,-0.220302015542984,-0.24604599177837372
1772537154333423600,1.506423583984375,-0.04213041067123413,-0.6590064167976379,0.1622679978609085
1772537154343471900,1.516471923828125,-0.17275632917881012,-0.9499127864837646,0.46492427587509155
1772537154353519600,1.52651953125,-0.22227008640766144,-1.0523076057434082,0.6746721863746643
1772537154363567600,1.536567626953125,-0.19739750027656555,-1.0194610357284546,0.7999891042709351
1772537154373616600,1.54661669921875,-0.1327899992465973,-0.9392076730728149,0.810685932636261
1772537154383664600,1.55666455078125,0.011807656846940517,-0.7782848477363586,0.7177218794822693
1772537154393712600,1.566712646484375,0.24311944842338562,-0.5159520506858826,0.5352746248245239
1772537154403761700,1.57676171875,0.4461905360221863,-0.16210368275642395,0.287327378988266
1772537154413809700,1.5868095703125,0.6127419471740723,0.2151583880186081,0.0801108181476593
1772537154423857700,1.596857666015625,0.7673658728599548,0.5733964443206787,0.04176449030637741
1772537154433906400,1.606906494140625,0.898845374584198,0.8138923645019531,0.18467716872692108
1772537154443954700,1.61695458984375,0.9597699642181396,0.9368667602539062,0.4627937376499176
1772537154454002700,1.627002685546875,0.9096740484237671,0.9379288554191589,0.7950835227966309
1772537154464051700,1.6370517578125,0.7512196898460388,0.8166950941085815,1.1077250242233276
1772537154474099700,1.647099609375,0.5013395547866821,0.6320610642433167,1.3436404466629028
1772537154484147500,1.6571474609375,0.20241887867450714,0.42903950810432434,1.4544752836227417
1772537154494195700,1.66719580078125,-0.054178282618522644,0.3151156008243561,1.4381588697433472
1772537154504244500,1.677244384765625,-0.1844121813774109,0.3030184507369995,1.3113266229629517
1772537154514292700,1.687292724609375,-0.19902841746807098,0.27036917209625244,1.0862253904342651
1772537154524340700,1.6973408203125,-0.15544471144676208,0.21599887311458588,0.7585079669952393
1772537154534389800,1.7073896484375,-0.0736241564154625,0.2409937083721161,0.3288266360759735
1772537154544437800,1.717437744140625,0.01942536234855652,0.31656941771507263,-0.21284542977809906
1772537154554485500,1.727485595703125,0.07338739931583405,0.3702065646648407,-0.8551889657974243
1772537154564534800,1.73753466796875,0.05813680589199066,0.4590131342411041,-1.5271345376968384
1772537154574582500,1.74758251953125,-0.027334151789546013,0.548567533493042,-2.1031711101531982
1772537154584630800,1.757630859375,-0.16741536557674408,0.5964189171791077,-2.4489684104919434
1772537154594679600,1.767679443359375,-0.34800004959106445,0.5966743230819702,-2.441176652908325
1772537154604727800,1.777727783203125,-0.5626332759857178,0.46835896372795105,-2.1041617393493652
1772537154614775600,1.787775634765625,-0.7510532140731812,0.21634827554225922,-1.5380237102508545
1772537154624824800,1.797824951171875,-0.871053159236908,-0.006893592420965433,-0.8916087746620178
1772537154634872600,1.80787255859375,-0.9552724361419678,-0.06154591962695122,-0.3011683523654938
1772537154644920600,1.817920654296875,-1.0160197019577026,0.023671241477131844,0.21020276844501495
1772537154654968800,1.82796875,-1.0629647970199585,0.11929736286401749,0.681877613067627
1772537154665017600,1.838017578125,-1.024511456489563,0.21426968276500702,1.1171417236328125
1772537154675065900,1.84806591796875,-0.865976870059967,0.2674093246459961,1.4180629253387451
1772537154685113600,1.858113525390625,-0.6325998306274414,0.3000146746635437,1.4945262670516968
1772537154695163000,1.868162841796875,-0.4037109911441803,0.31850287318229675,1.3001075983047485
1772537154705210600,1.878210693359375,-0.22649624943733215,0.24696344137191772,0.8998698592185974
1772537154715258600,1.888258544921875,-0.13764788210391998,0.13749846816062927,0.42244791984558105
1772537154725307600,1.8983076171875,-0.11466852575540543,0.05385258048772812,-0.07501804828643799
1772537154735355600,1.908355712890625,-0.1338219791650772,-0.04080575332045555,-0.5094313025474548
1772537154745403600,1.918403564453125,-0.17131716012954712,-0.11201255768537521,-0.7835168838500977
1772537154755452700,1.92845263671875,-0.17911621928215027,-0.12413260340690613,-0.8474250435829163
1772537154765500700,1.938500732421875,-0.17617662250995636,-0.09216401726007462,-0.6652137041091919
1772537154775548700,1.948548583984375,-0.1888492852449417,-0.09409347176551819,-0.32585054636001587
1772537154785596700,1.9585966796875,-0.24419482052326202,-0.16157744824886322,0.06949465721845627
1772537154795645700,1.968645751953125,-0.32316315174102783,-0.3194030225276947,0.43183237314224243
1772537154805693700,1.978693603515625,-0.4069483280181885,-0.5425809621810913,0.6993093490600586
1772537154815741700,1.98874169921875,-0.42643359303474426,-0.7443040013313293,0.8435048460960388
1772537154825790700,1.998790771484375,-0.36848002672195435,-0.8945344686508179,0.8530062437057495
1772537154835838500,2.00883837890625,-0.25924062728881836,-0.9376843571662903,0.733130931854248
1772537154845886700,2.01888671875,-0.11364134401082993,-0.8215031623840332,0.5617770552635193
1772537154855935500,2.028935546875,0.05277959257364273,-0.5613749027252197,0.4305838644504547
1772537154865983700,2.038983642578125,0.21397407352924347,-0.2353142499923706,0.39384156465530396
1772537154876031700,2.04903173828125,0.3833700120449066,0.03465757891535759,0.45715582370758057
1772537154886080800,2.059080810546875,0.5432702302932739,0.16883589327335358,0.5766465663909912
1772537154896128800,2.069128662109375,0.6624243259429932,0.2092277854681015,0.7218029499053955
1772537154906176500,2.079176513671875,0.7280778884887695,0.21003659069538116,0.8573706150054932
1772537154916225800,2.089225830078125,0.7316854000091553,0.2178737372159958,0.9486646056175232
1772537154926273500,2.0992734375,0.6975492835044861,0.24766838550567627,1.0144151449203491
1772537154936321800,2.10932177734375,0.6367785930633545,0.3148239850997925,1.0452848672866821
1772537154946369500,2.11936962890625,0.5451450943946838,0.407734751701355,1.0502735376358032
1772537154956418800,2.129418701171875,0.4698556363582611,0.5282281637191772,1.0195049047470093
1772537154966466600,2.139466552734375,0.4301367402076721,0.6503993272781372,0.9385488033294678
1772537154976514600,2.1495146484375,0.41436976194381714,0.7281985282897949,0.8108686208724976
1772537154986563600,2.1595634765625,0.3900226056575775,0.7396059036254883,0.6632269620895386
1772537154996611600,2.169611572265625,0.3425576090812683,0.672017514705658,0.49170157313346863
1772537155006659800,2.179659912109375,0.27045387029647827,0.5510061383247375,0.284898042678833
1772537155016708600,2.18970849609375,0.17565065622329712,0.4620371460914612,0.043476104736328125
1772537155026756900,2.1997568359375,0.07652673125267029,0.45302900671958923,-0.18250936269760132
1772537155036804600,2.2098046875,-0.00430073868483305,0.4649181365966797,-0.37769243121147156
1772537155046854000,2.21985400390625,-0.08456122130155563,0.4747196435928345,-0.5350985527038574
1772537155056901600,2.229901611328125,-0.15307237207889557,0.4714285135269165,-0.6583781838417053
1772537155066949600,2.23994970703125,-0.198113352060318,0.4348803460597992,-0.7541155815124512
1772537155076997600,2.24999755859375,-0.22385546565055847,0.4408501088619232,-0.7828114032745361
1772537155087042800,2.260042724609375,-0.22032225131988525,0.5106416940689087,-0.728127658367157
1772537155097090800,2.2700908203125,-0.2127562165260315,0.6080827713012695,-0.6006733179092407
1772537155107138800,2.280138916015625,-0.2308982014656067,0.6278588771820068,-0.42745307087898254
1772537155117187800,2.290187744140625,-0.28303834795951843,0.49510082602500916,-0.31166335940361023
1772537155127235800,2.30023583984375,-0.3700566291809082,0.25308579206466675,-0.26703304052352905
1772537155137283800,2.310283935546875,-0.46610671281814575,-0.0032352081034332514,-0.24431094527244568
1772537155147332900,2.320332763671875,-0.5457509160041809,-0.14525040984153748,-0.20149396359920502
1772537155157380900,2.330380859375,-0.5867244601249695,-0.12987171113491058,-0.07438395172357559
1772537155167428600,2.3404287109375,-0.5542727708816528,0.04033117741346359,0.1302834302186966
1772537155177478000,2.350477783203125,-0.44566696882247925,0.28559446334838867,0.3583594858646393
1772537155187525600,2.360525634765625,-0.2651291489601135,0.45517629384994507,0.5235226154327393
1772537155197574000,2.370573974609375,-0.04866793751716614,0.5251580476760864,0.5553361773490906
1772537155207622000,2.380621826171875,0.1383160650730133,0.4302879869937897,0.3777904510498047
1772537155217670700,2.390670654296875,0.23587004840373993,0.23849593102931976,0.04235012084245682
1772537155227719000,2.400718994140625,0.2852192223072052,0.032166190445423126,-0.3790258765220642
1772537155237766700,2.4107666015625,0.3065639138221741,-0.09519096463918686,-0.8261067271232605
1772537155247816000,2.42081591796875,0.3027377724647522,-0.08123493194580078,-1.2188955545425415
1772537155257863700,2.43086376953125,0.29607799649238586,0.06220744922757149,-1.4901115894317627
1772537155267911700,2.44091162109375,0.30233749747276306,0.254042387008667,-1.571683645248413
1772537155277960700,2.450960693359375,0.2970508635044098,0.38176387548446655,-1.443623661994934
1772537155288008700,2.4610087890625,0.27917546033859253,0.3708374500274658,-1.1303951740264893
1772537155298057000,2.471056884765625,0.2410496324300766,0.1788080930709839,-0.7180955410003662
1772537155308105700,2.481105712890625,0.16581693291664124,-0.138768270611763,-0.29993000626564026
1772537155318154000,2.491154052734375,0.07370883971452713,-0.43285608291625977,0.07775178551673889
1772537155328201700,2.50120166015625,0.003695135936141014,-0.6034983992576599,0.3811132609844208
1772537155338249700,2.511249755859375,-0.03027375042438507,-0.53849196434021,0.6136506199836731
1772537155348298800,2.521298828125,-0.029766684398055077,-0.3452788293361664,0.7511749267578125
1772537155358346800,2.5313466796875,0.007866178639233112,-0.13565902411937714,0.7805125713348389
1772537155368394800,2.541394775390625,0.05357054993510246,0.009816411882638931,0.7073438167572021
1772537155378443800,2.55144384765625,0.10983142256736755,0.05181020125746727,0.5586337447166443
1772537155388491800,2.56149169921875,0.197795107960701,0.007981760427355766,0.4184366762638092
1772537155398539800,2.571539794921875,0.2931101620197296,-0.11852185428142548,0.2728632092475891
1772537155408588800,2.5815888671875,0.3675266206264496,-0.2609144151210785,0.09849567711353302
1772537155418636800,2.59163671875,0.4725518226623535,-0.3416007459163666,-0.11656336486339569
1772537155428684800,2.601684814453125,0.5710680484771729,-0.2914414405822754,-0.3115459084510803
1772537155438733800,2.61173388671875,0.6471819877624512,-0.1104908213019371,-0.36294785141944885
1772537155448781800,2.62178173828125,0.699795663356781,0.17091421782970428,-0.24099662899971008
1772537155458829800,2.631829833984375,0.7213478088378906,0.4235912263393402,0.0033510555513203144
1772537155468878800,2.64187890625,0.7159833908081055,0.6141406297683716,0.27966439723968506
1772537155478926800,2.6519267578125,0.6620581150054932,0.7354545593261719,0.5351454615592957
1772537155488974800,2.661974853515625,0.5345129370689392,0.763609766960144,0.7474507689476013
1772537155499022800,2.67202294921875,0.36753061413764954,0.6823074817657471,0.8616183400154114
1772537155509072000,2.68207177734375,0.19229327142238617,0.5171406269073486,0.8545082807540894
1772537155519119600,2.69211962890625,0.054004911333322525,0.371799111366272,0.7450568675994873
1772537155529168000,2.70216796875,-0.004081827122718096,0.27352476119995117,0.5617541670799255
1772537155539216600,2.712216552734375,-0.017007745802402496,0.21463720500469208,0.3029297888278961
1772537155549265000,2.722264892578125,0.030177609995007515,0.1875203549861908,-0.03254462778568268
1772537155559313000,2.73231298828125,0.1202893927693367,0.25901690125465393,-0.4259931147098541
1772537155569361700,2.742361572265625,0.22877778112888336,0.36545732617378235,-0.7978106141090393
1772537155579410000,2.752409912109375,0.20784054696559906,0.18865592777729034,-1.1139241456985474
1772537155589457700,2.762457763671875,0.2407713383436203,0.5663635730743408,-1.431113839149475
1772537155599507000,2.7725068359375,0.34407880902290344,0.5389242172241211,-1.6677042245864868
1772537155609554700,2.7825546875,0.3355873227119446,0.24961329996585846,-1.6247674226760864
1772537155619602700,2.792602783203125,0.25403866171836853,0.03236379846930504,-1.5704681873321533
1772537155629651000,2.80265087890625,0.15287476778030396,-0.09971886873245239,-1.4042872190475464
1772537155639699700,2.81269970703125,0.003385144053027034,-0.05854986235499382,-1.2234410047531128
1772537155649748000,2.822748046875,-0.15483751893043518,0.07184569537639618,-1.1127512454986572
1772537155659795700,2.832795654296875,-0.34489986300468445,0.16030019521713257,-1.0447367429733276
1772537155669845000,2.842844970703125,-0.5776215195655823,0.12090005725622177,-1.011001706123352
1772537155679892700,2.852892822265625,-0.8442119359970093,0.06588340550661087,-0.9125779271125793
1772537155689940700,2.862940673828125,-1.046642780303955,0.13319826126098633,-0.629796028137207
1772537155699989800,2.87298974609375,-1.1205817461013794,0.2851334810256958,-0.14317633211612701
1772537155710037800,2.883037841796875,-1.094015121459961,0.34617578983306885,0.41691628098487854
1772537155720085800,2.893085693359375,-1.007346510887146,0.2457277476787567,0.8876981735229492
1772537155730133800,2.9031337890625,-0.8922745585441589,-0.039748743176460266,1.1032816171646118
1772537155740182800,2.913182861328125,-0.8365990519523621,-0.4739409387111664,0.9603782296180725
1772537155750230800,2.923230712890625,-0.8057665228843689,-0.8237218260765076,0.47206634283065796
1772537155760278800,2.93327880859375,-0.7217560410499573,-0.8912878632545471,-0.20479096472263336
1772537155770327800,2.943327880859375,-0.546781063079834,-0.5799912214279175,-0.8361769318580627
1772537155780375800,2.953375732421875,-0.3261980712413788,-0.05152204632759094,-1.3212929964065552
1772537155790423800,2.963423828125,-0.14952237904071808,0.4800472855567932,-1.6240118741989136
1772537155800472800,2.973472900390625,-0.07154262810945511,0.8240739107131958,-1.6961721181869507
1772537155810520800,2.983520751953125,-0.06199785694479942,0.8642532825469971,-1.5880184173583984
1772537155820568800,2.99356884765625,-0.100887730717659,0.6489066481590271,-1.3624976873397827
1772537155830617900,3.003617919921875,-0.1738159954547882,0.2330460399389267,-1.081160068511963
1772537155840665900,3.013665771484375,-0.2866658568382263,-0.14306554198265076,-0.7483943104743958
1772537155850713900,3.0237138671875,-0.38859567046165466,-0.36128443479537964,-0.40577706694602966
1772537155860761900,3.033761962890625,-0.43525639176368713,-0.36916232109069824,-0.059061188250780106
1772537155870810600,3.043810546875,-0.41098007559776306,-0.08253562450408936,0.3402465283870697
1772537155880859000,3.05385888671875,-0.32245901226997375,0.37316080927848816,0.7541195750236511
1772537155890907000,3.063906982421875,-0.2731945216655731,0.8554696440696716,1.1203385591506958
1772537155900955600,3.07395556640625,-0.24057798087596893,0.9778368473052979,1.5042681694030762
1772537155911004000,3.08400390625,-0.2352583259344101,0.6798733472824097,1.9091136455535889
1772537155921051600,3.0940517578125,-0.28120264410972595,0.1580072045326233,2.2418437004089355
1772537155931101000,3.104100830078125,-0.37382179498672485,-0.2838956415653229,2.3993046283721924
1772537155941148700,3.114148681640625,-0.44377079606056213,-0.5406630039215088,2.3400001525878906
1772537155951197000,3.124197021484375,-0.44445016980171204,-0.5699471235275269,2.121976852416992
1772537155961245700,3.13424560546875,-0.4039466679096222,-0.4766898453235626,1.8221957683563232
1772537155971293700,3.144293701171875,-0.2951493561267853,-0.3940322697162628,1.4861069917678833
1772537155981342000,3.154342041015625,-0.14697346091270447,-0.23351848125457764,1.2056686878204346
1772537155991389700,3.1643896484375,-0.04613926634192467,-0.0740065798163414,1.002705454826355
1772537156001439000,3.17443896484375,0.037517815828323364,0.1399800032377243,0.774893581867218
1772537156011486700,3.18448681640625,0.1939830482006073,0.5116033554077148,0.5039387941360474
1772537156021534700,3.19453466796875,0.3892050087451935,0.7739902138710022,0.1740705966949463
1772537156031583700,3.204583740234375,0.47894421219825745,0.8973385691642761,-0.18071918189525604
1772537156041631700,3.2146318359375,0.4609028995037079,0.8327073454856873,-0.5024024248123169
1772537156051679700,3.2246796875,0.3867921829223633,0.5337755084037781,-0.7482239007949829
1772537156061728800,3.234728759765625,0.30288344621658325,0.2200266420841217,-0.9271978735923767
1772537156071776800,3.24477685546875,0.2719055414199829,0.04183559864759445,-1.094387173652649
1772537156081824800,3.25482470703125,0.3149513006210327,-0.009782589972019196,-1.233949065208435
1772537156091874800,3.264874755859375,0.3751879930496216,0.012223110534250736,-1.3382903337478638
1772537156101922800,3.2749228515625,0.3724244236946106,-0.014210627414286137,-1.3933789730072021
1772537156111970800,3.284970703125,0.31637394428253174,-0.08902974426746368,-1.2907724380493164
1772537156122018800,3.295018798828125,0.26775074005126953,-0.0562097430229187,-1.0321941375732422
1772537156132067800,3.30506787109375,0.15976037085056305,0.09489002823829651,-0.7297753691673279
1772537156142115800,3.31511572265625,0.007276022341102362,0.14555320143699646,-0.4963218867778778
1772537156152163800,3.325163818359375,-0.14006629586219788,0.01607563905417919,-0.34682372212409973
1772537156162212900,3.335212890625,-0.28007692098617554,-0.17527994513511658,-0.26707085967063904
1772537156172260900,3.3452607421875,-0.3872843384742737,-0.3643808960914612,-0.2041368931531906
1772537156182308900,3.355308837890625,-0.4871251881122589,-0.4569843113422394,-0.1456325650215149
1772537156192358000,3.36535791015625,-0.6140759587287903,-0.38480281829833984,-0.1711224764585495
1772537156202406000,3.375406005859375,-0.7455140948295593,-0.2306249588727951,-0.2889939844608307
1772537156212454000,3.385453857421875,-0.8650772571563721,0.0394054614007473,-0.3933555483818054
1772537156222503000,3.3955029296875,-0.9445260167121887,0.2978370189666748,-0.4195815622806549
1772537156232551000,3.405551025390625,-0.9531291127204895,0.46755120158195496,-0.2481624037027359
1772537156242598700,3.4155986328125,-0.8968344330787659,0.4561382532119751,0.08587042987346649
1772537156252647000,3.42564697265625,-0.7904517650604248,0.19827447831630707,0.4692907929420471
1772537156262695700,3.43569580078125,-0.6333202123641968,-0.14642591774463654,0.7577524185180664
1772537156272744000,3.445743896484375,-0.48547855019569397,-0.4019724726676941,0.7771652340888977
1772537156282792000,3.4557919921875,-0.38307735323905945,-0.5134092569351196,0.5004098415374756
1772537156292840700,3.4658408203125,-0.2733449935913086,-0.47307300567626953,-0.030945133417844772
1772537156302889000,3.475888916015625,-0.1622413694858551,-0.2400890290737152,-0.6381669044494629
1772537156312936700,3.485936767578125,-0.06673535704612732,0.11389461159706116,-1.109910249710083
1772537156322986000,3.495986083984375,0.02930782176554203,0.4250812530517578,-1.326974630355835
1772537156333033700,3.50603369140625,0.08193747699260712,0.57405024766922,-1.2903311252593994
1772537156343081700,3.516081787109375,0.07030558586120605,0.46598342061042786,-1.0637216567993164
1772537156353130800,3.526130859375,0.0126982182264328,0.13417698442935944,-0.7513898611068726
1772537156363178800,3.5361787109375,-0.10022806376218796,-0.3329145610332489,-0.48789164423942566
1772537156373227000,3.54622705078125,-0.28990665078163147,-0.8286510705947876,-0.3436407148838043
1772537156383274800,3.556274658203125,-0.4527786672115326,-1.2054697275161743,-0.2881668210029602
1772537156393323800,3.56632373046875,-0.5203068256378174,-1.333855152130127,-0.2806503176689148
1772537156403371800,3.576371826171875,-0.48706233501434326,-1.1898918151855469,-0.3016969859600067
1772537156413419800,3.586419677734375,-0.3186456263065338,-0.8722087144851685,-0.3422979712486267
1772537156423468800,3.59646875,-0.053286124020814896,-0.5031244158744812,-0.4054223299026489
1772537156433516800,3.606516845703125,0.22821666300296783,-0.13070102035999298,-0.47500166296958923
1772537156443564800,3.616564697265625,0.4739862084388733,0.19730454683303833,-0.5079617500305176
1772537156453613800,3.62661376953125,0.6473729014396667,0.47119760513305664,-0.45331475138664246
1772537156463661800,3.636661865234375,0.7021810412406921,0.6156250834465027,-0.254108190536499
1772537156473709800,3.646709716796875,0.675149142742157,0.5748361349105835,0.006228867452591658
1772537156483757800,3.6567578125,0.5805845856666565,0.454204261302948,0.2721673250198364
1772537156493806800,3.666806884765625,0.4720700681209564,0.29029253125190735,0.5069947838783264
1772537156503854800,3.676854736328125,0.43845483660697937,0.14197604358196259,0.6741262078285217
1772537156513902800,3.68690283203125,0.49040618538856506,0.1248370036482811,0.7924973368644714
1772537156523951900,3.696951904296875,0.5541108846664429,0.18107470870018005,0.8913986086845398
1772537156533999900,3.706999755859375,0.6187250018119812,0.24602308869361877,0.9787505865097046
1772537156544047900,3.7170478515625,0.6647026538848877,0.33876314759254456,1.0380003452301025
1772537156554097000,3.727096923828125,0.6704769134521484,0.4652728736400604,1.0406371355056763
1772537156564145000,3.737144775390625,0.6188901662826538,0.5789254307746887,0.9551783800125122
1772537156574192600,3.747192626953125,0.5197917819023132,0.6709591746330261,0.7916533946990967
1772537156584242000,3.757241943359375,0.40016257762908936,0.6676986813545227,0.6115241050720215
1772537156594289700,3.76728955078125,0.2883675992488861,0.5511840581893921,0.41520705819129944
1772537156604338000,3.777337890625,0.21395383775234222,0.3981500267982483,0.24388191103935242
1772537156614386000,3.787385986328125,0.1820816546678543,0.34132057428359985,0.09136319905519485
1772537156624435000,3.79743505859375,0.17788530886173248,0.3970027565956116,-0.025423068553209305
1772537156634483000,3.80748291015625,0.2128922939300537,0.3877967298030853,-0.08563101291656494
1772537156644530700,3.81753076171875,0.2656649649143219,0.2769964337348938,-0.06185803934931755
1772537156654580000,3.827580078125,0.29776138067245483,0.07244410365819931,-0.01980539597570896
1772537156664627700,3.837627685546875,0.28175684809684753,-0.1086077019572258,-0.07127630710601807
1772537156674676000,3.847676025390625,0.20703360438346863,-0.2096048891544342,-0.2738131582736969
1772537156684724700,3.857724853515625,0.05464380234479904,-0.39288681745529175,-0.6485098004341125
1772537156694772700,3.867772705078125,-0.16211673617362976,-0.6494736075401306,-1.1289818286895752
1772537156704821000,3.877821044921875,-0.37469184398651123,-0.8077066540718079,-1.5714071989059448
1772537156714868700,3.88786865234375,-0.526164710521698,-0.7659621238708496,-1.8901556730270386
1772537156724918000,3.89791796875,-0.590863049030304,-0.49504995346069336,-2.0253779888153076
1772537156734965800,3.9079658203125,-0.5557673573493958,-0.10605160146951675,-2.0226175785064697
1772537156745013800,3.918013671875,-0.4728650152683258,0.19390103220939636,-1.9578670263290405
1772537156755062800,3.928062744140625,-0.48967328667640686,0.3667337894439697,-1.7025556564331055
1772537156765110800,3.93811083984375,-0.5567977428436279,0.2665283679962158,-1.2883566617965698
1772537156775158800,3.94815869140625,-0.619697630405426,-0.029942985624074936,-0.8065524697303772
1772537156785207800,3.958207763671875,-0.6174277663230896,-0.28183114528656006,-0.31508123874664307
1772537156795255800,3.968255859375,-0.5321597456932068,-0.5256619453430176,-0.028248948976397514
1772537156805303800,3.9783037109375,-0.43293944001197815,-0.7297865748405457,-0.07513230293989182
1772537156815352800,3.988352783203125,-0.2976572513580322,-0.8009954690933228,-0.43873661756515503
1772537156825400800,3.99840087890625,-0.12820591032505035,-0.680083692073822,-0.9934128522872925
1772537156835448800,4.00844873046875,0.016934242099523544,-0.3545708656311035,-1.5064756870269775
1772537156845496800,4.018496826171875,0.1558079719543457,0.10674481838941574,-1.7848327159881592
1772537156855545900,4.0285458984375,0.2751207947731018,0.5031331777572632,-1.6963003873825073
1772537156865593900,4.03859375,0.311758428812027,0.5949472784996033,-1.3688706159591675
1772537156875641900,4.048641845703125,0.17311212420463562,0.4565339982509613,-0.8737857937812805
1772537156885691000,4.05869091796875,-0.0824434757232666,0.19157874584197998,-0.24890916049480438
1772537156895739000,4.06873876953125,-0.3696241080760956,-0.1416197121143341,0.346722811460495
1772537156905787000,4.078786865234375,-0.6575022339820862,-0.38343527913093567,0.8279959559440613
1772537156915836000,4.0888359375,-0.8554709553718567,-0.5228450894355774,1.153788447380066
1772537156925883600,4.098883544921875,-0.9237470030784607,-0.5894867181777954,1.351920485496521
1772537156935932000,4.108931884765625,-0.8801512718200684,-0.5845507979393005,1.4000144004821777
1772537156945980000,4.11897998046875,-0.7326204180717468,-0.45743119716644287,1.2819738388061523
1772537156956029000,4.12902880859375,-0.49856558442115784,-0.3124367296695709,0.9949141144752502
1772537156966077000,4.139076904296875,-0.22231481969356537,-0.1743912398815155,0.578834056854248
1772537156976124700,4.149124755859375,0.06324341893196106,0.014103568159043789,0.09566979855298996
1772537156986174000,4.159174072265625,0.3137983977794647,0.22911041975021362,-0.3709927201271057
1772537156996221700,4.1692216796875,0.5060434937477112,0.4247789978981018,-0.7446871995925903
1772537157006270000,4.17927001953125,0.608564019203186,0.5397308468818665,-0.9411352872848511
1772537157016318700,4.189318603515625,0.6957241892814636,0.6290293335914612,-0.8731911182403564
1772537157026367000,4.199366943359375,0.777961015701294,0.6418098211288452,-0.5053185820579529
1772537157036415000,4.2094150390625,0.7816739678382874,0.49958664178848267,0.12933695316314697
1772537157046463700,4.219463623046875,0.6764066815376282,0.26332324743270874,0.8571175932884216
1772537157056512000,4.229511962890625,0.4636771082878113,0.03596172854304314,1.499350905418396
1772537157066559700,4.239559814453125,0.17616571485996246,-0.10493999719619751,1.988144040107727
1772537157076608000,4.24960791015625,-0.1195753961801529,-0.15674327313899994,2.327605962753296
1772537157086656000,4.259656005859375,-0.32739758491516113,-0.1786232739686966,2.5003130435943604
1772537157096704300,4.269704345703125,-0.43157750368118286,-0.17478245496749878,2.5099546909332275
1772537157106752300,4.279752197265625,-0.44205811619758606,-0.15505802631378174,2.3556320667266846
1772537157116801300,4.28980126953125,-0.36466506123542786,-0.10000249743461609,2.0479695796966553
1772537157126849300,4.299849365234375,-0.2139570266008377,-0.030172282829880714,1.5981874465942383
1772537157136897000,4.30989697265625,-0.03117975778877735,0.03533162549138069,1.0480278730392456
1772537157146946300,4.3199462890625,0.1192568838596344,0.09613265842199326,0.4744059145450592
1772537157156994000,4.329994140625,0.2209257185459137,0.17580164968967438,-0.051600076258182526
1772537157167042300,4.340042236328125,0.3025404214859009,0.22567173838615417,-0.4736306667327881
1772537157177091000,4.350091064453125,0.3441336750984192,0.21209201216697693,-0.8033459782600403
1772537157187139300,4.360139404296875,0.3425975739955902,0.07289684563875198,-1.033032774925232
1772537157197187000,4.37018701171875,0.2661227583885193,-0.11375213414430618,-1.1082313060760498
1772537157207235000,4.380235107421875,0.1598791480064392,-0.3068712651729584,-1.0247747898101807
1772537157217284000,4.3902841796875,0.0775081068277359,-0.45825013518333435,-0.9066859483718872
1772537157227332000,4.40033203125,0.0031944618094712496,-0.5518277287483215,-0.812408447265625
1772537157237380400,4.41038037109375,-0.07588677108287811,-0.5628859996795654,-0.7538314461708069
1772537157247429000,4.42042919921875,-0.16509893536567688,-0.5232182145118713,-0.738953709602356
1772537157257477400,4.430477294921875,-0.2908906936645508,-0.35556501150131226,-0.7439907789230347
1772537157267525000,4.440525146484375,-0.4284546673297882,-0.06636597216129303,-0.7078434228897095
1772537157277574100,4.45057421875,-0.5456398725509644,0.14865446090698242,-0.57651287317276
1772537157287622100,4.4606220703125,-0.6248348355293274,0.1818220019340515,-0.2847427725791931
1772537157297670100,4.470670166015625,-0.6579741835594177,0.052079979330301285,0.0956982970237732
1772537157307718400,4.480718505859375,-0.6467412114143372,-0.17283782362937927,0.433248370885849
1772537157317767200,4.49076708984375,-0.5325224995613098,-0.3149068057537079,0.5685334801673889
1772537157327815200,4.500815185546875,-0.34560346603393555,-0.3725011348724365,0.4033048450946808
1772537157337863200,4.51086328125,-0.1660129427909851,-0.3320474624633789,-0.01721387356519699
1772537157347912200,4.520912109375,0.006446447689086199,-0.1769886314868927,-0.5615565180778503
1772537157357960200,4.530960205078125,0.15426680445671082,0.07680849730968475,-1.0475802421569824
1772537157368008200,4.54100830078125,0.2651911973953247,0.3162493109703064,-1.347061276435852
1772537157378057200,4.55105712890625,0.32818320393562317,0.4830588102340698,-1.3864076137542725
1772537157388105200,4.561105224609375,0.2908475399017334,0.5807347893714905,-1.1290510892868042
1772537157398153000,4.571153076171875,0.18694937229156494,0.5324692130088806,-0.6309462785720825
1772537157408202200,4.5812021484375,0.0664844810962677,0.26560425758361816,-0.015422898344695568
1772537157418250000,4.59125,-0.0635313019156456,-0.04905436187982559,0.5573071837425232
1772537157428298200,4.60129833984375,-0.16760843992233276,-0.24661563336849213,0.9497383832931519
1772537157438346200,4.61134619140625,-0.21989187598228455,-0.3204978406429291,1.1710885763168335
1772537157448395300,4.621395263671875,-0.2152838110923767,-0.29531872272491455,1.2511317729949951
1772537157458443300,4.631443359375,-0.14073342084884644,-0.2529398500919342,1.1855804920196533
1772537157468491000,4.641490966796875,-0.02099556289613247,-0.2342926561832428,1.003898024559021
1772537157478540300,4.651540283203125,0.08690134435892105,-0.13233566284179688,0.7828699946403503
1772537157488588000,4.661588134765625,0.18052317202091217,0.07631874084472656,0.5785722732543945
1772537157498636300,4.67163623046875,0.22842039167881012,0.24667929112911224,0.39689356088638306
1772537157508685000,4.68168505859375,0.17646504938602448,0.2820793688297272,0.22591328620910645
1772537157518733300,4.6917333984375,0.051066379994153976,0.19932802021503448,0.0464916005730629
1772537157528781000,4.701781005859375,-0.062131013721227646,0.058157045394182205,-0.11714206635951996
1772537157538829000,4.7118291015625,-0.12000390142202377,-0.0006418218254111707,-0.19177661836147308
1772537157548878000,4.721878173828125,-0.12599414587020874,0.07504894584417343,-0.10746493935585022
1772537157558926000,4.731926025390625,-0.12989887595176697,0.19855409860610962,0.1227959617972374
1772537157568974300,4.741974365234375,-0.1537189930677414,0.26272642612457275,0.4720708727836609
1772537157579023000,4.752023193359375,-0.2005528062582016,0.25488847494125366,0.8681851625442505
1772537157589071400,4.7620712890625,-0.2746534049510956,0.21830064058303833,1.2416878938674927
1772537157599119000,4.772119140625,-0.37715739011764526,0.18560048937797546,1.5383009910583496
1772537157609168100,4.782168212890625,-0.4732764661312103,0.18274451792240143,1.758392572402954
1772537157619216100,4.792216064453125,-0.5500066876411438,0.21470405161380768,1.8804819583892822
1772537157629264100,4.80226416015625,-0.6121326088905334,0.2301546335220337,1.8975880146026611
1772537157639312400,4.8123125,-0.6225916743278503,0.21175219118595123,1.8062725067138672
1772537157649361200,4.822361083984375,-0.5448878407478333,0.18708227574825287,1.593786358833313
1772537157659409200,4.8324091796875,-0.4231078624725342,0.20302341878414154,1.2538236379623413
1772537157669457200,4.84245703125,-0.32309550046920776,0.270143061876297,0.7997757792472839
1772537157679506200,4.852506103515625,-0.21854032576084137,0.39411693811416626,0.3494296371936798
1772537157689554200,4.86255419921875,-0.09584476798772812,0.511073648929596,-0.009080846793949604
1772537157699602200,4.872602294921875,-0.010664628818631172,0.5121743679046631,-0.3161209523677826
1772537157709651200,4.882651123046875,0.04753316566348076,0.3543599545955658,-0.5728145241737366
1772537157719699200,4.89269921875,0.12439172714948654,0.17511242628097534,-0.7253742218017578
1772537157729747000,4.902746826171875,0.19301259517669678,0.10610406845808029,-0.732676088809967
1772537157739796200,4.912796142578125,0.22578012943267822,0.1396028995513916,-0.610450029373169
1772537157749844000,4.922843994140625,0.16007062792778015,0.152405247092247,-0.4436533451080322
1772537157759892200,4.932892333984375,-0.034326814115047455,-0.017302824184298515,-0.2866474688053131
1772537157769940200,4.942940185546875,-0.37134265899658203,-0.36134836077690125,-0.11287488788366318
1772537157779989200,4.9529892578125,-0.7673794627189636,-0.6563083529472351,0.11304053664207458
1772537157790037200,4.963037353515625,-1.0957012176513672,-0.7918262481689453,0.37858060002326965
1772537157800085000,4.9730849609375,-1.2962161302566528,-0.6734505891799927,0.6672195792198181
1772537157810134300,4.98313427734375,-1.310549020767212,-0.3541218638420105,0.930915117263794
1772537157820182000,4.99318212890625,-1.1103328466415405,-0.10198921710252762,1.1384669542312622
1772537157830230300,5.003230224609375,-0.7783708572387695,-0.045879341661930084,1.2592453956604004
1772537157840279000,5.013279052734375,-0.3936983048915863,-0.1263185292482376,1.1554681062698364
1772537157850327300,5.023327392578125,-0.027594609186053276,-0.2384732961654663,0.7764291763305664
1772537157860375000,5.033375,0.259602814912796,-0.23779578506946564,0.22599291801452637
1772537157870423000,5.043423095703125,0.45670390129089355,-0.04355093836784363,-0.3700350522994995
1772537157880472000,5.05347216796875,0.5410690903663635,0.24611443281173706,-0.9090138673782349
1772537157890520000,5.06352001953125,0.4848231375217438,0.5731287598609924,-1.2785724401474
1772537157900568300,5.073568359375,0.3292157053947449,0.8516647815704346,-1.3834171295166016
1772537157910617000,5.0836171875,0.16002269089221954,1.0008060932159424,-1.143270492553711
1772537157920665300,5.093665283203125,0.044495563954114914,0.8853159546852112,-0.6116260886192322
1772537157930713000,5.103713134765625,-0.020723920315504074,0.5971084237098694,0.0664844810962677
1772537157940762400,5.113762451171875,-0.06221570447087288,0.17383837699890137,0.6464415788650513
1772537157950810000,5.12381005859375,-0.11277022212743759,-0.2439170628786087,1.0063071250915527
1772537157960858000,5.133858154296875,-0.14677585661411285,-0.5016934871673584,1.1341731548309326
1772537157970907100,5.1439072265625,-0.14997431635856628,-0.5593360066413879,1.0171970129013062
1772537157980955100,5.153955078125,-0.14649756252765656,-0.49717700481414795,0.6714044809341431
1772537157991003400,5.16400341796875,-0.11749600619077682,-0.35280439257621765,0.16882577538490295
1772537158001051100,5.174051025390625,-0.046308111399412155,-0.22589944303035736,-0.37798669934272766
1772537158011100200,5.18410009765625,0.020389162003993988,-0.10138281434774399,-0.8309898972511292
1772537158021148200,5.194148193359375,0.07222386449575424,0.026789270341396332,-1.1062355041503906
1772537158031196200,5.204196044921875,0.11578146368265152,0.12818486988544464,-1.1816277503967285
1772537158041245200,5.2142451171875,0.16466698050498962,0.14564268290996552,-1.0542490482330322
1772537158051293200,5.224293212890625,0.19720308482646942,0.003858654061332345,-0.7583588361740112
1772537158061341000,5.2343408203125,0.17134006321430206,-0.30511197447776794,-0.3570297658443451
1772537158071390200,5.24439013671875,0.0641598105430603,-0.6741214394569397,0.11374413967132568
1772537158081438000,5.25443798828125,-0.07764845341444016,-0.8776940107345581,0.5527228116989136
1772537158091485400,5.2644853515625,-0.1803005337715149,-0.8753288388252258,0.8633659482002258
1772537158101533700,5.27453369140625,-0.22357822954654694,-0.7270621657371521,1.025119423866272
1772537158111582500,5.28458251953125,-0.18461857736110687,-0.4564746022224426,1.0668301582336426
1772537158121630700,5.294630615234375,-0.043362654745578766,-0.11138591170310974,1.0310356616973877
1772537158131678500,5.304678466796875,0.1617201864719391,0.2129378318786621,0.966760516166687
1772537158141727700,5.314727783203125,0.3372240960597992,0.40429580211639404,0.8881250619888306
1772537158151775500,5.324775390625,0.4118706285953522,0.46384650468826294,0.8021348118782043
1772537158161823500,5.334823486328125,0.370636910200119,0.4356212317943573,0.7185424566268921
1772537158171871700,5.344871826171875,0.2651304602622986,0.40459010004997253,0.638992190361023
1772537158181920500,5.35492041015625,0.15208753943443298,0.43325236439704895,0.6030334234237671
1772537158191968800,5.36496875,0.06268814951181412,0.4382005035877228,0.604083240032196
1772537158202016500,5.3750166015625,-0.015536615625023842,0.31672734022140503,0.5705388784408569
1772537158212065800,5.385065673828125,-0.08788857609033585,0.15858352184295654,0.46199798583984375
1772537158222113500,5.395113525390625,-0.11678627133369446,0.08951816707849503,0.30909979343414307
1772537158232161500,5.40516162109375,-0.08328183740377426,0.03466770052909851,0.15648281574249268
1772537158242210600,5.41521044921875,-0.0211886428296566,-0.017894843593239784,-0.019421635195612907
1772537158252258600,5.425258544921875,0.058945875614881516,-0.09414860606193542,-0.21128880977630615
1772537158262306800,5.435306884765625,0.13279825448989868,-0.25976499915122986,-0.42727676033973694
1772537158272354600,5.4453544921875,0.15537893772125244,-0.39839982986450195,-0.6326200366020203
1772537158282403600,5.455403564453125,0.12285801023244858,-0.38933658599853516,-0.77445387840271
1772537158292451600,5.46545166015625,0.07811877131462097,-0.318295955657959,-0.8337268233299255
1772537158302499600,5.47549951171875,0.030901189893484116,-0.29777443408966064,-0.8454761505126953
1772537158312548600,5.485548583984375,-0.03217631205916405,-0.30814266204833984,-0.871957540512085
1772537158322596600,5.4955966796875,-0.1442629098892212,-0.23887676000595093,-0.9475108981132507
1772537158332644400,5.505644287109375,-0.303946852684021,-0.0858166366815567,-1.0547561645507812
1772537158342693600,5.515693603515625,-0.5189188122749329,0.15164518356323242,-1.056279182434082
1772537158352741400,5.525741455078125,-0.7315549254417419,0.26119911670684814,-0.891749382019043
1772537158362789600,5.53578955078125,-0.8718592524528503,0.04346784949302673,-0.5530765056610107
1772537158372838400,5.54583837890625,-0.8911752104759216,-0.42311716079711914,-0.1001092866063118
1772537158382886700,5.55588671875,-0.7595231533050537,-0.8906183242797852,0.2437245100736618
1772537158392934700,5.5659345703125,-0.5251063704490662,-1.1455944776535034,0.24857865273952484
1772537158402982400,5.575982421875,-0.24180437624454498,-1.0424573421478271,-0.053230464458465576
1772537158413031700,5.58603173828125,0.12543834745883942,-0.7299327850341797,-0.5653371810913086
1772537158423079400,5.596079345703125,0.48108619451522827,-0.27413806319236755,-1.1586822271347046
1772537158433127700,5.606127685546875,0.7055320739746094,0.28758278489112854,-1.6370248794555664
1772537158443176400,5.616176513671875,0.8007746934890747,0.7726038098335266,-1.829836368560791
1772537158453224700,5.626224609375,0.7628222703933716,1.0698299407958984,-1.62735116481781
1772537158463272400,5.6362724609375,0.6241743564605713,1.0583654642105103,-1.1017779111862183
1772537158473321700,5.64632177734375,0.40915101766586304,0.6878396272659302,-0.4330161511898041
1772537158483369500,5.656369384765625,0.14242558181285858,0.13715359568595886,0.22950536012649536
1772537158493417500,5.66641748046875,-0.14607997238636017,-0.3093288242816925,0.7628347873687744
1772537158503465700,5.6764658203125,-0.382963091135025,-0.5594686269760132,1.0642883777618408
1772537158513514500,5.686514404296875,-0.4994782507419586,-0.5882600545883179,1.1517753601074219
1772537158523562800,5.696562744140625,-0.4839560091495514,-0.5322487354278564,1.0840815305709839
1772537158533610500,5.706610595703125,-0.3832813501358032,-0.4451630711555481,0.9213644862174988
1772537158543659800,5.71665966796875,-0.22643686830997467,-0.3278931975364685,0.7187485694885254
1772537158553707500,5.72670751953125,-0.061111558228731155,-0.25004953145980835,0.4572985768318176
1772537158563755500,5.736755615234375,0.073166623711586,-0.2879529595375061,0.10136310756206512
1772537158573804500,5.746804443359375,0.10669821500778198,-0.3657151460647583,-0.33630290627479553
1772537158583852500,5.7568525390625,0.07537571340799332,-0.2903263568878174,-0.6453438401222229
1772537158593900800,5.76690087890625,0.03352893143892288,-0.056780457496643066,-0.7223597764968872
1772537158603948500,5.776948486328125,-0.008973787538707256,0.2390645146369934,-0.5755301713943481
1772537158613997800,5.786997802734375,-0.035054922103881836,0.422270804643631,-0.2415657490491867
1772537158624045600,5.797045654296875,-0.08505603671073914,0.4310677647590637,0.22347596287727356
1772537158634093600,5.807093505859375,-0.16565580666065216,0.3321784734725952,0.7378053665161133
1772537158644142600,5.817142578125,-0.2517033517360687,0.23312406241893768,1.2514928579330444
1772537158654190600,5.827190673828125,-0.3419046103954315,0.1616930216550827,1.693163275718689
1772537158664238600,5.837238525390625,-0.43462470173835754,0.17881181836128235,2.0287976264953613
1772537158674287600,5.84728759765625,-0.4956265389919281,0.2687017619609833,2.2607874870300293
1772537158684335400,5.85733544921875,-0.5321680307388306,0.3669377863407135,2.3621017932891846
1772537158694383600,5.867383544921875,-0.5498639345169067,0.42960304021835327,2.334254503250122
1772537158704432400,5.877432373046875,-0.5551705360412598,0.39053472876548767,2.185014009475708
1772537158714480600,5.887480712890625,-0.5471528172492981,0.29326382279396057,1.904466986656189
1772537158724528600,5.897528564453125,-0.5305157899856567,0.1950104981660843,1.5082274675369263
1772537158734576400,5.907576416015625,-0.5098904371261597,0.11067058891057968,1.0572080612182617
1772537158744625700,5.917625732421875,-0.5035587549209595,0.08768510818481445,0.5979076027870178
1772537158754673400,5.92767333984375,-0.48901841044425964,0.108583465218544,0.16599616408348083
1772537158764721700,5.9377216796875,-0.42281755805015564,0.19810615479946136,-0.26215413212776184
1772537158774770400,5.9477705078125,-0.20665010809898376,0.31550735235214233,-0.66925448179245
1772537158784818700,5.957818603515625,0.1080726757645607,0.42358455061912537,-1.0207440853118896
1772537158794866700,5.96786669921875,0.38456737995147705,0.4330765902996063,-1.304335594177246
1772537158804915700,5.977915771484375,0.5138500332832336,0.20326097309589386,-1.5890860557556152
1772537158814963500,5.98796337890625,0.4787743091583252,-0.27029967308044434,-1.8333208560943604
1772537158825011500,5.998011474609375,0.3657960891723633,-0.701378345489502,-1.9799033403396606
1772537158835059700,6.008059814453125,0.2016841173171997,-0.8279110193252563,-2.0477182865142822
1772537158845108500,6.0181083984375,-0.06137893721461296,-0.6497191786766052,-2.0966124534606934
1772537158855156700,6.02815673828125,-0.3640029728412628,-0.2587687075138092,-2.0513744354248047
1772537158865204500,6.03820458984375,-0.5951477885246277,0.14595241844654083,-1.7828547954559326
1772537158875253800,6.048253662109375,-0.7120341658592224,0.21373119950294495,-1.312254786491394
1772537158885301500,6.058301513671875,-0.7198513746261597,-0.02942313626408577,-0.6721099615097046
1772537158895349500,6.068349609375,-0.6358885765075684,-0.40362709760665894,0.028557874262332916
1772537158905398500,6.0783984375,-0.5219374895095825,-0.7229505181312561,0.5483152866363525
1772537158915446500,6.088446533203125,-0.4103206694126129,-0.8247237205505371,0.6885648369789124
1772537158925494800,6.098494873046875,-0.23791322112083435,-0.7168598175048828,0.44103145599365234
1772537158935542500,6.10854248046875,-0.003433347214013338,-0.4824393391609192,-0.11817111819982529
1772537158945591800,6.118591796875,0.21447554230690002,-0.16125626862049103,-0.8528451323509216
1772537158955639600,6.1286396484375,0.3658738434314728,0.12300422042608261,-1.516681432723999
1772537158965687600,6.1386875,0.4287332594394684,0.3606244921684265,-1.866307020187378
1772537158975736600,6.148736572265625,0.42990291118621826,0.5269144177436829,-1.81376051902771
1772537158985784600,6.15878466796875,0.41584914922714233,0.42051419615745544,-1.4759057760238647
1772537158995832600,6.16883251953125,0.34097516536712646,0.2837539613246918,-0.8876084089279175
1772537159005881600,6.178881591796875,0.15601703524589539,0.13623186945915222,-0.1663261204957962
1772537159015929600,6.1889296875,-0.11596814543008804,-0.15878938138484955,0.38192179799079895
1772537159025977600,6.1989775390625,-0.4242578148841858,-0.4463615119457245,0.6918210983276367
1772537159036025600,6.209025634765625,-0.6702393293380737,-0.529600977897644,0.8289054036140442
1772537159046074600,6.21907470703125,-0.7585631012916565,-0.4748557209968567,0.811061680316925
1772537159056122600,6.22912255859375,-0.6723235249519348,-0.3436377942562103,0.6830387711524963
1772537159066170600,6.239170654296875,-0.44985824823379517,-0.19476816058158875,0.49833548069000244
1772537159076219600,6.2492197265625,-0.1828310638666153,-0.07059800624847412,0.3024038076400757
1772537159086267400,6.259267333984375,0.07387688755989075,0.08266744762659073,0.12171365320682526
1772537159096315400,6.2693154296875,0.2762904465198517,0.27155160903930664,-0.027659591287374496
1772537159106364200,6.2793642578125,0.4010203778743744,0.4364748001098633,-0.1598738133907318
1772537159116412400,6.289412353515625,0.43103182315826416,0.409304678440094,-0.2626990079879761
1772537159126460400,6.29946044921875,0.36869919300079346,0.2511376738548279,-0.2531734108924866
1772537159136509200,6.30950927734375,0.22757403552532196,0.10173248499631882,-0.059060923755168915
1772537159146557400,6.319557373046875,0.0631006732583046,-0.05290555953979492,0.28389057517051697
1772537159156605200,6.329605224609375,-0.0669766366481781,-0.1883978694677353,0.6388611793518066
1772537159166653400,6.3396533203125,-0.10163474828004837,-0.236087366938591,0.9144307374954224
1772537159176702200,6.3497021484375,-0.06371372938156128,-0.16249676048755646,1.0914595127105713
1772537159186750200,6.359750244140625,-0.007984156720340252,-0.005853095557540655,1.1435781717300415
1772537159196798200,6.369798095703125,0.04340579733252525,0.177713543176651,1.1089404821395874
1772537159206847200,6.37984716796875,0.053518351167440414,0.32062408328056335,1.0300542116165161
1772537159216895200,6.389895263671875,0.0033840788528323174,0.3933675289154053,0.9312557578086853
1772537159226943200,6.399943115234375,-0.07425345480442047,0.3885416090488434,0.8635981678962708
1772537159236992300,6.4099921875,-0.1561637669801712,0.3748745322227478,0.8177361488342285
1772537159247040300,6.420040283203125,-0.2230253517627716,0.378517746925354,0.7538567185401917
1772537159257088300,6.430088134765625,-0.2813882529735565,0.37787753343582153,0.6445336937904358
1772537159267136300,6.44013623046875,-0.32098788022994995,0.3168053925037384,0.45970314741134644
1772537159277185300,6.450185302734375,-0.33563125133514404,0.22491487860679626,0.18829533457756042
1772537159287233300,6.4602333984375,-0.33020588755607605,0.17450469732284546,-0.13465528190135956
1772537159297281300,6.47028125,-0.27022430300712585,0.07680130749940872,-0.4361504018306732
1772537159307330300,6.480330322265625,-0.21947084367275238,-0.013373595662415028,-0.659606397151947
1772537159317378300,6.49037841796875,-0.21708038449287415,-0.07458662241697311,-0.8120987415313721
1772537159327426300,6.50042626953125,-0.255425363779068,-0.15522047877311707,-0.9135124683380127
1772537159337475300,6.510475341796875,-0.2637040913105011,-0.27146345376968384,-1.0043762922286987
1772537159347523300,6.5205234375,-0.09885147958993912,-0.2903681695461273,-1.036108136177063
1772537159357571300,6.5305712890625,0.1212872788310051,-0.24044269323349,-1.2188491821289062
1772537159367619300,6.540619384765625,0.15809482336044312,-0.12732626497745514,-1.651265025138855
1772537159377668400,6.55066845703125,-0.022656576707959175,0.026680346578359604,-2.061842203140259
1772537159387716400,6.56071630859375,-0.3318658173084259,0.08840043842792511,-2.168264865875244
1772537159397764000,6.57076416015625,-0.6691303849220276,0.0789177194237709,-1.859424114227295
1772537159407813400,6.5808134765625,-0.9060401320457458,0.05252472683787346,-1.1967039108276367
1772537159417861000,6.590861083984375,-0.9793098568916321,-0.09980941563844681,-0.39975354075431824
1772537159427909400,6.600909423828125,-0.9774962067604065,-0.3894020915031433,0.27877277135849
1772537159437958100,6.610958251953125,-0.9721248745918274,-0.7418552041053772,0.6568945050239563
1772537159448006400,6.62100634765625,-0.9440418481826782,-0.9263613820075989,0.6855823397636414
1772537159458054400,6.631054443359375,-0.8103631734848022,-0.8435986042022705,0.4130972921848297
1772537159468102100,6.64110205078125,-0.5239721536636353,-0.5245774984359741,-0.06334834545850754
1772537159478151400,6.6511513671875,-0.1348467618227005,0.004102333448827267,-0.6049658060073853
1772537159488199200,6.66119921875,0.231119766831398,0.5421828627586365,-1.0775679349899292
1772537159498247400,6.671247314453125,0.44729575514793396,0.8933454155921936,-1.362619161605835
1772537159508296200,6.681296142578125,0.4871731102466583,1.0514646768569946,-1.3407849073410034
1772537159518344400,6.691344482421875,0.35981276631355286,1.0183887481689453,-0.9221014380455017
1772537159528392200,6.70139208984375,0.12315841764211655,0.7556812763214111,-0.19289754331111908
1772537159538441200,6.711441162109375,-0.16711415350437164,0.28369563817977905,0.6550279259681702
1772537159548489200,6.7214892578125,-0.4125359058380127,-0.2481141984462738,1.3164010047912598
1772537159558537200,6.731537109375,-0.5478633642196655,-0.6085219383239746,1.6457775831222534
1772537159568585500,6.74158544921875,-0.5564286112785339,-0.773841381072998,1.59835946559906
1772537159578634200,6.75163427734375,-0.4393627345561981,-0.720937967300415,1.1892284154891968
1772537159588682200,6.76168212890625,-0.1925888955593109,-0.5439325571060181,0.5009227395057678
1772537159598730200,6.771730224609375,0.13405074179172516,-0.2912164032459259,-0.24403662979602814
1772537159608779300,6.781779296875,0.4615572392940521,0.04202095419168472,-0.8086142539978027
1772537159618827300,6.7918271484375,0.7185829281806946,0.3476810157299042,-1.080424189567566
1772537159628875300,6.801875244140625,0.873001754283905,0.57413250207901,-1.043210744857788
1772537159638924300,6.81192431640625,0.9114179015159607,0.7017386555671692,-0.7200756072998047
1772537159648972300,6.82197216796875,0.8318410515785217,0.5870994329452515,-0.23916757106781006
1772537159659020300,6.832020263671875,0.6287201046943665,0.30036142468452454,0.34183987975120544
1772537159669068300,6.842068359375,0.3424827754497528,-0.01642904058098793,0.9505618214607239
1772537159679117300,6.852117431640625,0.07179483026266098,-0.25562191009521484,1.4909310340881348
1772537159689165300,6.862165283203125,-0.11043303459882736,-0.34680429100990295,1.910829782485962
1772537159699213300,6.87221337890625,-0.1473473757505417,-0.3542046844959259,2.1759932041168213
1772537159709262300,6.882262451171875,-0.02899623103439808,-0.2551180422306061,2.2816312313079834
1772537159719310300,6.892310302734375,0.1882796287536621,-0.011460646986961365,2.2218360900878906
1772537159729358000,6.902358154296875,0.41776394844055176,0.30334416031837463,2.0217761993408203
1772537159739407400,6.912407470703125,0.6241602897644043,0.5883828401565552,1.7024174928665161
1772537159749455000,6.922455078125,0.7564842104911804,0.7897689342498779,1.346498727798462
1772537159759503400,6.93250341796875,0.7605777382850647,0.8224757313728333,1.0435987710952759
1772537159769551400,6.94255126953125,0.6671085357666016,0.6768815517425537,0.8343060612678528
1772537159779600400,6.952600341796875,0.5253069400787354,0.4754277765750885,0.6878535151481628
1772537159789648400,6.9626484375,0.38851019740104675,0.30986809730529785,0.5350868701934814
1772537159799696100,6.972696044921875,0.2753114700317383,0.2810673415660858,0.3763693869113922
1772537159809745400,6.982745361328125,0.2310180366039276,0.272418737411499,0.17224286496639252
1772537159819793200,6.992793212890625,0.23585300147533417,0.23083162307739258,-0.025496572256088257
1772537159829841400,7.00284130859375,0.24254553020000458,0.19104371964931488,-0.18255382776260376
1772537159839890200,7.01289013671875,0.2556517422199249,0.14266952872276306,-0.29696935415267944
1772537159849938400,7.0229384765625,0.2968423366546631,0.0520395003259182,-0.3404949903488159
1772537159859986400,7.032986328125,0.36474865674972534,-0.1406726986169815,-0.37267211079597473
1772537159870035200,7.04303515625,0.42220771312713623,-0.33339446783065796,-0.47245755791664124
1772537159880083200,7.053083251953125,0.42670392990112305,-0.40169471502304077,-0.6476845145225525
1772537159890131200,7.063131103515625,0.3789544999599457,-0.3722105920314789,-0.8470301032066345
1772537159900179500,7.073179443359375,0.2695518434047699,-0.28083354234695435,-1.0579324960708618
1772537159910228200,7.083228271484375,0.1068476215004921,-0.18662899732589722,-1.2506848573684692
1772537159920276500,7.0932763671875,-0.07945754379034042,-0.07467876374721527,-1.3563865423202515
1772537159930324200,7.10332421875,-0.2821957468986511,0.11596442013978958,-1.3506639003753662
1772537159940373200,7.113373291015625,-0.490969181060791,0.40278446674346924,-1.173510193824768
1772537159950421200,7.123421142578125,-0.6470743417739868,0.5576523542404175,-0.7932419776916504
1772537159960469200,7.13346923828125,-0.7433907985687256,0.3637467920780182,-0.2665528655052185
1772537159970518300,7.143518310546875,-0.8183838129043579,-0.10519353300333023,0.34845250844955444
1772537159980566300,7.153566162109375,-0.8612444400787354,-0.5956777334213257,0.8864622116088867
1772537159990614300,7.1636142578125,-0.8738236427307129,-0.8209097981452942,1.151911973953247
1772537160000662300,7.173662353515625,-0.8276734352111816,-0.7930837869644165,1.0407047271728516
1772537160010711300,7.183711181640625,-0.6784951686859131,-0.6349902749061584,0.5616140365600586
1772537160020759300,7.19375927734375,-0.4477604627609253,-0.4357624053955078,-0.1430109441280365
1772537160030807300,7.203807373046875,-0.1560623049736023,-0.0673699826002121,-0.8637790083885193
1772537160040856300,7.213856201171875,0.15458451211452484,0.350609689950943,-1.4403940439224243
1772537160050904300,7.223904296875,0.4817778170108795,0.6605398654937744,-1.725538969039917
1772537160060952000,7.2339521484375,0.71938157081604,0.7499248385429382,-1.6350653171539307
1772537160071001300,7.24400146484375,0.7413694262504578,0.5209595561027527,-1.2449532747268677
1772537160081049000,7.254049072265625,0.5708885192871094,0.10125018656253815,-0.6303667426109314
1772537160091097300,7.264097412109375,0.31320372223854065,-0.3062555193901062,0.06965124607086182
1772537160101145300,7.274145263671875,0.06679500639438629,-0.6110031604766846,0.6766708493232727
1772537160111194400,7.2841943359375,-0.1180238425731659,-0.8757826685905457,1.0828825235366821
1772537160121242400,7.294242431640625,-0.22002370655536652,-1.085110068321228,1.2517884969711304
1772537160131290000,7.3042900390625,-0.17778490483760834,-1.078843355178833,1.1840070486068726
1772537160141339400,7.31433935546875,0.028971729800105095,-0.8271538615226746,1.0020021200180054
1772537160151387100,7.32438720703125,0.2979280948638916,-0.39234036207199097,0.8385338187217712
1772537160161435400,7.334435302734375,0.5268600583076477,0.02786705084145069,0.753822922706604
1772537160171484200,7.344484130859375,0.6792088747024536,0.27375805377960205,0.7618462443351746
1772537160181532400,7.354532470703125,0.7615364789962769,0.3717852830886841,0.8332176208496094
1772537160191580400,7.364580322265625,0.7830607295036316,0.4144773483276367,0.9328888058662415
1772537160201628200,7.374628173828125,0.7662721276283264,0.38365259766578674,1.026627779006958
1772537160211677400,7.384677490234375,0.6865344047546387,0.2582043707370758,1.085121512413025
1772537160221725200,7.39472509765625,0.5207595825195312,0.15236610174179077,1.149215579032898
1772537160231773400,7.4047734375,0.30672451853752136,0.11720119416713715,1.2955924272537231
1772537160241822200,7.414822265625,0.11643233895301819,0.19437400996685028,1.5386298894882202
1772537160251870500,7.424870361328125,0.012761068530380726,0.38778820633888245,1.788288950920105
1772537160261918200,7.434918212890625,-0.007226753979921341,0.5977582335472107,1.9294044971466064
1772537160271967200,7.44496728515625,-0.03362081199884415,0.641523540019989,1.899105191230774
1772537160282015200,7.45501513671875,-0.08700334280729294,0.46945109963417053,1.6750593185424805
1772537160292063200,7.465063232421875,-0.14333584904670715,0.29446280002593994,1.2911396026611328
1772537160302111500,7.475111572265625,-0.1697557419538498,0.16433700919151306,0.819656252861023
1772537160312160300,7.48516015625,-0.14251907169818878,0.14307406544685364,0.34461116790771484
1772537160322208500,7.49520849609375,-0.06203221157193184,0.18111546337604523,-0.13439562916755676
1772537160332256300,7.50525634765625,0.07075033336877823,0.21026508510112762,-0.5681287050247192
1772537160342305300,7.51530517578125,0.2424352765083313,0.18766683340072632,-0.9626309871673584
1772537160352353300,7.525353271484375,0.3727045953273773,0.12546071410179138,-1.3134164810180664
1772537160362401300,7.5354013671875,0.41173696517944336,0.1118844598531723,-1.5789157152175903
1772537160372450300,7.5454501953125,0.35715174674987793,0.1458171159029007,-1.694754719734192
1772537160382498300,7.555498291015625,0.23424924910068512,0.16052868962287903,-1.5986236333847046
1772537160392546300,7.56554638671875,0.07252160459756851,0.06905630230903625,-1.2926051616668701
1772537160402594300,7.57559423828125,-0.07226806879043579,-0.13149544596672058,-0.8730641007423401
1772537160412643000,7.58564306640625,-0.22822783887386322,-0.374336838722229,-0.5106086730957031
1772537160422691300,7.59569140625,-0.4016238749027252,-0.7179288268089294,-0.39159199595451355
1772537160432739300,7.6057392578125,-0.5147541761398315,-1.0364590883255005,-0.5757504105567932
1772537160442788400,7.615788330078125,-0.6024041175842285,-1.130706787109375,-1.041329264640808
1772537160452836400,7.62583642578125,-0.6678406596183777,-0.873077392578125,-1.6697497367858887
1772537160462884000,7.635884033203125,-0.7557358741760254,-0.3652845025062561,-2.225992441177368
1772537160472933400,7.645933349609375,-0.8491811156272888,0.05574315786361694,-2.4990060329437256
1772537160482981000,7.655981201171875,-0.8869551420211792,0.2203906923532486,-2.411503553390503
1772537160493029400,7.666029296875,-0.8428084254264832,0.19343630969524384,-1.966476559638977
1772537160503078100,7.676078125,-0.7527605891227722,-0.05371862277388573,-1.3256847858428955
1772537160513126400,7.68612646484375,-0.7100014090538025,-0.40834301710128784,-0.7226178646087646
1772537160523174400,7.69617431640625,-0.7206569910049438,-0.6866774559020996,-0.3079703450202942
1772537160533222100,7.70622216796875,-0.7116488218307495,-0.7992423176765442,-0.0716203898191452
1772537160543271400,7.716271484375,-0.613875150680542,-0.7215787172317505,0.031389880925416946
1772537160553319200,7.726319091796875,-0.45217493176460266,-0.473564088344574,0.03796788677573204
1772537160563367400,7.736367431640625,-0.2632793188095093,-0.10699063539505005,-0.004575310740619898
1772537160573416200,7.746416259765625,-0.06751539558172226,0.30597004294395447,-0.057978879660367966
1772537160583464400,7.75646435546875,0.15313228964805603,0.6465715765953064,-0.034027207642793655
1772537160593512200,7.76651220703125,0.3629814088344574,0.8454899787902832,0.07888150215148926
1772537160603561500,7.7765615234375,0.4918632209300995,0.7980968952178955,0.2728445827960968
1772537160613609200,7.786609130859375,0.5043656826019287,0.5837215185165405,0.5124971270561218
1772537160623657200,7.7966572265625,0.3769014775753021,0.32077401876449585,0.7654284238815308
1772537160633705500,7.80670556640625,0.15508225560188293,0.1368987262248993,1.0158201456069946
1772537160643754200,7.816754150390625,-0.060563478618860245,0.016090553253889084,1.190017819404602
1772537160653802500,7.826802490234375,-0.2356538027524948,-0.09041085839271545,1.2474411725997925
1772537160663850200,7.836850341796875,-0.3462647497653961,-0.2798721194267273,1.1618818044662476
1772537160673899300,7.846899169921875,-0.32978561520576477,-0.4800744652748108,0.8953933715820312
1772537160683947300,7.856947265625,-0.2421998530626297,-0.44444510340690613,0.43811050057411194
1772537160693995300,7.866995361328125,-0.11552100628614426,-0.17795002460479736,-0.08776260912418365
1772537160704044300,7.877044189453125,0.0819137766957283,0.14912450313568115,-0.444606214761734
1772537160714092300,7.88709228515625,0.3270457684993744,0.38378894329071045,-0.5181059837341309
1772537160724140300,7.897140380859375,0.5427711606025696,0.48828205466270447,-0.283212810754776
1772537160734188300,7.907188232421875,0.686276376247406,0.5016865730285645,0.1822960376739502
1772537160744237300,7.9172373046875,0.7536655068397522,0.529899001121521,0.7174050211906433
1772537160754285300,7.927285400390625,0.7299364805221558,0.5930699706077576,1.2364680767059326
1772537160764333300,7.937333251953125,0.588551938533783,0.5525414943695068,1.6306761503219604
1772537160774382300,7.94738232421875,0.36110812425613403,0.4545922875404358,1.8753039836883545
1772537160784430300,7.957430419921875,0.09572625905275345,0.4116578698158264,1.9644263982772827
1772537160794478000,7.96747802734375,-0.1684073805809021,0.38214391469955444,1.899090051651001
1772537160804527400,7.97752734375,-0.3689418137073517,0.40818536281585693,1.7633018493652344
1772537160814575000,7.9875751953125,-0.4476137161254883,0.5005408525466919,1.5646170377731323
1772537160824623400,7.997623291015625,-0.40124037861824036,0.5631810426712036,1.2664518356323242
1772537160834671400,8.00767138671875,-0.2706184387207031,0.5742395520210266,0.8661585450172424
1772537160844720400,8.017720458984375,-0.12814758718013763,0.46677276492118835,0.39391374588012695
1772537160854768400,8.027768310546875,-0.018695389851927757,0.25524401664733887,-0.06986430287361145
1772537160864816000,8.037816162109374,0.05462436378002167,0.12079112976789474,-0.4710857570171356
1772537160874865400,8.047865478515625,0.13599538803100586,0.07748760282993317,-0.8072928190231323
1772537160884913200,8.0579130859375,0.1812928318977356,0.12049978226423264,-1.0400667190551758
1772537160894961400,8.06796142578125,0.15562261641025543,0.14470072090625763,-1.168670654296875
1772537160905010200,8.07801025390625,0.047811198979616165,0.1116061583161354,-1.2292160987854004
1772537160915058400,8.088058349609375,-0.08693329989910126,-0.01667778007686138,-1.2145239114761353
1772537160925106200,8.098106201171875,-0.21755363047122955,-0.227158322930336,-1.1007829904556274
1772537160935154200,8.108154296875,-0.3179454803466797,-0.43187764286994934,-0.8630450367927551
1772537160945203200,8.118203125,-0.3835367262363434,-0.5721471309661865,-0.5755093693733215
1772537160955251200,8.128251220703126,-0.45423728227615356,-0.6069820523262024,-0.4543350040912628
1772537160965299500,8.138299560546875,-0.5367462635040283,-0.6462759375572205,-0.6400313973426819
1772537160975348200,8.14834814453125,-0.5873798727989197,-0.618358314037323,-1.0500884056091309
1772537160985396500,8.158396484375,-0.5878475308418274,-0.4225136935710907,-1.6129629611968994
1772537160995444200,8.1684443359375,-0.5800796151161194,-0.13871021568775177,-2.176088571548462
1772537161005493500,8.178493408203124,-0.6088628172874451,0.16236893832683563,-2.471540689468384
1772537161015541200,8.188541259765625,-0.6957234144210815,0.2965419292449951,-2.3864638805389404
1772537161025589200,8.19858935546875,-0.8269909024238586,0.19455909729003906,-1.890212893486023
1772537161035637500,8.208637451171874,-0.9655647277832031,-0.1283012479543686,-1.1625055074691772
1772537161045686300,8.218686279296875,-1.0666226148605347,-0.5157344341278076,-0.4279595911502838
1772537161055734300,8.228734375,-1.0634089708328247,-0.8218560218811035,0.14254222810268402
1772537161065782300,8.2387822265625,-0.9801652431488037,-0.9884540438652039,0.3226957619190216
1772537161075831300,8.248831298828126,-0.8351752758026123,-0.9209794402122498,0.16154149174690247
1772537161085879300,8.25887939453125,-0.5987233519554138,-0.5696048736572266,-0.20282235741615295
1772537161095927000,8.268927001953125,-0.33906620740890503,-0.06496941298246384,-0.6555195450782776
1772537161105976000,8.27897607421875,-0.13845402002334595,0.3875650465488434,-1.0010374784469604
1772537161116024000,8.289024169921875,-0.004246943164616823,0.7113507986068726,-1.0814048051834106
1772537161126072000,8.299072021484376,0.05462196469306946,0.7848809957504272,-0.890342652797699
1772537161136120000,8.3091201171875,0.03940359875559807,0.5714195370674133,-0.429179847240448
1772537161146169000,8.319169189453126,-0.031671907752752304,0.21831315755844116,0.16727900505065918
1772537161156217000,8.329217041015625,-0.13734906911849976,-0.039384689182043076,0.7135412693023682
1772537161166265000,8.33926513671875,-0.23093734681606293,-0.2091289907693863,1.0358834266662598
1772537161176314000,8.349314208984374,-0.31322261691093445,-0.3730473518371582,1.1258037090301514
1772537161186362000,8.359362060546875,-0.37984001636505127,-0.468362957239151,1.0802515745162964
1772537161196410000,8.36941015625,-0.3871128261089325,-0.44050735235214233,0.8986712098121643
1772537161206458000,8.3794580078125,-0.3780732750892639,-0.2929024398326874,0.5645112991333008
1772537161216507100,8.389507080078126,-0.40793901681900024,-0.17047347128391266,0.2308686375617981
1772537161226555100,8.39955517578125,-0.2702706456184387,-0.08393830806016922,-0.11810586601495743
1772537161236603100,8.40960302734375,-0.07648465782403946,0.087288036942482,-0.2810788154602051
1772537161246652200,8.419652099609374,0.08860496431589127,0.24166668951511383,-0.30834558606147766
1772537161256700200,8.4297001953125,0.24103552103042603,0.19404084980487823,-0.15652889013290405
1772537161266748200,8.439748046875,0.3246811330318451,-0.24034655094146729,0.23433233797550201
1772537161276797200,8.449797119140625,0.2948090136051178,-0.7092565298080444,0.6359657645225525
1772537161286845000,8.459844970703125,0.12641200423240662,-0.9328200817108154,1.0116206407546997
1772537161296893200,8.46989306640625,-0.03758785501122475,-0.9179080128669739,1.3355443477630615
1772537161306941000,8.47994091796875,0.00688959751278162,-0.7703571319580078,1.5390831232070923
