time,seconds_elapsed,z,y,x
1772571986447340000,0.113340087890625,7.668398380279541,5.07218599319458,-0.21595224738121033
1772571986465173000,0.131173095703125,7.688737392425537,5.092525005340576,-0.32123643159866333
1772571986483008000,0.149008056640625,7.895118236541748,4.969892501831055,-0.41096729040145874
1772571986500844300,0.16684423828125,7.769495010375977,4.805386066436768,-0.4175475537776947
1772571986518687200,0.184687255859375,7.607381343841553,4.834099769592285,-0.3326023519039154
1772571986536522000,0.20252197265625,7.706085205078125,4.832305431365967,-0.2021935135126114
1772571986554356500,0.2203564453125,7.474579811096191,4.9399824142456055,-0.05802594870328903
1772571986572190200,0.238190185546875,7.811967849731445,5.19960355758667,0.16091732680797577
1772571986590018600,0.2560185546875,7.448856830596924,5.4628143310546875,0.25363919138908386
1772571986607858700,0.273858642578125,7.007380962371826,5.757131099700928,0.24586252868175507
1772571986625693400,0.291693359375,6.98405122756958,6.0263237953186035,0.31405797600746155
1772571986643527200,0.309527099609375,7.76052188873291,6.032904148101807,0.4007977843284607
1772571986661361700,0.327361572265625,7.966903209686279,5.879763603210449,0.363709032535553
1772571986679195400,0.3451953125,8.24147891998291,5.96889591217041,0.4785645306110382
1772571986697030100,0.363030029296875,8.998807907104492,5.918646812438965,0.3188436031341553
1772571986714863900,0.38086376953125,10.326824188232422,5.42153787612915,0.07118647545576096
1772571986732699000,0.398698974609375,11.517253875732422,4.989035129547119,0.4408775866031647
1772571986750532400,0.416532470703125,11.837891578674316,4.615755081176758,0.529412031173706
1772571986768366300,0.434366455078125,11.82891845703125,4.5828537940979,0.4145565330982208
1772571986786201300,0.452201416015625,11.640483856201172,4.770689964294434,0.37926238775253296
1772571986804035600,0.47003564453125,11.010573387145996,4.840082168579102,0.43489551544189453
1772571986821869800,0.487869873046875,10.776076316833496,5.1768717765808105,0.6915257573127747
1772571986839703600,0.50570361328125,10.89153003692627,4.911866664886475,0.4378865361213684
1772571986857536500,0.52353662109375,11.230114936828613,4.085146427154541,-0.025722842663526535
1772571986875373300,0.541373291015625,11.656635284423828,3.2482566833496094,-0.39481574296951294
1772571986893209600,0.559209716796875,11.722437858581543,2.231307029724121,-0.4983053207397461
1772571986911040500,0.57704052734375,11.143375396728516,1.475175142288208,-0.48574298620224
1772571986928874500,0.59487451171875,10.140782356262207,1.3878371715545654,-0.39960137009620667
1772571986946696400,0.612696533203125,9.090332984924316,1.594218134880066,-0.15314064919948578
1772571986964543500,0.63054345703125,8.230711936950684,2.0069799423217773,0.15074782073497772
1772571986982378000,0.6483779296875,8.004590034484863,2.179861545562744,0.3320041298866272
1772571987000211700,0.666211669921875,8.1553373336792,2.0404794216156006,0.35533416271209717
1772571987018045700,0.684045654296875,8.102097511291504,2.114656925201416,0.5808576941490173
1772571987035880400,0.70188037109375,7.69531774520874,2.4095723628997803,0.7184450030326843
1772571987053714700,0.719714599609375,7.394420146942139,2.627917528152466,0.7543373107910156
1772571987071549000,0.737548828125,7.36032247543335,3.077169895172119,1.2376874685287476
1772571987089383000,0.7553828125,7.028318405151367,3.418745279312134,1.6959130764007568
1772571987107217700,0.7732177734375,7.202396392822266,3.638885021209717,1.6719847917556763
1772571987125051600,0.7910517578125,7.599006652832031,3.882354736328125,1.3280165195465088
1772571987142886100,0.80888623046875,7.932207107543945,3.9864425659179688,0.9050851464271545
1772571987160720400,0.826720458984375,8.24686336517334,4.029513359069824,0.4863412082195282
1772571987178553900,0.844553955078125,8.312067985534668,3.9320058822631836,0.11605189740657806
1772571987196388400,0.862388427734375,8.12123966217041,4.003790378570557,0.001794616924598813
1772571987214222800,0.880222900390625,8.051848411560059,4.360321044921875,0.024526432156562805
1772571987232057000,0.89805712890625,7.777271747589111,4.517649173736572,-0.2476571500301361
1772571987249891000,0.91589111328125,7.781459331512451,4.841278553009033,-0.267397940158844
1772571987267725300,0.933725341796875,8.024331092834473,5.290530681610107,-0.12861421704292297
1772571987285559800,0.951559814453125,7.850253105163574,5.3455657958984375,-0.23808585107326508
1772571987303394300,0.969394287109375,7.479963779449463,5.232504844665527,-0.3367897868156433
1772571987321228800,0.987228759765625,7.812565803527832,5.1343994140625,0.0687936544418335
1772571987339062300,1.005062255859375,8.443074226379395,4.937589645385742,0.672383189201355
1772571987356896800,1.022896728515625,9.482157707214355,4.528416633605957,0.8679963946342468
1772571987374730800,1.040730712890625,10.218548774719238,3.9212381839752197,0.7429714202880859
1772571987392553000,1.058552978515625,10.760523796081543,3.328416347503662,0.6771687865257263
1772571987410403000,1.076403076171875,11.440683364868164,3.4923245906829834,1.2047861814498901
1772571987428233700,1.094233642578125,12.191431045532227,3.9942193031311035,1.3603196144104004
1772571987446056000,1.112055908203125,12.488739967346191,3.9870407581329346,1.077966570854187
1772571987463902500,1.12990234375,12.154342651367188,3.8913278579711914,0.7854440212249756
1772571987481737000,1.147737060546875,11.743375778198242,3.4755749702453613,0.4456632137298584
1772571987499570700,1.16557080078125,11.528020858764648,2.963510751724243,0.26081767678260803
1772571987517400800,1.18340087890625,11.235498428344727,2.4083759784698486,0.05623133108019829
1772571987535239700,1.20123974609375,10.575079917907715,1.903490424156189,-0.25304099917411804
1772571987553069000,1.219069091796875,10.159326553344727,1.5182459354400635,-0.3732803463935852
1772571987570910000,1.236909912109375,9.510273933410645,1.5379867553710938,-0.18903298676013947
1772571987588744400,1.254744384765625,8.957531929016113,1.6875381469726562,-0.037088751792907715
1772571987606573800,1.27257373046875,8.51306438446045,1.8185452222824097,-0.08075776696205139
1772571987624414000,1.2904140625,8.316255569458008,1.8400806188583374,-0.21655045449733734
1772571987642241300,1.3082412109375,8.060222625732422,2.1337995529174805,-0.3032902777194977
1772571987660082000,1.32608203125,7.974081516265869,2.469393014907837,-0.32961133122444153
1772571987677913000,1.3439130859375,7.594819068908691,2.8115665912628174,-0.24885354936122894
1772571987695747300,1.361747314453125,7.4123663902282715,3.10109806060791,-0.14715859293937683
1772571987713581800,1.379581787109375,7.290332317352295,3.445066452026367,0.13160525262355804
1772571987731416000,1.397416015625,7.131209850311279,3.768097400665283,0.5102694034576416
1772571987749250000,1.41525,7.015157699584961,3.9212381839752197,0.753140926361084
1772571987767084800,1.433084716796875,6.97268533706665,4.027718544006348,1.0402796268463135
1772571987784919000,1.4509189453125,7.062416076660156,4.432105541229248,1.536790370941162
1772571987802753500,1.46875341796875,7.310073375701904,4.84606409072876,1.9256240129470825
1772571987820587800,1.486587890625,7.599604606628418,5.200799942016602,2.2402801513671875
1772571987838421500,1.50442138671875,7.7455668449401855,5.568098068237305,2.5399811267852783
1772571987856256300,1.52225634765625,8.02373218536377,5.626124382019043,2.504088878631592
1772571987874084900,1.5400849609375,8.452047348022461,5.5968122482299805,2.617149829864502
1772571987891924700,1.5579248046875,8.858229637145996,5.517251014709473,2.96111798286438
1772571987909752600,1.575752685546875,9.372088432312012,5.378467082977295,3.331407308578491
1772571987927592700,1.5935927734375,10.01037311553955,5.016552448272705,3.5401811599731445
1772571987945430000,1.611429931640625,10.535597801208496,4.548755645751953,3.562912940979004
1772571987963264300,1.62926416015625,11.286944389343262,4.31007194519043,3.50129771232605
1772571987981096200,1.64709619140625,11.670393943786621,3.9499518871307373,3.080759048461914
1772571987998930200,1.66493017578125,11.364112854003906,3.565903902053833,2.812762975692749
1772571988016764700,1.6827646484375,10.776076316833496,3.970889091491699,3.250051259994507
1772571988034599200,1.70059912109375,11.13619613647461,4.445266246795654,3.4139597415924072
1772571988052432600,1.7184326171875,11.59262752532959,5.050650596618652,3.4713873863220215
1772571988070264300,1.736264404296875,10.998010635375977,4.718048095703125,2.8151557445526123
1772571988088104200,1.754104248046875,10.859227180480957,3.263211965560913,1.3836497068405151
1772571988105936000,1.771935791015625,11.027921676635742,2.662015199661255,1.0911271572113037
1772571988123770400,1.789770263671875,10.326824188232422,1.9926230907440186,1.0564311742782593
1772571988141601500,1.8076015625,9.603593826293945,1.714457392692566,1.2346965074539185
1772571988159441400,1.82544140625,8.746963500976562,1.82273268699646,1.591825246810913
1772571988177272600,1.8432724609375,7.978269100189209,2.008176326751709,1.843071699142456
1772571988195106800,1.86110693359375,7.529016494750977,2.1924238204956055,2.011167526245117
1772571988212940300,1.878940185546875,7.2436723709106445,2.317448616027832,2.0315065383911133
1772571988230776800,1.89677685546875,7.130611419677734,2.451446771621704,1.9280169010162354
1772571988248609800,1.91460986328125,7.2227349281311035,2.4263222217559814,1.6307085752487183
1772571988266444500,1.932444580078125,7.439883708953857,2.2331018447875977,1.2705888748168945
1772571988284279000,1.950279052734375,7.608577728271484,2.186441659927368,1.1431710720062256
1772571988302113000,1.968113037109375,7.794619560241699,2.2779672145843506,1.0821540355682373
1772571988319947000,1.985947021484375,7.913064479827881,2.3814568519592285,1.0205388069152832
1772571988337781200,2.00378125,8.438288688659668,2.5405795574188232,0.9421738982200623
1772571988355616000,2.021615966796875,8.59920597076416,2.8139593601226807,0.6711867451667786
1772571988373450200,2.0394501953125,8.662615776062012,2.8677978515625,0.22971096634864807
1772571988391284500,2.057284423828125,8.800801277160645,2.9623143672943115,0.10289137065410614
1772571988409118700,2.07511865234375,8.801998138427734,3.122035264968872,0.19740787148475647
1772571988426953200,2.092953125,9.013762474060059,3.3990044593811035,0.33738797903060913
1772571988444787200,2.110787109375,9.219545364379883,3.4809587001800537,0.22492532432079315
1772571988462609700,2.128609619140625,9.524630546569824,3.497708559036255,0.029312077909708023
1772571988480450300,2.1464501953125,9.425328254699707,3.61435866355896,-0.05383851006627083
1772571988498281000,2.164281005859375,9.241679191589355,3.9188451766967773,-0.038285162299871445
1772571988516123600,2.18212353515625,9.007781028747559,4.194618225097656,0.03170489892363548
1772571988533959000,2.199958984375,8.660821914672852,4.4997029304504395,0.09571290761232376
1772571988551793200,2.217793212890625,8.547760963439941,4.53499698638916,-0.18065811693668365
1772571988569627000,2.235626953125,8.58066177368164,4.536791801452637,-0.26500511169433594
1772571988587457800,2.253457763671875,8.840283393859863,4.695914268493652,-0.14356936514377594
1772571988605297400,2.27129736328125,9.125029563903809,4.874777793884277,0.12323036789894104
1772571988623129000,2.289129150390625,9.704092025756836,5.405984401702881,0.584446907043457
1772571988640964600,2.306964599609375,9.804591178894043,5.38205623626709,0.5682953596115112
1772571988658798000,2.324798095703125,9.425328254699707,5.580062389373779,0.5940182209014893
1772571988676632800,2.3426328125,9.385847091674805,5.5345988273620605,0.28953152894973755
1772571988694467000,2.360467041015625,9.604191780090332,5.08654260635376,0.09391828626394272
1772571988712289000,2.3782890625,9.994221687316895,4.479962348937988,0.07058826833963394
1772571988730135600,2.396135498046875,10.694122314453125,3.573082447052002,-0.035892341285943985
1772571988747969800,2.4139697265625,10.815558433532715,3.270390272140503,0.04426721855998039
1772571988765800200,2.43180029296875,9.393623352050781,2.7810580730438232,0.04905286431312561
1772571988783639000,2.44963916015625,9.748957633972168,2.63449764251709,0.04247260093688965
1772571988801473500,2.4674736328125,9.306883811950684,3.1752755641937256,0.28953152894973755
1772571988819306800,2.485306640625,8.878568649291992,3.2410783767700195,0.18424734473228455
1772571988837141800,2.503141845703125,8.410771369934082,3.297309637069702,0.10588239878416061
1772571988854976300,2.520976318359375,8.018348693847656,3.476173162460327,0.1908276081085205
1772571988872810200,2.538810302734375,7.772486209869385,3.597010612487793,0.34277185797691345
1772571988890645000,2.55664501953125,7.613363265991211,3.7052857875823975,0.47198426723480225
1772571988908479200,2.574479248046875,7.595417499542236,3.8362929821014404,0.47617170214653015
1772571988926313000,2.59231298828125,7.624729156494141,3.869194269180298,0.43489551544189453
1772571988944147700,2.610147705078125,7.667799949645996,3.8662030696868896,0.4450650215148926
1772571988961982000,2.62798193359375,7.770691394805908,3.8386857509613037,0.6747759580612183
1772571988979816000,2.64581591796875,7.9005022048950195,3.7501513957977295,0.882951557636261
1772571988997650200,2.663650146484375,8.118846893310547,3.652045488357544,0.9846464991569519
1772571989015484400,2.681484375,8.446065902709961,3.628117322921753,1.0169496536254883
1772571989033319000,2.69931884765625,8.780462265014648,3.6185460090637207,0.9888339638710022
1772571989051153400,2.7171533203125,8.877969741821289,3.652045488357544,1.0001999139785767
1772571989068987400,2.7349873046875,8.824729919433594,3.79681134223938,0.8781659007072449
1772571989086822000,2.75282177734375,8.867202758789062,4.1659040451049805,0.4085744619369507
1772571989104656600,2.77065673828125,8.434102058410645,4.429114818572998,-0.2799602448940277
1772571989122491000,2.788490966796875,8.223533630371094,4.705485820770264,-1.2765709161758423
1772571989140325000,2.8063251953125,8.316853523254395,5.012365341186523,-1.8801604509353638
1772571989158159000,2.8241591796875,8.432905197143555,5.186442852020264,-1.659422516822815
1772571989175990000,2.841989990234375,7.945965766906738,5.221138954162598,-1.067797064781189
1772571989193827800,2.859827880859375,7.091129779815674,5.248656272888184,-0.6005984544754028
1772571989211649800,2.87764990234375,7.159923553466797,5.081757068634033,-0.3852444589138031
1772571989229496600,2.89549658203125,8.057231903076172,4.730011940002441,-0.18364913761615753
1772571989247322600,2.913322509765625,9.011369705200195,4.421338081359863,0.0077766734175384045
1772571989265165600,2.93116552734375,9.452845573425293,4.535595417022705,0.40737804770469666
1772571989282999000,2.9489990234375,10.079765319824219,4.718048095703125,0.8303094506263733
1772571989300834800,2.966834716796875,10.223334312438965,4.813760757446289,1.2897313833236694
1772571989318668300,2.984668212890625,10.617551803588867,4.9740800857543945,1.409970760345459
1772571989336502800,3.002502685546875,10.814960479736328,4.4997029304504395,0.7758727669715881
1772571989354337300,3.020337158203125,10.481161117553711,4.028316974639893,0.46719861030578613
1772571989372171300,3.038171142578125,10.039087295532227,3.792025566101074,0.4624129831790924
1772571989390001000,3.0560009765625,9.558130264282227,3.6502509117126465,0.4785645306110382
1772571989407828000,3.073827880859375,9.810572624206543,3.4881372451782227,0.5132604837417603
1772571989425671400,3.09167138671875,10.351948738098145,3.329014539718628,0.6861419081687927
1772571989443509000,3.109509033203125,10.96032428741455,3.1561331748962402,0.8057830333709717
1772571989461345500,3.127345458984375,11.12602710723877,2.8767709732055664,0.6915257573127747
1772571989479177000,3.145177001953125,11.098509788513184,2.640479803085327,0.4707878530025482
1772571989497011500,3.163011474609375,10.908280372619629,2.455634355545044,0.22372891008853912
1772571989514845700,3.180845703125,10.525428771972656,2.375474691390991,0.053240302950143814
1772571989532680000,3.198679931640625,9.934401512145996,2.1505494117736816,-0.1908276081085205
1772571989550514400,3.216514404296875,9.277571678161621,2.1469600200653076,-0.26500511169433594
1772571989568348700,3.2343486328125,8.689535140991211,2.35872483253479,-0.3481557071208954
1772571989586183700,3.25218359375,8.303692817687988,2.4939193725585938,-0.6227321028709412
1772571989604018000,3.270017822265625,8.09252643585205,2.586043119430542,-0.576670229434967
1772571989621852200,3.28785205078125,8.060222625732422,2.700300455093384,-0.42771705985069275
1772571989639686000,3.305685791015625,7.970492362976074,2.7397818565368652,-0.3858426511287689
1772571989657513700,3.323513671875,7.8819580078125,2.7523441314697266,-0.39481574296951294
1772571989675337500,3.34133740234375,7.981259822845459,2.7218358516693115,-0.4205385744571686
1772571989693189400,3.359189453125,7.969295978546143,2.761915445327759,-0.41096729040145874
1772571989711011800,3.37701171875,7.988438606262207,2.7667012214660645,-0.4139583110809326
1772571989728857600,3.394857666015625,8.035696983337402,2.871387243270874,-0.4540380835533142
1772571989746692600,3.412692626953125,8.202595710754395,3.0903303623199463,-0.4612165689468384
1772571989764526800,3.43052685546875,8.11406135559082,3.3415768146514893,-0.32602208852767944
1772571989782361000,3.448361083984375,8.180462837219238,3.623929977416992,-0.259621262550354
1772571989800195000,3.466195068359375,8.244470596313477,3.744767427444458,-0.1501496136188507
1772571989818029300,3.484029296875,8.6243314743042,3.9116668701171875,0.0323031060397625
1772571989835864000,3.501864013671875,9.30867862701416,4.030111312866211,0.11425728350877762
1772571989853694200,3.519694091796875,9.632308006286621,4.277768611907959,0.28953152894973755
1772571989871534000,3.5375341796875,10.012167930603027,4.792823791503906,0.39960137009620667
1772571989889370600,3.55537060546875,10.375279426574707,4.77667236328125,0.1501496136188507
1772571989907197000,3.573197021484375,11.013564109802246,4.768895626068115,0.054436713457107544
1772571989925040400,3.591040283203125,12.102298736572266,4.428516387939453,0.04007977992296219
1772571989942870300,3.608870361328125,13.074382781982422,3.775874137878418,0.07118647545576096
1772571989960704500,3.62670458984375,13.16530990600586,3.355933666229248,0.12382857501506805
1772571989978538500,3.64453857421875,12.570096015930176,2.624328136444092,-0.3517449200153351
1772571989996373000,3.662373046875,12.122039794921875,2.2067806720733643,-0.908674418926239
1772571990014207200,3.680207275390625,11.674581527709961,1.9669002294540405,-1.2610175609588623
1772571990032041700,3.698041748046875,11.059626579284668,1.9830517768859863,-1.256830096244812
1772571990049876000,3.7158759765625,10.007980346679688,2.08713960647583,-1.2759727239608765
1772571990067710500,3.73371044921875,9.007781028747559,2.084746837615967,-1.287936806678772
1772571990085529600,3.751529541015625,8.15234661102295,2.118844509124756,-1.1748759746551514
1772571990103378700,3.769378662109375,7.40399169921875,2.1409780979156494,-1.179661512374878
1772571990121204700,3.787204833984375,6.829115867614746,2.3228325843811035,-1.2939188480377197
1772571990139047700,3.805047607421875,6.282355785369873,2.723032236099243,-1.0342975854873657
1772571990156882400,3.82288232421875,5.7164530754089355,2.764308452606201,-0.7208378314971924
1772571990174717000,3.840717041015625,5.110470771789551,2.66560435295105,-0.3439682424068451
1772571990192551200,3.85855126953125,4.9160542488098145,2.736790895462036,-0.2350948303937912
1772571990210385700,3.8763857421875,5.662614822387695,2.448455810546875,-0.6484549641609192
1772571990228219400,3.894219482421875,6.262016773223877,2.3156540393829346,-0.7441678643226624
1772571990246054000,3.912053955078125,6.774080753326416,2.383849620819092,-0.6400800347328186
1772571990263888600,3.929888671875,7.15513801574707,2.4191436767578125,-0.5712863802909851
1772571990281723100,3.94772314453125,7.596015453338623,2.4885356426239014,-0.42711883783340454
1772571990299556900,3.965556884765625,8.014759063720703,2.6943182945251465,-0.08853443711996078
1772571990317395700,3.983395751953125,8.644071578979492,2.8773691654205322,0.2153540402650833
1772571990335225600,4.0012255859375,9.017950057983398,3.1280174255371094,0.4785645306110382
1772571990353058800,4.019058837890625,9.357730865478516,3.4002010822296143,0.625723123550415
1772571990370897000,4.03689697265625,9.81655502319336,3.6340994834899902,0.6867401003837585
1772571990388728600,4.054728515625,10.39202880859375,3.6843485832214355,0.6819544434547424
1772571990406563300,4.072563232421875,10.811968803405762,3.6813576221466064,0.5760720372200012
1772571990424397800,4.090397705078125,11.142776489257812,3.665804386138916,0.4007977843284607
1772571990442232000,4.108232177734375,11.56690502166748,3.4444682598114014,0.3278166949748993
1772571990460051500,4.126051513671875,11.729616165161133,3.5294134616851807,0.7674978375434875
1772571990477889300,4.14388916015625,12.138789176940918,3.8111681938171387,1.2855439186096191
1772571990495726000,4.16172607421875,12.714262962341309,3.31884503364563,0.6161518096923828
1772571990513569300,4.1795693359375,13.134203910827637,2.5944180488586426,-0.28654050827026367
1772571990531403500,4.197403564453125,13.333406448364258,1.7455641031265259,-0.771087110042572
1772571990549239300,4.2152392578125,13.085150718688965,0.8656035661697388,-0.7483552694320679
1772571990587135500,4.253135498046875,12.0335054397583,-0.06400800496339798,0.18963119387626648
1772571990604969200,4.27096923828125,11.547163963317871,-0.04187439754605293,0.6945167779922485
1772571990622804000,4.288803955078125,11.08893871307373,-0.04426721855998039,0.6221339106559753
1772571990640638200,4.30663818359375,10.682756423950195,0.09152546525001526,0.3966103494167328
1772571990658472700,4.32447265625,10.319645881652832,0.012562318705022335,0.12861421704292297
1772571990676294700,4.342294677734375,10.02413272857666,-0.09930214285850525,-0.12502498924732208
1772571990694141400,4.360141357421875,9.747162818908691,-0.1537388563156128,-0.24945175647735596
1772571990711967200,4.37796728515625,9.42772102355957,-0.17946170270442963,-0.37926238775253296
1772571990729810000,4.395809814453125,9.17886734008789,-0.14297115802764893,-0.4654040038585663
1772571990747644000,4.413643798828125,8.825926780700684,-0.10229317098855972,-0.5282155871391296
1772571990765478700,4.431478759765625,8.443673133850098,-0.008973085321485996,-0.6394818425178528
1772571990783313000,4.44931298828125,8.133204460144043,0.11844471842050552,-0.6927221417427063
1772571990801147600,4.467147705078125,7.9657063484191895,0.39062830805778503,-0.5216353535652161
1772571990818981400,4.4849814453125,8.01775074005127,0.6209374666213989,-0.27337998151779175
1772571990836816400,4.50281640625,8.14636516571045,0.6358926296234131,-0.2679961323738098
1772571990854650600,4.520650634765625,8.25105094909668,0.7507480978965759,-0.3924229145050049
1772571990872482300,4.538482421875,8.527421951293945,0.9290133714675903,-0.6209374666213989
1772571990890322000,4.556322021484375,8.689535140991211,1.0103694200515747,-0.893121063709259
1772571990908149500,4.5741494140625,8.764909744262695,1.2741780281066895,-0.97926265001297
1772571990925989600,4.59198974609375,8.726624488830566,1.5032907724380493,-0.9649057388305664
1772571990943822800,4.60982275390625,8.735597610473633,1.7425731420516968,-0.989432156085968
1772571990961656000,4.627656005859375,8.897112846374512,1.9250258207321167,-1.0606186389923096
1772571990979491000,4.645490966796875,9.016156196594238,2.035693883895874,-1.0462616682052612
1772571990997325000,4.663324951171875,9.130413055419922,2.2085752487182617,-0.9320043921470642
1772571991015159800,4.681159912109375,9.340383529663086,2.314457654953003,-0.9505487680435181
1772571991032992500,4.698992431640625,9.722038269042969,2.3784656524658203,-1.0929217338562012
1772571991050829300,4.716829345703125,10.189236640930176,2.4819552898406982,-1.0636097192764282
1772571991068662800,4.734662841796875,10.398609161376953,3.057429075241089,-0.7441678643226624
1772571991086497500,4.75249755859375,10.316655158996582,3.1621150970458984,-0.8350951075553894
1772571991104331500,4.77033154296875,10.350752830505371,3.0035905838012695,-1.0971091985702515
1772571991122166000,4.788166015625,10.584650993347168,2.7661030292510986,-1.1443674564361572
1772571991140000300,4.806000244140625,10.958529472351074,2.108076810836792,-1.109073281288147
1772571991157835000,4.8238349609375,11.456236839294434,1.695314884185791,-0.9020941257476807
1772571991175671300,4.84167138671875,11.786446571350098,1.319043517112732,-0.9014959335327148
1772571991193503200,4.859503173828125,11.843873977661133,1.1473584175109863,-1.043868899345398
1772571991211338200,4.877338134765625,11.600403785705566,1.0977073907852173,-1.287936806678772
1772571991229172200,4.895172119140625,11.170892715454102,0.9750752449035645,-1.6037893295288086
1772571991247006000,4.913005859375,10.502696990966797,1.0378868579864502,-1.6151553392410278
1772571991264841000,4.930841064453125,9.614361763000488,1.1479566097259521,-1.6265212297439575
1772571991282675200,4.94867529296875,8.831908226013184,1.2394821643829346,-1.5044872760772705
1772571991300509700,4.966509765625,8.225327491760254,1.461416482925415,-1.3004990816116333
1772571991318343400,4.984343505859375,7.71386194229126,1.7174484729766846,-1.1012966632843018
1772571991336178400,5.002178466796875,7.475177764892578,1.9316060543060303,-0.9014959335327148
1772571991354012700,5.0200126953125,7.408178806304932,2.1373889446258545,-0.6299105882644653
1772571991371847400,5.037847412109375,7.426723480224609,2.252842426300049,-0.39601215720176697
1772571991389681200,5.05568115234375,7.421937465667725,2.338984251022339,-0.20997019112110138
1772571991407510800,5.0735107421875,7.374081134796143,2.4400808811187744,-0.038285162299871445
1772571991425347000,5.09134716796875,7.670193195343018,2.4843480587005615,0.053240302950143814
1772571991443188000,5.10918798828125,7.88494873046875,2.485544443130493,0.03469592705368996
1772571991461018600,5.1270185546875,8.185248374938965,2.654836654663086,0.02512463741004467
1772571991478853000,5.14485302734375,8.242077827453613,2.779263496398926,-0.003589233849197626
1772571991496687400,5.162687255859375,8.251648902893066,2.8414769172668457,0.05383851006627083
1772571991514521900,5.18052197265625,8.318049430847168,3.0143582820892334,0.13040883839130402
1772571991532356000,5.198356201171875,8.450851440429688,3.2829527854919434,0.2350948303937912
1772571991550196500,5.216196533203125,8.579465866088867,3.541975736618042,0.29730820655822754
1772571991568024600,5.234024658203125,8.765507698059082,3.662813186645508,0.2356930375099182
1772571991585859600,5.251859619140625,8.908478736877441,3.758526086807251,0.16869398951530457
1772571991603693600,5.269693603515625,9.294321060180664,3.947559118270874,0.24107688665390015
1772571991621528300,5.2875283203125,9.671191215515137,3.988237142562866,0.27038896083831787
1772571991639362300,5.3053623046875,10.196415901184082,3.923630952835083,0.1423729509115219
1772571991657197300,5.323197265625,11.017751693725586,3.8075790405273438,-0.2949153780937195
1772571991675031300,5.34103125,11.772089004516602,3.4815568923950195,-0.46480581164360046
1772571991692865800,5.35886572265625,11.24746322631836,3.5988051891326904,-0.04127619042992592
1772571991710699800,5.37669970703125,10.926226615905762,4.411766529083252,0.6352944374084473
1772571991728534500,5.394534423828125,11.035099983215332,4.531407833099365,0.4875376224517822
1772571991746368500,5.412368408203125,10.819746017456055,4.692325115203857,0.28654050827026367
1772571991764202800,5.43020263671875,10.581660270690918,4.561318397521973,-0.053240302950143814
1772571991782037500,5.44803759765625,9.985847473144531,3.9744784832000732,-0.25423741340637207
1772571991799871700,5.465871826171875,9.552745819091797,3.6574294567108154,0.21774685382843018
1772571991817705700,5.483705810546875,9.147761344909668,3.6610186100006104,0.7806583642959595
1772571991835540200,5.501540283203125,9.244071960449219,3.4085757732391357,1.1198409795761108
1772571991853374700,5.519374755859375,9.512067794799805,3.0616166591644287,1.2263215780258179
1772571991871209700,5.537209716796875,9.66520881652832,2.9958138465881348,1.3603196144104004
1772571991889043200,5.555043212890625,9.746564865112305,2.8522446155548096,1.2843475341796875
1772571991906878200,5.572878173828125,9.637093544006348,2.5836503505706787,1.074377417564392
1772571991924712200,5.590712158203125,9.589835166931152,2.42512583732605,0.8733802437782288
1772571991942547200,5.608547119140625,9.537193298339844,2.328814744949341,0.7016952633857727
1772571991960380400,5.62638037109375,9.403793334960938,2.2127628326416016,0.5156532526016235
1772571991978203100,5.644203125,8.96949577331543,2.1337995529174805,0.37148571014404297
1772571991996036000,5.6620361328125,8.711668968200684,2.2085752487182617,0.3565305769443512
1772571992013872000,5.6798720703125,8.601598739624023,2.365903377532959,0.31764721870422363
1772571992031718100,5.69771826171875,8.519644737243652,2.4364917278289795,-0.05024927482008934
1772571992049547500,5.715547607421875,8.47178840637207,2.416750907897949,-0.3080759048461914
1772571992067389400,5.733389404296875,8.538188934326172,2.5986053943634033,-0.3655036687850952
1772571992085222000,5.751221923828125,8.599804878234863,2.871387243270874,-0.39421752095222473
1772571992103054800,5.769054931640625,8.589634895324707,3.04307222366333,-0.6472585201263428
1772571992120891400,5.786891357421875,8.536993026733398,3.061018466949463,-1.0103694200515747
1772571992138724600,5.804724609375,8.46461009979248,3.2033913135528564,-1.2352946996688843
1772571992156559400,5.822559326171875,8.383254051208496,3.370290756225586,-1.2502498626708984
1772571992174393300,5.840393310546875,8.191828727722168,3.628117322921753,-1.1694921255111694
1772571992192227800,5.858227783203125,8.191229820251465,3.8673996925354004,-1.0648061037063599
1772571992210059300,5.876059326171875,8.196015357971191,3.996612071990967,-0.9696913957595825
1772571992227899600,5.893899658203125,8.215158462524414,4.00618314743042,-0.9409775137901306
1772571992245728000,5.91172802734375,8.405985832214355,4.026522159576416,-0.9834501147270203
1772571992263567600,5.929567626953125,8.801998138427734,4.004388809204102,-1.168893814086914
1772571992281399300,5.9473994140625,9.498908042907715,3.8500516414642334,-1.3052847385406494
1772571992299234000,5.965234130859375,9.732208251953125,4.22512674331665,-0.9284151792526245
1772571992317067800,5.98306787109375,9.936196327209473,4.834099769592285,-0.6897311210632324
1772571992334902500,6.000902587890625,9.88833999633789,4.8329033851623535,-0.9954141974449158
1772571992352736800,6.01873681640625,10.259825706481934,5.121238708496094,-1.1527422666549683
1772571992370571500,6.036571533203125,10.789835929870605,4.965705394744873,-1.6576279401779175
1772571992388405500,6.054405517578125,10.919646263122559,4.24785852432251,-2.076371908187866
1772571992406240000,6.072239990234375,10.706087112426758,3.7782669067382812,-1.9902302026748657
1772571992424074500,6.090074462890625,10.234102249145508,3.6233317852020264,-1.6809579133987427
1772571992441909200,6.1079091796875,9.914660453796387,3.651447296142578,-1.2329018115997314
1772571992459729400,6.1257294921875,9.600004196166992,3.597608804702759,-1.052243709564209
1772571992477565200,6.143565185546875,9.10827922821045,3.5324044227600098,-1.0432707071304321
1772571992495405000,6.161405029296875,8.855836868286133,3.507279872894287,-1.0247262716293335
1772571992513246500,6.17924658203125,8.483752250671387,3.342773199081421,-1.0444670915603638
1772571992531080400,6.19708056640625,8.10688304901123,3.3505499362945557,-0.8925228714942932
1772571992548915000,6.2149150390625,7.829914093017578,3.459423303604126,-0.7501499056816101
1772571992566749200,6.232749267578125,7.805387496948242,3.52103853225708,-0.7836494445800781
1772571992584584200,6.250584228515625,7.810173034667969,3.6023945808410645,-0.8267202377319336
1772571992602418000,6.26841796875,7.63310432434082,3.706482172012329,-0.8315058946609497
1772571992620252200,6.286252197265625,7.451848030090332,3.806382656097412,-0.7465606927871704
1772571992638086700,6.304086669921875,7.566105365753174,3.8261234760284424,-0.6843472719192505
1772571992655918300,6.32191845703125,7.52423095703125,3.696911096572876,-0.5455635786056519
1772571992673755400,6.33975537109375,7.571488857269287,3.7507495880126953,-0.2877369225025177
1772571992691593200,6.35759326171875,7.657630443572998,3.775275945663452,-0.21595224738121033
1772571992709420500,6.375420654296875,7.686344623565674,3.8087754249572754,-0.2063809484243393
1772571992727262500,6.393262451171875,7.819146156311035,3.9385859966278076,-0.16331014037132263
1772571992745092900,6.4110927734375,7.785646915435791,4.039084434509277,-0.1010967567563057
1772571992762927600,6.428927734375,7.694719314575195,4.1629133224487305,-0.010767702013254166
1772571992780761000,6.446760986328125,7.622934818267822,4.2586259841918945,0.12263216078281403
1772571992798596400,6.464596435546875,7.771289825439453,4.384249210357666,0.29431718587875366
1772571992816430000,6.48243017578125,7.9758758544921875,4.457230567932129,0.3284149169921875
1772571992834264600,6.5002646484375,8.057231903076172,4.548157691955566,0.23270200192928314
1772571992852099000,6.51809912109375,8.476573944091797,4.713262557983398,0.25244277715682983
1772571992869927700,6.535927734375,8.891729354858398,4.748556613922119,0.2584248483181
1772571992887767600,6.553767578125,9.230911254882812,4.7024946212768555,0.09212367236614227
1772571992905602300,6.571602294921875,9.655637741088867,4.690530776977539,0.01136590726673603
1772571992923436800,6.589436767578125,10.247262954711914,4.540380954742432,-0.03469592705368996
1772571992941271300,6.607271240234375,10.213763236999512,4.732405185699463,0.39960137009620667
1772571992959104800,6.625104736328125,10.614561080932617,5.017749309539795,0.7914260625839233
1772571992976939800,6.642939697265625,10.52363395690918,5.207978248596191,0.7387840151786804
1772571992994774000,6.66077392578125,10.74257755279541,5.146363258361816,0.251844584941864
1772571993012608800,6.67860888671875,11.259427070617676,4.478167533874512,-0.3475574851036072
1772571993030442500,6.6964423828125,11.280364036560059,3.6029927730560303,-0.4612165689468384
1772571993048276700,6.71427685546875,11.243873596191406,2.933600664138794,-0.27397820353507996
1772571993066111500,6.732111572265625,10.87717342376709,2.4394826889038086,-0.09272187948226929
1772571993083946200,6.7499462890625,10.501500129699707,2.2133610248565674,0.26919254660606384
1772571993101780000,6.767780029296875,10.381858825683594,2.2085752487182617,0.43130627274513245
1772571993119614200,6.7856142578125,9.976275444030762,2.148754835128784,0.3068794906139374
1772571993137444900,6.80344482421875,9.69511890411377,2.084746837615967,0.19142581522464752
1772571993155283200,6.821283203125,9.461220741271973,1.968694806098938,0.1621137410402298
1772571993173114400,6.8391142578125,9.265607833862305,1.866999864578247,0.12382857501506805
1772571993190954800,6.856954833984375,8.97966480255127,1.7312071323394775,-0.1010967567563057
1772571993208786400,6.874786376953125,8.769695281982422,1.662413477897644,-0.4163511395454407
1772571993226621000,6.892620849609375,8.58784008026123,1.7377874851226807,-0.5024927258491516
1772571993244454700,6.91045458984375,8.48734188079834,1.8903298377990723,-0.3978067636489868
1772571993262289200,6.9282890625,8.38684368133545,2.0237298011779785,-0.3314059376716614
1772571993280123400,6.946123291015625,8.319844245910645,2.1571295261383057,-0.3798605799674988
1772571993297947600,6.96394775390625,8.401200294494629,2.162513494491577,-0.3798605799674988
1772571993315777800,6.98177783203125,8.534600257873535,2.2546372413635254,-0.18843477964401245
1772571993333626600,6.999626708984375,8.672785758972168,2.2504496574401855,-0.13579268753528595
1772571993351450000,7.0174501953125,8.634500503540039,2.2785654067993164,-0.35054850578308105
1772571993369295400,7.03529541015625,8.514859199523926,2.4017956256866455,-0.5467599630355835
1772571993387129600,7.053129638671875,8.395217895507812,2.5974090099334717,-0.48514479398727417
1772571993404964400,7.07096435546875,8.328219413757324,2.7451658248901367,-0.36610186100006104
1772571993422798600,7.088798583984375,8.24686336517334,2.84087872505188,-0.2470589429140091
1772571993440633000,7.106633056640625,8.22293472290039,2.9940192699432373,-0.13280165195465088
1772571993458466600,7.124466552734375,8.274978637695312,3.219542980194092,-0.047258246690034866
1772571993476301800,7.1423017578125,8.479565620422363,3.3164522647857666,0.04426721855998039
1772571993494136000,7.160135986328125,8.675178527832031,3.4133615493774414,0.1256231814622879
1772571993511970600,7.177970458984375,8.94257640838623,3.4672000408172607,0.1501496136188507
1772571993529804000,7.195803955078125,9.19023323059082,3.5066816806793213,0.15074782073497772
1772571993547636000,7.213635986328125,9.524630546569824,3.6095728874206543,0.29431718587875366
1772571993565475800,7.231475830078125,9.806385040283203,3.573082447052002,0.4336991012096405
1772571993583307500,7.2493076171875,10.144969940185547,3.6227335929870605,0.5252245664596558
1772571993601141500,7.2671416015625,10.645668029785156,3.745365619659424,0.5593222975730896
1772571993618976300,7.284976318359375,10.912467956542969,4.034298896789551,0.8027920126914978
1772571993636810500,7.302810546875,10.988439559936523,4.340580463409424,0.865005373954773
1772571993654645200,7.320645263671875,10.974082946777344,4.110270977020264,0.5258227586746216
1772571993672479200,7.338479248046875,10.697711944580078,4.142574310302734,0.5156532526016235
1772571993690313500,7.3563134765625,10.612168312072754,3.8261234760284424,0.35832518339157104
1772571993708148200,7.374148193359375,10.527223587036133,3.2656047344207764,0.2584248483181
1772571993725986300,7.391986328125,10.332806587219238,2.80558443069458,0.18723836541175842
1772571993743816400,7.40981640625,10.152746200561523,2.1918256282806396,0.0729810893535614
1772571993761642800,7.427642822265625,9.862616539001465,1.7748762369155884,0.14416755735874176
1772571993779485200,7.445485107421875,9.79681396484375,1.3770694732666016,0.10169496387243271
1772571993797325000,7.463324951171875,9.525228500366211,0.9690931439399719,0.006580262444913387
1772571993815150000,7.481150146484375,9.354142189025879,0.9445667266845703,0.22552353143692017
1772571993832987400,7.4989873046875,9.201001167297363,1.2221341133117676,0.5736792087554932
1772571993850817800,7.51681787109375,8.875576972961426,1.397408366203308,0.582054078578949
1772571993868657400,7.534657470703125,8.560322761535645,1.7156537771224976,0.5186443328857422
1772571993886491100,7.5524912109375,8.363512992858887,2.1930220127105713,0.6035895347595215
1772571993904326100,7.570326171875,8.23430061340332,2.441277265548706,0.6891329288482666
1772571993922160400,7.588160400390625,8.257631301879883,2.6422743797302246,0.7890332937240601
1772571993939995000,7.605994873046875,8.304888725280762,2.819343328475952,0.7938188910484314
1772571993957828600,7.62382861328125,8.376075744628906,2.9730820655822754,0.8177471160888672
1772571993975662300,7.641662353515625,8.46161937713623,3.07417893409729,0.841675341129303
1772571993993498600,7.65949853515625,8.58066177368164,3.1555347442626953,0.7704889178276062
1772571994011330300,7.677330322265625,8.585447311401367,3.284747362136841,0.8273184299468994
1772571994029168000,7.695168212890625,8.446663856506348,3.4755749702453613,0.8315058946609497
1772571994047000000,7.713,8.470592498779297,3.4468610286712646,0.7076773047447205
1772571994064835300,7.73083544921875,8.455636978149414,3.6047873497009277,0.8123632669448853
1772571994082669300,7.74866943359375,8.646464347839355,3.7112679481506348,1.1324033737182617
1772571994100503000,7.7665029296875,8.627920150756836,3.668795347213745,1.2951152324676514
1772571994118337800,7.784337890625,8.613563537597656,3.716651678085327,1.2616157531738281
1772571994136172000,7.802172119140625,8.493324279785156,3.8973097801208496,1.2658032178878784
1772571994154006800,7.8200068359375,8.574081420898438,4.137190341949463,1.2610175609588623
1772571994171840800,7.8378408203125,8.827122688293457,4.18564510345459,1.1324033737182617
1772571994189675300,7.85567529296875,8.874381065368652,4.238885402679443,1.1276177167892456
1772571994207504400,7.87350439453125,9.003593444824219,4.3208394050598145,1.2951152324676514
1772571994225341200,7.891341064453125,9.390034675598145,4.35673189163208,1.4009976387023926
1772571994243181000,7.90918115234375,9.81535816192627,4.091128349304199,1.1252248287200928
1772571994261012700,7.9270126953125,9.896116256713867,3.9810585975646973,0.9152546525001526
1772571994278832400,7.944832275390625,9.738189697265625,4.2245283126831055,1.1198409795761108
1772571994296682000,7.962681884765625,9.43190860748291,4.72582483291626,1.5864413976669312
1772571994314515500,7.980515380859375,10.285548210144043,5.1804609298706055,1.8837496042251587
1772571994332350000,7.998349853515625,10.51944637298584,5.267798900604248,1.7982062101364136
1772571994350184400,8.016184326171874,10.810772895812988,5.014758110046387,1.2693923711776733
1772571994368018700,8.034018798828125,10.983654022216797,4.272983074188232,0.4492524564266205
1772571994385853000,8.05185302734375,11.228320121765137,3.556332588195801,0.10229317098855972
1772571994403687400,8.0696875,11.10030460357666,3.053241729736328,-0.02632104977965355
1772571994421522000,8.08752197265625,10.308877944946289,2.87198543548584,0.019740786403417587
1772571994439356400,8.1053564453125,9.501898765563965,3.0975089073181152,0.26141586899757385
1772571994457187300,8.123187255859374,9.210572242736816,3.3020951747894287,0.5228317379951477
1772571994475013400,8.141013427734375,8.995817184448242,3.300898790359497,0.617946445941925
1772571994492862500,8.158862548828125,8.757132530212402,3.280559778213501,0.6269195079803467
1772571994510693600,8.176693603515625,8.666803359985352,3.040679454803467,0.35533416271209717
1772571994528527400,8.19452734375,8.528617858886719,2.785843849182129,0.14057832956314087
1772571994546362400,8.2123623046875,8.261817932128906,2.712862730026245,0.07776673883199692
1772571994564196000,8.230196044921875,7.846065521240234,2.7535407543182373,0.16271193325519562
1772571994582031000,8.248031005859374,7.650452136993408,2.8630123138427734,0.3577269911766052
1772571994599864600,8.265864501953125,7.373483180999756,3.019144058227539,0.44805604219436646
1772571994617692700,8.283692626953124,7.478168964385986,3.139383316040039,0.49591249227523804
1772571994635533600,8.301533447265625,7.511070251464844,3.3984062671661377,0.7154539823532104
1772571994653368300,8.319368408203125,7.544569969177246,3.393620729446411,0.6436693072319031
1772571994671202300,8.337202392578124,8.050651550292969,3.3098719120025635,0.5204389095306396
1772571994689036800,8.355036865234375,8.307880401611328,3.3302109241485596,0.2967100143432617
1772571994706871300,8.372871337890626,8.064410209655762,3.500699520111084,0.12382857501506805
1772571994724706000,8.3907060546875,7.743772506713867,3.680161237716675,-0.06340979784727097
