time,seconds_elapsed,z,y,x
1772536303967442200,0.064442138671875,-0.99139404296875,-0.091339111328125,0.0230560302734375
1772536303977490700,0.07449072265625,-0.9956207275390625,-0.093017578125,0.0178070068359375
1772536303987539500,0.08453955078125,-0.9912261962890625,-0.095123291015625,0.0163421630859375
1772536303997587700,0.094587646484375,-0.9930419921875,-0.095001220703125,0.0229949951171875
1772536304007635700,0.1046357421875,-1.00439453125,-0.094940185546875,0.02105712890625
1772536304017684700,0.114684814453125,-1.0030517578125,-0.0960693359375,0.010955810546875
1772536304027732700,0.124732666015625,-0.9894866943359375,-0.09521484375,0.01226806640625
1772536304037780500,0.134780517578125,-0.9949188232421875,-0.0936431884765625,0.0211181640625
1772536304047829500,0.14482958984375,-1.0128021240234375,-0.0960845947265625,0.024078369140625
1772536304057877500,0.15487744140625,-1.008880615234375,-0.095977783203125,0.0148162841796875
1772536304067926500,0.164926513671875,-0.9944000244140625,-0.0890960693359375,0.0131683349609375
1772536304077974500,0.174974609375,-0.998260498046875,-0.0887298583984375,0.0186767578125
1772536304088022500,0.1850224609375,-1.00506591796875,-0.095184326171875,0.01995849609375
1772536304098071600,0.195071533203125,-1.0004730224609375,-0.0971832275390625,0.0169677734375
1772536304108119600,0.20511962890625,-0.9929656982421875,-0.096649169921875,0.016357421875
1772536304118167600,0.21516748046875,-0.9919281005859375,-0.098236083984375,0.018768310546875
1772536304128216600,0.225216552734375,-0.9991912841796875,-0.0972747802734375,0.020721435546875
1772536304138264600,0.2352646484375,-1.0039520263671875,-0.0940093994140625,0.01251220703125
1772536304148312600,0.2453125,-0.99542236328125,-0.0931549072265625,0.0052032470703125
1772536304158361600,0.255361572265625,-0.98529052734375,-0.090362548828125,0.01434326171875
1772536304168409600,0.26540966796875,-0.9959716796875,-0.0916595458984375,0.0170440673828125
1772536304178458600,0.275458740234375,-1.0054931640625,-0.0979461669921875,0.0155792236328125
1772536304188506600,0.285506591796875,-0.9998931884765625,-0.1013336181640625,0.0166015625
1772536304198554600,0.2955546875,-0.999603271484375,-0.0982818603515625,0.017730712890625
1772536304208603600,0.305603759765625,-0.9993896484375,-0.0967864990234375,0.01739501953125
1772536304218651600,0.315651611328125,-0.996337890625,-0.0981597900390625,0.01654052734375
1772536304228699600,0.32569970703125,-0.998504638671875,-0.0997772216796875,0.0154571533203125
1772536304238748700,0.335748779296875,-0.9994354248046875,-0.1007080078125,0.01287841796875
1772536304248796700,0.345796630859375,-0.9914703369140625,-0.099395751953125,0.01458740234375
1772536304258845400,0.355845458984375,-0.99383544921875,-0.0985260009765625,0.018218994140625
1772536304268893400,0.3658935546875,-1.0003509521484375,-0.099639892578125,0.0193328857421875
1772536304278941700,0.375941650390625,-0.9990997314453125,-0.0987091064453125,0.0185699462890625
1772536304288990500,0.385990478515625,-0.998931884765625,-0.095458984375,0.017486572265625
1772536304299038700,0.396038818359375,-0.999053955078125,-0.0968475341796875,0.01837158203125
1772536304309086500,0.40608642578125,-1.0012664794921875,-0.097137451171875,0.0200347900390625
1772536304319135700,0.4161357421875,-1.0039215087890625,-0.0967864990234375,0.0201416015625
1772536304329183500,0.42618359375,-1.005401611328125,-0.09661865234375,0.01971435546875
1772536304339232800,0.436232666015625,-1.0021820068359375,-0.0968017578125,0.018646240234375
1772536304349280500,0.446280517578125,-0.999420166015625,-0.0969696044921875,0.0177001953125
1772536304359328500,0.45632861328125,-0.99932861328125,-0.0992279052734375,0.0183258056640625
1772536304369377500,0.46637744140625,-0.9969329833984375,-0.0994415283203125,0.0171051025390625
1772536304379425500,0.476425537109375,-0.995697021484375,-0.1016387939453125,0.015350341796875
1772536304389473800,0.486473876953125,-0.9964752197265625,-0.103973388671875,0.0146636962890625
1772536304399522600,0.4965224609375,-0.998291015625,-0.103790283203125,0.0144500732421875
1772536304409570800,0.50657080078125,-0.998046875,-0.1028900146484375,0.0111083984375
1772536304419618600,0.51661865234375,-0.99468994140625,-0.1011810302734375,0.0107421875
1772536304429667600,0.52666748046875,-0.995086669921875,-0.101409912109375,0.0126190185546875
1772536304439715600,0.536715576171875,-0.998077392578125,-0.1040191650390625,0.0130767822265625
1772536304449764600,0.5467646484375,-0.99761962890625,-0.1044769287109375,0.013092041015625
1772536304459812600,0.5568125,-0.9969024658203125,-0.102752685546875,0.016204833984375
1772536304469860600,0.566860595703125,-0.996429443359375,-0.1027374267578125,0.01605224609375
1772536304479909600,0.57690966796875,-0.9954376220703125,-0.102874755859375,0.0161895751953125
1772536304489957600,0.58695751953125,-0.9947509765625,-0.101348876953125,0.0169830322265625
1772536304500005400,0.59700537109375,-0.9946136474609375,-0.1033477783203125,0.015411376953125
1772536304510054700,0.6070546875,-0.9929656982421875,-0.105560302734375,0.013427734375
1772536304520102400,0.617102294921875,-1.003265380859375,-0.1074066162109375,0.0196380615234375
1772536304530151700,0.627151611328125,-1.0028076171875,-0.108184814453125,0.01806640625
1772536304540199400,0.637199462890625,-1.00140380859375,-0.1038360595703125,0.01397705078125
1772536304550247700,0.64724755859375,-0.9988250732421875,-0.1014556884765625,0.0121917724609375
1772536304560296400,0.65729638671875,-0.9959869384765625,-0.10089111328125,0.0128173828125
1772536304570344700,0.6673447265625,-0.9984588623046875,-0.1009063720703125,0.009307861328125
1772536304580392700,0.677392822265625,-1.001678466796875,-0.103515625,0.0081939697265625
1772536304590441500,0.68744140625,-0.99847412109375,-0.105743408203125,0.0088653564453125
1772536304600489700,0.69748974609375,-0.9940032958984375,-0.1048736572265625,0.01226806640625
1772536304610538500,0.70753857421875,-0.9936981201171875,-0.10479736328125,0.0138397216796875
1772536304620586800,0.717586669921875,-0.993011474609375,-0.1071014404296875,0.0153045654296875
1772536304630634500,0.727634521484375,-0.9915313720703125,-0.1101531982421875,0.01568603515625
1772536304640683800,0.737683837890625,-0.990509033203125,-0.1098785400390625,0.014739990234375
1772536304650731500,0.7477314453125,-0.9882965087890625,-0.1094207763671875,0.0141448974609375
1772536304660779500,0.757779541015625,-0.9900054931640625,-0.1100616455078125,0.0140228271484375
1772536304670828500,0.76782861328125,-0.994354248046875,-0.10980224609375,0.0121002197265625
1772536304680876500,0.77787646484375,-0.998016357421875,-0.109344482421875,0.0108642578125
1772536304690924500,0.787924560546875,-0.999176025390625,-0.1102752685546875,0.00482177734375
1772536304700973600,0.7979736328125,-0.9941558837890625,-0.1085205078125,0.0073089599609375
1772536304711021600,0.808021484375,-0.9953765869140625,-0.1050872802734375,0.0138092041015625
1772536304721070600,0.818070556640625,-1.0006866455078125,-0.1009368896484375,0.0168609619140625
1772536304731118600,0.82811865234375,-1.0025177001953125,-0.0988922119140625,0.0189361572265625
1772536304741166600,0.83816650390625,-1.0022125244140625,-0.0968475341796875,0.0188140869140625
1772536304751215600,0.848215576171875,-0.9993743896484375,-0.096649169921875,0.0177154541015625
1772536304761263600,0.858263671875,-0.99725341796875,-0.0973968505859375,0.0198516845703125
1772536304771311600,0.8683115234375,-0.996002197265625,-0.09918212890625,0.0185699462890625
1772536304781360600,0.878360595703125,-0.996856689453125,-0.1028900146484375,0.0176239013671875
1772536304791408600,0.88840869140625,-0.9976806640625,-0.1070098876953125,0.01470947265625
1772536304801457700,0.898457763671875,-0.99664306640625,-0.1102752685546875,0.014434814453125
1772536304811505700,0.908505615234375,-0.995574951171875,-0.1121826171875,0.012939453125
1772536304821553400,0.918553466796875,-0.9968414306640625,-0.1126556396484375,0.0105438232421875
1772536304831602700,0.928602783203125,-0.99444580078125,-0.1134796142578125,0.009796142578125
1772536304841650400,0.938650390625,-0.992279052734375,-0.112945556640625,0.0086822509765625
1772536304851698700,0.94869873046875,-0.994842529296875,-0.112213134765625,0.008056640625
1772536304861747500,0.95874755859375,-0.9953460693359375,-0.1116943359375,0.0085601806640625
1772536304871795700,0.968795654296875,-0.9939727783203125,-0.1114349365234375,0.0067596435546875
1772536304881844500,0.978844482421875,-0.992340087890625,-0.1097412109375,0.008636474609375
1772536304891892700,0.988892822265625,-0.99444580078125,-0.110137939453125,0.010711669921875
1772536304901940500,0.9989404296875,-0.99444580078125,-0.1095123291015625,0.00909423828125
1772536304911989800,1.00898974609375,-0.99346923828125,-0.1060638427734375,0.007232666015625
1772536304922037500,1.01903759765625,-0.995941162109375,-0.105133056640625,0.0104217529296875
1772536304932085500,1.02908544921875,-0.99822998046875,-0.1064453125,0.0122528076171875
1772536304942134500,1.039134521484375,-0.9953765869140625,-0.10400390625,0.0118560791015625
1772536304952182500,1.0491826171875,-0.996978759765625,-0.1011962890625,0.0141143798828125
1772536304962230800,1.059230712890625,-1.000030517578125,-0.103729248046875,0.0152740478515625
1772536304972279600,1.069279541015625,-0.99908447265625,-0.104705810546875,0.0131683349609375
1772536304982327300,1.079327392578125,-0.9991302490234375,-0.1029052734375,0.01409912109375
1772536304992376300,1.089376220703125,-1.00262451171875,-0.103912353515625,0.013427734375
1772536305002424300,1.09942431640625,-1.001983642578125,-0.10650634765625,0.010223388671875
1772536305012472300,1.109472412109375,-1.0029449462890625,-0.1065521240234375,0.0101776123046875
1772536305022521300,1.119521240234375,-1.0046539306640625,-0.1051025390625,0.010040283203125
1772536305032569300,1.1295693359375,-1.00201416015625,-0.1033477783203125,0.0087127685546875
1772536305042617300,1.139617431640625,-1.002166748046875,-0.104156494140625,0.0091552734375
1772536305052666400,1.149666259765625,-1.0048370361328125,-0.1043243408203125,0.00762939453125
1772536305062714400,1.15971435546875,-0.99786376953125,-0.1038360595703125,0.006744384765625
1772536305072762400,1.169762451171875,-0.9978790283203125,-0.1043243408203125,0.01177978515625
1772536305082811400,1.179811279296875,-1.0003204345703125,-0.1060333251953125,0.0131683349609375
1772536305092859400,1.189859375,-0.993804931640625,-0.10601806640625,0.012786865234375
1772536305102908400,1.199908447265625,-0.9919891357421875,-0.1043548583984375,0.014312744140625
1772536305112956200,1.2099560546875,-0.99163818359375,-0.1052703857421875,0.012542724609375
1772536305123004400,1.22000439453125,-0.9909820556640625,-0.1060333251953125,0.0084228515625
1772536305133053200,1.23005322265625,-0.9894256591796875,-0.1048431396484375,0.0084228515625
1772536305143101200,1.24010107421875,-0.99078369140625,-0.108184814453125,0.0055999755859375
1772536305153149400,1.2501494140625,-0.9927520751953125,-0.11248779296875,0.0041656494140625
1772536305163198200,1.2601982421875,-0.9962158203125,-0.1134033203125,0.0050811767578125
1772536305173246500,1.27024658203125,-0.9979705810546875,-0.1115264892578125,0.0041351318359375
1772536305183295200,1.280295166015625,-0.9952850341796875,-0.1079864501953125,0.0030517578125
1772536305193343500,1.290343505859375,-0.999237060546875,-0.104644775390625,0.0042266845703125
1772536305203391200,1.30039111328125,-0.99847412109375,-0.1048126220703125,0.0046539306640625
1772536305213440500,1.3104404296875,-0.9965362548828125,-0.1070098876953125,0.0073089599609375
1772536305223488300,1.32048828125,-0.9958038330078125,-0.106964111328125,0.0099945068359375
1772536305233536300,1.330536376953125,-0.99493408203125,-0.1061553955078125,0.01446533203125
1772536305243585300,1.340585205078125,-1.000274658203125,-0.10565185546875,0.01556396484375
1772536305253633300,1.35063330078125,-0.9969482421875,-0.104583740234375,0.0121612548828125
1772536305263681500,1.360681640625,-0.9949493408203125,-0.1033477783203125,0.0139007568359375
1772536305273730300,1.370730224609375,-0.9984283447265625,-0.104095458984375,0.01513671875
1772536305283778300,1.3807783203125,-1.0003509521484375,-0.10577392578125,0.0144805908203125
1772536305293827300,1.390827392578125,-0.9983062744140625,-0.10675048828125,0.012847900390625
1772536305303875300,1.400875244140625,-0.9993438720703125,-0.1067352294921875,0.0121307373046875
1772536305313923300,1.41092333984375,-1.000152587890625,-0.1062469482421875,0.01190185546875
1772536305323972400,1.420972412109375,-0.998504638671875,-0.1055755615234375,0.0074462890625
1772536305334020400,1.431020263671875,-1.0001373291015625,-0.10601806640625,0.006378173828125
1772536305344068400,1.441068359375,-1.0006256103515625,-0.1095123291015625,0.0081939697265625
1772536305354117400,1.451117431640625,-1.0002899169921875,-0.1074981689453125,0.01055908203125
1772536305364165400,1.461165283203125,-0.99981689453125,-0.10235595703125,0.0101165771484375
1772536305374213000,1.471213134765625,-0.9980316162109375,-0.102325439453125,0.0064849853515625
1772536305384262400,1.481262451171875,-0.9932098388671875,-0.1044464111328125,0.012176513671875
1772536305394310100,1.49131005859375,-0.9953155517578125,-0.1024932861328125,0.0146484375
1772536305404359400,1.501359375,-0.9942779541015625,-0.10284423828125,0.0142059326171875
1772536305414407200,1.5114072265625,-0.99383544921875,-0.1031951904296875,0.0154571533203125
1772536305424455400,1.521455322265625,-0.993194580078125,-0.1027069091796875,0.01519775390625
1772536305434504200,1.531504150390625,-0.994537353515625,-0.10357666015625,0.014434814453125
1772536305444552400,1.541552490234375,-0.99462890625,-0.1034088134765625,0.014129638671875
1772536305454600400,1.551600341796875,-0.9959869384765625,-0.102081298828125,0.0130462646484375
1772536305464649500,1.5616494140625,-0.99566650390625,-0.1034088134765625,0.010772705078125
1772536305474697500,1.571697509765625,-0.9973297119140625,-0.10638427734375,0.0108795166015625
1772536305484745200,1.5817451171875,-0.99761962890625,-0.1082000732421875,0.0110931396484375
1772536305494794500,1.59179443359375,-0.9975128173828125,-0.1104888916015625,0.01397705078125
1772536305504842200,1.60184228515625,-0.9994354248046875,-0.1101531982421875,0.0159759521484375
1772536305514891300,1.611891357421875,-0.999481201171875,-0.109222412109375,0.016265869140625
1772536305524939300,1.621939208984375,-0.9982147216796875,-0.1086883544921875,0.016571044921875
1772536305534987500,1.631987548828125,-0.9975433349609375,-0.1058807373046875,0.0146636962890625
1772536305545036300,1.642036376953125,-0.9967498779296875,-0.1038818359375,0.017059326171875
1772536305555084300,1.652084228515625,-1.0013580322265625,-0.1043853759765625,0.018035888671875
1772536305565132300,1.66213232421875,-0.9990997314453125,-0.1020355224609375,0.0164947509765625
1772536305575181300,1.672181396484375,-0.9958953857421875,-0.1005859375,0.016510009765625
1772536305585229300,1.682229248046875,-0.9980621337890625,-0.102020263671875,0.01556396484375
1772536305595278300,1.6922783203125,-0.9968414306640625,-0.1015625,0.014923095703125
1772536305605326300,1.702326416015625,-0.995635986328125,-0.101348876953125,0.0125579833984375
1772536305615374300,1.712374267578125,-0.9970245361328125,-0.1026458740234375,0.009918212890625
1772536305625423400,1.72242333984375,-0.99566650390625,-0.1043701171875,0.008331298828125
1772536305635471400,1.732471435546875,-0.9985504150390625,-0.1041717529296875,0.006988525390625
1772536305645519400,1.742519287109375,-0.99847412109375,-0.1047821044921875,0.004486083984375
1772536305655568400,1.752568359375,-0.992828369140625,-0.104583740234375,0.0021209716796875
1772536305665616400,1.762616455078125,-0.994659423828125,-0.1032562255859375,0.0035400390625
1772536305675664400,1.772664306640625,-0.9991455078125,-0.1054229736328125,0.0053253173828125
1772536305685713400,1.78271337890625,-0.9945831298828125,-0.1060943603515625,0.007171630859375
1772536305695761400,1.792761474609375,-0.994537353515625,-0.10418701171875,0.0100860595703125
1772536305705810400,1.802810546875,-0.9974822998046875,-0.1026153564453125,0.0110321044921875
1772536305715858200,1.812858154296875,-0.9944915771484375,-0.100555419921875,0.0092620849609375
1772536305725906400,1.822906494140625,-0.9915313720703125,-0.10009765625,0.008453369140625
1772536305735955200,1.832955078125,-0.9944915771484375,-0.1018218994140625,0.0106201171875
1772536305746003500,1.84300341796875,-0.9981231689453125,-0.1041412353515625,0.0125885009765625
1772536305756051200,1.85305126953125,-0.99853515625,-0.1047210693359375,0.0134124755859375
1772536305766100500,1.8631005859375,-1.0014190673828125,-0.104522705078125,0.0124664306640625
1772536305776148200,1.873148193359375,-0.998260498046875,-0.104156494140625,0.013885498046875
1772536305786196200,1.8831962890625,-1.000244140625,-0.1009063720703125,0.0137939453125
1772536305796245200,1.893245361328125,-0.99945068359375,-0.0998687744140625,0.0097503662109375
1772536305806293200,1.903293212890625,-0.996673583984375,-0.1003265380859375,0.0118560791015625
1772536305816342300,1.91334228515625,-0.9990234375,-0.1027984619140625,0.0135345458984375
1772536305826390300,1.923390380859375,-0.9990081787109375,-0.1035614013671875,0.014251708984375
1772536305836438500,1.9334384765625,-0.99786376953125,-0.10400390625,0.0154876708984375
1772536305846487300,1.9434873046875,-0.9981842041015625,-0.10345458984375,0.0156097412109375
1772536305856535600,1.95353564453125,-0.99749755859375,-0.104095458984375,0.015625
1772536305866583300,1.963583251953125,-0.9998931884765625,-0.1046905517578125,0.0152130126953125
1772536305876632600,1.973632568359375,-0.99676513671875,-0.102935791015625,0.013153076171875
1772536305886680300,1.983680419921875,-0.9984283447265625,-0.101898193359375,0.0124664306640625
1772536305896728300,1.993728271484375,-0.9984130859375,-0.10101318359375,0.0110931396484375
1772536305906777300,2.00377734375,-0.99957275390625,-0.1005096435546875,0.011138916015625
1772536305916825300,2.013825439453125,-1.0015106201171875,-0.100189208984375,0.0126800537109375
1772536305926874400,2.023874267578125,-1.001190185546875,-0.0991668701171875,0.0124969482421875
1772536305936922400,2.03392236328125,-0.9998626708984375,-0.0988922119140625,0.0126495361328125
1772536305946970000,2.04397021484375,-0.9982147216796875,-0.09832763671875,0.012481689453125
1772536305957019400,2.054019287109375,-0.99627685546875,-0.0994415283203125,0.0117340087890625
1772536305967067100,2.064067138671875,-0.9941864013671875,-0.102203369140625,0.0129852294921875
1772536305977119500,2.074119384765625,-0.99359130859375,-0.1033782958984375,0.0118560791015625
1772536305987168500,2.08416845703125,-0.9970703125,-0.1033782958984375,0.0124969482421875
1772536305997216500,2.094216552734375,-0.9998321533203125,-0.10699462890625,0.011474609375
1772536306007265500,2.104265625,-0.9977569580078125,-0.106781005859375,0.00946044921875
1772536306017313500,2.1143134765625,-0.995452880859375,-0.105255126953125,0.0084381103515625
1772536306027361300,2.124361328125,-0.9983367919921875,-0.106231689453125,0.009002685546875
1772536306037410600,2.13441064453125,-0.99951171875,-0.1072845458984375,0.010284423828125
1772536306047458300,2.144458251953125,-0.997100830078125,-0.1070098876953125,0.01068115234375
1772536306057506600,2.154506591796875,-0.994873046875,-0.105010986328125,0.0106964111328125
1772536306067555300,2.164555419921875,-0.9957122802734375,-0.105194091796875,0.012847900390625
1772536306077603300,2.174603271484375,-0.9986572265625,-0.1070556640625,0.0161895751953125
1772536306087651600,2.184651611328125,-0.994049072265625,-0.1050567626953125,0.014984130859375
1772536306097700400,2.194700439453125,-0.99237060546875,-0.1038055419921875,0.01629638671875
1772536306107748600,2.20474853515625,-0.9962615966796875,-0.1052703857421875,0.01898193359375
1772536306117796400,2.21479638671875,-0.99786376953125,-0.10614013671875,0.0193634033203125
1772536306127845600,2.224845703125,-0.9967803955078125,-0.1046295166015625,0.0182952880859375
1772536306137893400,2.234893310546875,-0.9973602294921875,-0.1056365966796875,0.0166473388671875
1772536306147942700,2.244942626953125,-1.0000762939453125,-0.1059417724609375,0.0179443359375
1772536306157990400,2.254990478515625,-1.000396728515625,-0.1050872802734375,0.015228271484375
1772536306168038400,2.265038330078125,-0.9987030029296875,-0.1041412353515625,0.0156707763671875
1772536306178087400,2.27508740234375,-1.000396728515625,-0.104034423828125,0.0141143798828125
1772536306188135400,2.285135498046875,-0.99932861328125,-0.1055145263671875,0.011993408203125
1772536306198183400,2.295183349609375,-0.99945068359375,-0.106781005859375,0.0123443603515625
1772536306208232400,2.305232421875,-0.99969482421875,-0.106597900390625,0.0119781494140625
1772536306218280400,2.315280517578125,-0.9982147216796875,-0.1078948974609375,0.0095062255859375
1772536306228329500,2.32532958984375,-0.9987945556640625,-0.108734130859375,0.00860595703125
1772536306238377500,2.33537744140625,-0.9954833984375,-0.1085205078125,0.0080718994140625
1772536306248425500,2.345425537109375,-0.9937744140625,-0.107330322265625,0.009368896484375
1772536306258474200,2.35547412109375,-0.99151611328125,-0.10760498046875,0.010955810546875
1772536306268522500,2.3655224609375,-0.9910736083984375,-0.108673095703125,0.012176513671875
1772536306278570500,2.375570556640625,-0.993194580078125,-0.1085205078125,0.0132904052734375
1772536306288619500,2.38561962890625,-0.990997314453125,-0.1073760986328125,0.013031005859375
1772536306298667500,2.39566748046875,-0.9899749755859375,-0.1066436767578125,0.012176513671875
1772536306308715300,2.40571533203125,-0.9915008544921875,-0.106719970703125,0.0104217529296875
1772536306318764500,2.4157646484375,-0.991302490234375,-0.106536865234375,0.0095977783203125
1772536306328812300,2.425812255859375,-0.994903564453125,-0.1071929931640625,0.011932373046875
1772536306338861600,2.435861572265625,-0.9986114501953125,-0.108123779296875,0.01239013671875
1772536306348909300,2.445909423828125,-0.99859619140625,-0.1074066162109375,0.0125732421875
1772536306358957600,2.45595751953125,-1.00006103515625,-0.1072998046875,0.0141143798828125
1772536306369006300,2.46600634765625,-1.00079345703125,-0.10760498046875,0.0139007568359375
1772536306379054600,2.4760546875,-0.9994354248046875,-0.107025146484375,0.01458740234375
1772536306389102300,2.486102294921875,-0.997955322265625,-0.106536865234375,0.014984130859375
1772536306399151600,2.496151611328125,-0.99676513671875,-0.10577392578125,0.0169219970703125
1772536306409199400,2.506199462890625,-0.9985809326171875,-0.10540771484375,0.017913818359375
1772536306419247400,2.516247314453125,-0.9983978271484375,-0.1055755615234375,0.019775390625
1772536306429296400,2.52629638671875,-0.9970550537109375,-0.1070404052734375,0.019622802734375
1772536306439344400,2.536344482421875,-0.994873046875,-0.1085662841796875,0.019927978515625
1772536306449392600,2.546392578125,-0.9967041015625,-0.1085205078125,0.0194549560546875
1772536306459441400,2.55644140625,-0.9973602294921875,-0.1103668212890625,0.0168914794921875
1772536306469489700,2.56648974609375,-0.997467041015625,-0.110321044921875,0.0157928466796875
1772536306479538400,2.576538330078125,-0.9989166259765625,-0.1089019775390625,0.01434326171875
1772536306489586400,2.58658642578125,-0.998992919921875,-0.1087646484375,0.0128021240234375
1772536306499634400,2.596634521484375,-1.0015716552734375,-0.1075897216796875,0.0122222900390625
1772536306509683500,2.606683349609375,-1.0025482177734375,-0.1055755615234375,0.013397216796875
1772536306519731500,2.6167314453125,-1.0004730224609375,-0.1064605712890625,0.012542724609375
1772536306529779500,2.626779541015625,-0.999542236328125,-0.1048126220703125,0.012786865234375
1772536306539828500,2.636828369140625,-0.9968719482421875,-0.104766845703125,0.012725830078125
1772536306549876500,2.64687646484375,-0.9932403564453125,-0.105712890625,0.0133056640625
1772536306559925500,2.656925537109375,-0.99188232421875,-0.107086181640625,0.01397705078125
1772536306569973500,2.666973388671875,-0.99383544921875,-0.10809326171875,0.0147857666015625
1772536306580021500,2.677021484375,-0.9961700439453125,-0.108062744140625,0.0153350830078125
1772536306590070500,2.687070556640625,-0.99627685546875,-0.1059417724609375,0.013427734375
1772536306600118300,2.6971181640625,-0.9958343505859375,-0.103179931640625,0.0113525390625
1772536306610166500,2.70716650390625,-0.998870849609375,-0.1011810302734375,0.0105743408203125
1772536306620215300,2.71721533203125,-1.0011749267578125,-0.10321044921875,0.01025390625
1772536306630263600,2.727263671875,-1.00006103515625,-0.1035919189453125,0.0130462646484375
1772536306640311600,2.7373115234375,-1.0010986328125,-0.1032257080078125,0.0125732421875
1772536306650360300,2.7473603515625,-0.9995880126953125,-0.1044464111328125,0.014251708984375
1772536306660408600,2.75740869140625,-0.9974212646484375,-0.10577392578125,0.0134124755859375
1772536306670456300,2.767456298828125,-0.9953460693359375,-0.1060333251953125,0.0147857666015625
1772536306680505600,2.777505615234375,-0.9940185546875,-0.1083831787109375,0.0185394287109375
1772536306690553300,2.78755322265625,-0.99420166015625,-0.1101837158203125,0.0177001953125
1772536306700602600,2.7976025390625,-0.9905853271484375,-0.1098785400390625,0.0174713134765625
1772536306710650400,2.807650390625,-0.9903564453125,-0.1108551025390625,0.01904296875
1772536306720698400,2.817698486328125,-0.9912261962890625,-0.1106414794921875,0.018035888671875
1772536306730747400,2.827747314453125,-0.98968505859375,-0.1106109619140625,0.0166473388671875
1772536306740795400,2.83779541015625,-0.992645263671875,-0.109710693359375,0.016754150390625
1772536306750843600,2.84784375,-0.99676513671875,-0.1084747314453125,0.016357421875
1772536306760892400,2.857892333984375,-0.9975738525390625,-0.106292724609375,0.0128326416015625
1772536306770940400,2.8679404296875,-0.9961395263671875,-0.104278564453125,0.009796142578125
1772536306780988400,2.877988525390625,-0.9994049072265625,-0.102783203125,0.010772705078125
1772536306791037400,2.888037353515625,-1.00421142578125,-0.1035308837890625,0.0118408203125
1772536306801085400,2.89808544921875,-1.0035400390625,-0.10430908203125,0.011688232421875
1772536306811134500,2.908134521484375,-1.0019073486328125,-0.103424072265625,0.0139312744140625
1772536306821182500,2.918182373046875,-1.0024261474609375,-0.103607177734375,0.0131683349609375
1772536306831230500,2.92823046875,-0.999114990234375,-0.1026763916015625,0.0126190185546875
1772536306841279500,2.938279541015625,-0.994781494140625,-0.102203369140625,0.0140228271484375
1772536306851327500,2.948327392578125,-0.997283935546875,-0.1033782958984375,0.015350341796875
1772536306861375500,2.95837548828125,-0.999298095703125,-0.103973388671875,0.0149688720703125
1772536306871424500,2.968424560546875,-0.99468994140625,-0.1031646728515625,0.0147857666015625
1772536306881472300,2.97847216796875,-0.9924468994140625,-0.102020263671875,0.013458251953125
1772536306891521500,2.988521484375,-0.992889404296875,-0.1042327880859375,0.0133056640625
1772536306901569300,2.9985693359375,-0.992034912109375,-0.1061859130859375,0.0139617919921875
1772536306911617500,3.008617431640625,-0.99224853515625,-0.1078338623046875,0.0155487060546875
1772536306921666300,3.018666259765625,-0.9958953857421875,-0.1101837158203125,0.0147705078125
1772536306931714600,3.028714599609375,-0.9992828369140625,-0.11065673828125,0.01324462890625
1772536306941762600,3.038762451171875,-0.998291015625,-0.11029052734375,0.0121307373046875
1772536306951811600,3.0488115234375,-0.998016357421875,-0.107208251953125,0.0112457275390625
1772536306961859600,3.058859619140625,-0.9984588623046875,-0.1056365966796875,0.00982666015625
1772536306971907300,3.0689072265625,-0.998321533203125,-0.10382080078125,0.0103302001953125
1772536306981953000,3.078953125,-0.9971160888671875,-0.102783203125,0.013092041015625
1772536306992001000,3.0890009765625,-0.999969482421875,-0.103485107421875,0.0151519775390625
1772536307002049000,3.099049072265625,-0.99896240234375,-0.1041259765625,0.0157012939453125
1772536307012098000,3.10909814453125,-0.996490478515625,-0.105255126953125,0.0175628662109375
1772536307022146000,3.11914599609375,-0.9991302490234375,-0.1067352294921875,0.0197296142578125
1772536307032195000,3.129195068359375,-1.001190185546875,-0.1092376708984375,0.0197906494140625
1772536307042243000,3.1392431640625,-0.9979248046875,-0.10797119140625,0.017852783203125
1772536307052291000,3.149291015625,-0.9967193603515625,-0.1057891845703125,0.0175323486328125
1772536307062340000,3.159340087890625,-0.99969482421875,-0.1056365966796875,0.0159149169921875
1772536307072387800,3.169387939453125,-1.0005340576171875,-0.1055755615234375,0.01519775390625
1772536307082436000,3.17943603515625,-0.99853515625,-0.1068572998046875,0.013336181640625
1772536307092484900,3.18948486328125,-1.0003662109375,-0.106719970703125,0.015228271484375
1772536307102533000,3.199533203125,-1.00115966796875,-0.106475830078125,0.01409912109375
1772536307112581000,3.2095810546875,-0.9978485107421875,-0.1056060791015625,0.013671875
1772536307122630100,3.219630126953125,-0.9934234619140625,-0.1028594970703125,0.0128326416015625
1772536307132678100,3.22967822265625,-0.9916229248046875,-0.1038818359375,0.013336181640625
1772536307142727200,3.23972705078125,-0.991302490234375,-0.1064453125,0.01483154296875
1772536307152775200,3.249775146484375,-0.9935302734375,-0.1082916259765625,0.014678955078125
1772536307162823000,3.259822998046875,-0.9933013916015625,-0.1080169677734375,0.015655517578125
1772536307172872200,3.2698720703125,-0.9937896728515625,-0.107635498046875,0.0149078369140625
1772536307182920000,3.279919921875,-0.9926300048828125,-0.107635498046875,0.0133209228515625
1772536307192968200,3.28996826171875,-0.9925994873046875,-0.1053924560546875,0.0132293701171875
1772536307203017000,3.300016845703125,-0.9924774169921875,-0.1071319580078125,0.0134124755859375
1772536307213065200,3.310065185546875,-0.9944000244140625,-0.103363037109375,0.01458740234375
1772536307223113000,3.320113037109375,-0.9949188232421875,-0.1057891845703125,0.01287841796875
1772536307233162000,3.330161865234375,-0.9987640380859375,-0.1073455810546875,0.0148162841796875
1772536307243210000,3.3402099609375,-0.997802734375,-0.1073150634765625,0.015594482421875
1772536307253259000,3.350259033203125,-0.997039794921875,-0.1084136962890625,0.0162200927734375
1772536307263307000,3.36030712890625,-0.99896240234375,-0.10931396484375,0.0148162841796875
1772536307273355000,3.37035498046875,-0.9979400634765625,-0.110076904296875,0.015228271484375
1772536307283404000,3.380404052734375,-0.996551513671875,-0.11016845703125,0.015716552734375
1772536307293452000,3.3904521484375,-0.997711181640625,-0.109405517578125,0.01776123046875
1772536307303500000,3.4005,-0.997161865234375,-0.1088409423828125,0.017791748046875
1772536307313549000,3.410549072265625,-0.9961090087890625,-0.1073150634765625,0.018798828125
1772536307323597000,3.42059716796875,-0.9976043701171875,-0.1065521240234375,0.020782470703125
1772536307333645000,3.43064501953125,-0.99896240234375,-0.105682373046875,0.0193328857421875
1772536307343694000,3.440694091796875,-1.0001373291015625,-0.1055908203125,0.0187835693359375
1772536307353742000,3.4507421875,-0.999481201171875,-0.1032562255859375,0.0194091796875
1772536307363791000,3.460791015625,-0.9980926513671875,-0.1017913818359375,0.0179595947265625
1772536307373839000,3.470839111328125,-0.9977569580078125,-0.1031036376953125,0.01568603515625
1772536307383887000,3.48088720703125,-0.9987335205078125,-0.1028289794921875,0.0167999267578125
1772536307393936100,3.49093603515625,-1.000152587890625,-0.1040191650390625,0.01708984375
1772536307403984100,3.500984130859375,-0.9981231689453125,-0.1062774658203125,0.0152740478515625
1772536307414032000,3.511031982421875,-0.9949798583984375,-0.1063079833984375,0.013336181640625
1772536307424081200,3.5210810546875,-0.9964141845703125,-0.1077880859375,0.015167236328125
1772536307434129000,3.53112890625,-0.9951629638671875,-0.1093597412109375,0.0154571533203125
1772536307444177200,3.54117724609375,-0.9948883056640625,-0.1087493896484375,0.01544189453125
1772536307454226000,3.551225830078125,-0.992156982421875,-0.1072540283203125,0.016357421875
1772536307464274000,3.56127392578125,-0.99383544921875,-0.10760498046875,0.0142364501953125
1772536307474322200,3.571322265625,-0.99407958984375,-0.1077117919921875,0.0139617919921875
1772536307484371000,3.581370849609375,-0.992767333984375,-0.1076507568359375,0.014251708984375
1772536307494419200,3.591419189453125,-0.99407958984375,-0.1082763671875,0.0165557861328125
1772536307504468000,3.601468017578125,-0.997283935546875,-0.1087799072265625,0.018585205078125
1772536307514516200,3.61151611328125,-0.9994354248046875,-0.1085662841796875,0.0179443359375
1772536307524564000,3.62156396484375,-0.999420166015625,-0.105743408203125,0.01678466796875
1772536307534613200,3.63161328125,-0.9997100830078125,-0.1027679443359375,0.01373291015625
1772536307544661000,3.641660888671875,-0.9998931884765625,-0.1002044677734375,0.0129852294921875
1772536307554709000,3.651708984375,-1.0005645751953125,-0.0989837646484375,0.013946533203125
1772536307564758000,3.661758056640625,-0.9988861083984375,-0.1013031005859375,0.0118865966796875
1772536307574806000,3.671805908203125,-0.9973297119140625,-0.10455322265625,0.0139312744140625
1772536307584854000,3.68185400390625,-0.99835205078125,-0.1082763671875,0.0149078369140625
1772536307594903000,3.691903076171875,-0.9967498779296875,-0.1090850830078125,0.0165557861328125
1772536307604951000,3.701950927734375,-0.9948272705078125,-0.109161376953125,0.016448974609375
1772536307615000000,3.712,-0.994873046875,-0.1089324951171875,0.014007568359375
1772536307625048000,3.722048095703125,-0.995025634765625,-0.1070556640625,0.01434326171875
1772536307635096000,3.732095947265625,-0.99560546875,-0.1062164306640625,0.01458740234375
1772536307645144800,3.742144775390625,-0.99383544921875,-0.104156494140625,0.014373779296875
1772536307655193000,3.752193115234375,-0.995361328125,-0.104522705078125,0.016082763671875
1772536307665241000,3.762240966796875,-0.9968719482421875,-0.1053619384765625,0.0174560546875
1772536307675290000,3.7722900390625,-1.001129150390625,-0.1045684814453125,0.018768310546875
1772536307685338000,3.782338134765625,-1.001007080078125,-0.1018218994140625,0.01824951171875
1772536307695385900,3.7923857421875,-0.9968109130859375,-0.0994110107421875,0.01568603515625
1772536307705435100,3.80243505859375,-0.999725341796875,-0.099029541015625,0.01641845703125
1772536307715483000,3.81248291015625,-1.0002288818359375,-0.1006317138671875,0.01580810546875
1772536307725531100,3.82253125,-0.9979705810546875,-0.102691650390625,0.01519775390625
1772536307735580000,3.832579833984375,-0.999176025390625,-0.1033477783203125,0.0174560546875
1772536307745628200,3.842628173828125,-1.00030517578125,-0.104766845703125,0.017364501953125
1772536307755677000,3.852677001953125,-0.99871826171875,-0.1049041748046875,0.0160064697265625
1772536307765725200,3.86272509765625,-0.9977874755859375,-0.103302001953125,0.0147705078125
1772536307775773000,3.87277294921875,-0.9983978271484375,-0.1032562255859375,0.0163421630859375
1772536307785822200,3.882822265625,-0.9993438720703125,-0.103271484375,0.01544189453125
1772536307795870000,3.892869873046875,-0.999420166015625,-0.1021575927734375,0.014434814453125
1772536307805918000,3.90291796875,-1.000640869140625,-0.1023406982421875,0.015289306640625
1772536307815967000,3.912967041015625,-1.000335693359375,-0.1014251708984375,0.01458740234375
1772536307826015000,3.923014892578125,-0.9984893798828125,-0.1004180908203125,0.0144195556640625
1772536307836063200,3.933063232421875,-0.9974517822265625,-0.10137939453125,0.01641845703125
1772536307846112000,3.943112060546875,-0.9976348876953125,-0.1032257080078125,0.0169677734375
1772536307856160000,3.953159912109375,-0.9963836669921875,-0.1054840087890625,0.0174407958984375
1772536307866209000,3.963208984375,-0.9936676025390625,-0.1060333251953125,0.0180206298828125
1772536307876257000,3.973257080078125,-0.995147705078125,-0.1065673828125,0.0177154541015625
1772536307886305000,3.983304931640625,-0.992523193359375,-0.1081695556640625,0.016143798828125
1772536307896354000,3.99335400390625,-0.9935760498046875,-0.107818603515625,0.0163116455078125
1772536307906402000,4.003402099609375,-0.99578857421875,-0.1063079833984375,0.0157623291015625
1772536307916450000,4.013449951171875,-0.9959716796875,-0.1068878173828125,0.01513671875
1772536307926499000,4.0234990234375,-0.99639892578125,-0.1056060791015625,0.013031005859375
1772536307936547000,4.033547119140625,-0.996978759765625,-0.1043853759765625,0.0134429931640625
1772536307946595000,4.043594970703125,-1.00115966796875,-0.1038970947265625,0.0125579833984375
1772536307956644000,4.05364404296875,-1.0016021728515625,-0.1013031005859375,0.0111236572265625
1772536307966692000,4.063692138671875,-1.000946044921875,-0.0996551513671875,0.0095672607421875
1772536307976741000,4.0737412109375,-1.001556396484375,-0.098541259765625,0.0101165771484375
1772536307986792400,4.08379248046875,-1.0005340576171875,-0.0966796875,0.009796142578125
1772536307996840400,4.09384033203125,-0.9986114501953125,-0.097869873046875,0.0055084228515625
1772536308006889200,4.10388916015625,-0.9956512451171875,-0.102020263671875,0.0075225830078125
1772536308016937500,4.1139375,-0.9941864013671875,-0.104888916015625,0.0075836181640625
1772536308026985500,4.1239853515625,-0.993560791015625,-0.1074676513671875,0.0086822509765625
1772536308037034500,4.134034423828125,-0.9941253662109375,-0.1099395751953125,0.01116943359375
1772536308047082500,4.14408251953125,-0.9950714111328125,-0.1092987060546875,0.0106964111328125
1772536308057130200,4.154130126953125,-0.992279052734375,-0.107391357421875,0.009613037109375
1772536308067179500,4.164179443359375,-0.99298095703125,-0.1065216064453125,0.009521484375
1772536308077227300,4.174227294921875,-0.9939422607421875,-0.105377197265625,0.0089263916015625
1772536308087275500,4.184275634765625,-0.994049072265625,-0.1042022705078125,0.010650634765625
1772536308097324300,4.19432421875,-0.9938507080078125,-0.10394287109375,0.0123443603515625
1772536308107372500,4.20437255859375,-0.997100830078125,-0.104339599609375,0.0136566162109375
1772536308117421300,4.21442138671875,-1.0013275146484375,-0.104705810546875,0.0160980224609375
1772536308127469300,4.22446923828125,-1.0036773681640625,-0.10406494140625,0.0159759521484375
1772536308137517600,4.234517578125,-1.0007476806640625,-0.1019439697265625,0.01470947265625
1772536308147566300,4.24456640625,-0.9999847412109375,-0.099365234375,0.0160369873046875
1772536308157614600,4.254614501953125,-0.9999237060546875,-0.09765625,0.0135650634765625
1772536308167662300,4.264662353515625,-0.996978759765625,-0.096405029296875,0.0112457275390625
1772536308177711400,4.27471142578125,-0.995635986328125,-0.09881591796875,0.0149383544921875
1772536308187759400,4.28475927734375,-1.0016326904296875,-0.1031951904296875,0.0142822265625
1772536308197807400,4.294807373046875,-1,-0.1057586669921875,0.0137176513671875
1772536308207856400,4.3048564453125,-0.9977264404296875,-0.10675048828125,0.0157623291015625
1772536308217904400,4.314904296875,-1.0006561279296875,-0.10626220703125,0.01300048828125
1772536308227953400,4.324953369140625,-0.9979248046875,-0.1040496826171875,0.0097503662109375
1772536308238001400,4.33500146484375,-0.994171142578125,-0.1015167236328125,0.0086517333984375
1772536308248049400,4.34504931640625,-0.9976348876953125,-0.1013641357421875,0.0104522705078125
1772536308258098400,4.355098388671875,-0.9981689453125,-0.102020263671875,0.0110015869140625
1772536308268146400,4.365146484375,-0.9952850341796875,-0.1018524169921875,0.01239013671875
1772536308278194400,4.3751943359375,-0.998565673828125,-0.1012420654296875,0.014129638671875
1772536308288243500,4.385243408203125,-0.9984283447265625,-0.099761962890625,0.0153350830078125
1772536308298291500,4.39529150390625,-0.9938507080078125,-0.0986175537109375,0.015838623046875
1772536308308339500,4.40533935546875,-0.993316650390625,-0.0966644287109375,0.0142822265625
1772536308318388500,4.415388427734375,-0.992279052734375,-0.0983734130859375,0.014251708984375
1772536308328436500,4.4254365234375,-0.992950439453125,-0.101104736328125,0.01788330078125
1772536308338484500,4.435484375,-0.9957427978515625,-0.104888916015625,0.018280029296875
1772536308348533500,4.445533447265625,-0.9948272705078125,-0.1063385009765625,0.017730712890625
1772536308358581200,4.455581298828125,-0.9988250732421875,-0.107452392578125,0.0182037353515625
1772536308368630500,4.465630615234375,-1.0004425048828125,-0.106903076171875,0.0157318115234375
1772536308378678300,4.47567822265625,-0.9984588623046875,-0.104400634765625,0.014678955078125
1772536308388726500,4.4857265625,-0.999114990234375,-0.10235595703125,0.0146636962890625
1772536308398775300,4.495775390625,-1.003326416015625,-0.103973388671875,0.015289306640625
1772536308408823600,4.505823486328125,-1.003265380859375,-0.1038055419921875,0.0162353515625
1772536308418871300,4.515871337890625,-1.0025787353515625,-0.1024627685546875,0.01654052734375
1772536308428920600,4.525920654296875,-1.0011444091796875,-0.1013031005859375,0.0177154541015625
1772536308438968300,4.53596826171875,-0.999481201171875,-0.10003662109375,0.0165557861328125
1772536308449016300,4.546016357421875,-0.998626708984375,-0.0996856689453125,0.01556396484375
1772536308459065300,4.5560654296875,-0.99957275390625,-0.100372314453125,0.014434814453125
1772536308469113300,4.56611328125,-0.9977874755859375,-0.102294921875,0.013946533203125
1772536308479161600,4.57616162109375,-0.99591064453125,-0.1043243408203125,0.011749267578125
1772536308489210400,4.58621044921875,-0.9976654052734375,-0.1056060791015625,0.01202392578125
1772536308499258600,4.596258544921875,-0.995849609375,-0.10565185546875,0.01116943359375
1772536308509307400,4.606307373046875,-0.9957427978515625,-0.103790283203125,0.0081024169921875
1772536308519355600,4.616355712890625,-0.9947967529296875,-0.101715087890625,0.00616455078125
1772536308529403400,4.6264033203125,-0.99517822265625,-0.10125732421875,0.006927490234375
1772536308539452400,4.636452392578125,-0.9962005615234375,-0.10223388671875,0.0055694580078125
1772536308549500400,4.64650048828125,-0.99853515625,-0.1026763916015625,0.005462646484375
1772536308559548400,4.65654833984375,-0.9983367919921875,-0.1028289794921875,0.0070648193359375
1772536308569597400,4.666597412109375,-0.9954071044921875,-0.1015472412109375,0.0060577392578125
1772536308579645400,4.6766455078125,-0.9971160888671875,-0.1009979248046875,0.0059356689453125
1772536308589693200,4.686693115234375,-0.9988861083984375,-0.1010589599609375,0.0084381103515625
1772536308599742500,4.696742431640625,-1.0001373291015625,-0.1020660400390625,0.0088348388671875
1772536308609790200,4.706790283203125,-0.9983673095703125,-0.1025238037109375,0.0085906982421875
1772536308619839500,4.716839599609375,-0.9962615966796875,-0.103607177734375,0.010101318359375
1772536308629887200,4.72688720703125,-0.9964752197265625,-0.1036224365234375,0.0123443603515625
1772536308639935500,4.736935546875,-0.9970245361328125,-0.1044769287109375,0.013885498046875
1772536308649984300,4.746984375,-0.997772216796875,-0.106109619140625,0.0130767822265625
1772536308660032500,4.757032470703125,-1.0013885498046875,-0.1036529541015625,0.0138702392578125
1772536308670080500,4.76708056640625,-1.00103759765625,-0.1021728515625,0.0104217529296875
1772536308680129500,4.777129638671875,-0.9973297119140625,-0.102203369140625,0.0079193115234375
1772536308690177500,4.787177490234375,-0.999847412109375,-0.1015472412109375,0.0087127685546875
1772536308700225300,4.797225341796875,-1.001129150390625,-0.1028594970703125,0.0084075927734375
1772536308710274600,4.807274658203125,-0.99871826171875,-0.10479736328125,0.00927734375
1772536308720322300,4.817322265625,-1.00201416015625,-0.104827880859375,0.01025390625
1772536308730370600,4.82737060546875,-1.0018310546875,-0.105926513671875,0.0072784423828125
1772536308740419300,4.83741943359375,-1.0014801025390625,-0.1074676513671875,0.0036468505859375
1772536308750467300,4.84746728515625,-1.0016021728515625,-0.1048431396484375,0.0052642822265625
1772536308760516400,4.857516357421875,-0.9962005615234375,-0.1056671142578125,0.0063323974609375
1772536308770564400,4.867564453125,-0.9951629638671875,-0.1074676513671875,0.004974365234375
1772536308780612400,4.8776123046875,-0.9950103759765625,-0.1056976318359375,0.00494384765625
1772536308790661400,4.887661376953125,-0.992828369140625,-0.10406494140625,0.0083160400390625
1772536308800709400,4.89770947265625,-0.9964752197265625,-0.10394287109375,0.01080322265625
1772536308810757400,4.90775732421875,-0.9986419677734375,-0.104644775390625,0.007720947265625
1772536308820806400,4.917806396484375,-0.9932403564453125,-0.102386474609375,0.008331298828125
1772536308830854400,4.9278544921875,-0.9925537109375,-0.1013641357421875,0.01116943359375
1772536308840902400,4.93790234375,-0.9973297119140625,-0.1044158935546875,0.0087890625
1772536308850951400,4.947951416015625,-0.995819091796875,-0.10418701171875,0.0092010498046875
1772536308860999400,4.95799951171875,-0.997100830078125,-0.104461669921875,0.0078277587890625
1772536308871048400,4.96804833984375,-0.9983062744140625,-0.1067657470703125,0.005767822265625
1772536308881096400,4.978096435546875,-0.9988861083984375,-0.1062469482421875,0.007293701171875
1772536308891144400,4.98814453125,-1.003326416015625,-0.106689453125,0.0064239501953125
1772536308901193500,4.998193359375,-0.9999542236328125,-0.106475830078125,0.0070953369140625
1772536308911241500,5.008241455078125,-0.999908447265625,-0.103912353515625,0.0083160400390625
1772536308921289500,5.01828955078125,-1.0018310546875,-0.102386474609375,0.00762939453125
1772536308931338200,5.028338134765625,-0.9973297119140625,-0.101531982421875,0.0084686279296875
1772536308941386500,5.038386474609375,-0.99615478515625,-0.1027069091796875,0.010284423828125
1772536308951434500,5.0484345703125,-0.9971923828125,-0.1038970947265625,0.0102386474609375
1772536308961483500,5.0584833984375,-0.9967193603515625,-0.10400390625,0.011505126953125
1772536308971531300,5.06853125,-0.9948883056640625,-0.1030426025390625,0.010986328125
1772536308981575400,5.078575439453125,-0.9931182861328125,-0.10272216796875,0.0108795166015625
1772536308991624700,5.088624755859375,-0.994781494140625,-0.1044158935546875,0.0116424560546875
1772536309001672400,5.09867236328125,-0.9979095458984375,-0.1048431396484375,0.0115966796875
1772536309011721700,5.1087216796875,-0.994873046875,-0.103790283203125,0.0119171142578125
1772536309021769500,5.11876953125,-0.9937286376953125,-0.104522705078125,0.012847900390625
1772536309031817500,5.1288173828125,-0.9959869384765625,-0.106964111328125,0.0123443603515625
1772536309041866500,5.138866455078125,-0.995208740234375,-0.1087493896484375,0.0111846923828125
1772536309051914500,5.14891455078125,-0.9961395263671875,-0.1088104248046875,0.0123291015625
1772536309061962500,5.15896240234375,-0.996429443359375,-0.10919189453125,0.0109710693359375
1772536309072011500,5.169011474609375,-0.9969940185546875,-0.109039306640625,0.01007080078125
1772536309082059500,5.1790595703125,-0.996063232421875,-0.108062744140625,0.0067291259765625
1772536309092107500,5.189107421875,-0.9933929443359375,-0.1053619384765625,0.00286865234375
1772536309102156500,5.199156494140625,-0.9984588623046875,-0.109161376953125,0.0105133056640625
1772536309112204500,5.20920458984375,-1.0046539306640625,-0.1103973388671875,0.0146331787109375
1772536309122252500,5.21925244140625,-0.998199462890625,-0.1040496826171875,0.0071563720703125
1772536309132301600,5.229301513671875,-0.99395751953125,-0.1008148193359375,0.0046539306640625
1772536309142349600,5.239349609375,-1.000946044921875,-0.10601806640625,0.0107574462890625
1772536309152398600,5.249398681640625,-1.0045623779296875,-0.1047210693359375,0.013702392578125
1772536309162446600,5.259446533203125,-0.998687744140625,-0.1007232666015625,0.0100250244140625
1772536309172494600,5.26949462890625,-0.9947509765625,-0.102752685546875,0.0066986083984375
1772536309182543600,5.279543701171875,-1.0002593994140625,-0.105316162109375,0.009185791015625
1772536309192591400,5.28959130859375,-0.999969482421875,-0.1063232421875,0.0096282958984375
1772536309202639600,5.2996396484375,-0.997772216796875,-0.1065216064453125,0.008392333984375
1772536309212688400,5.3096884765625,-0.998046875,-0.1074066162109375,0.0069580078125
1772536309222736600,5.319736572265625,-0.9985809326171875,-0.109588623046875,0.0051727294921875
1772536309232784400,5.329784423828125,-0.9954681396484375,-0.1094512939453125,0.0039520263671875
1772536309242833700,5.339833740234375,-0.994110107421875,-0.1089324951171875,0.0046234130859375
1772536309252881400,5.34988134765625,-0.9958953857421875,-0.1101837158203125,0.0048675537109375
1772536309262929400,5.359929443359375,-0.9986724853515625,-0.1117095947265625,0.007415771484375
1772536309272978400,5.369978515625,-0.9978179931640625,-0.109466552734375,0.0067901611328125
1772536309283026400,5.3800263671875,-0.9944610595703125,-0.1064300537109375,0.0072021484375
1772536309293074700,5.39007470703125,-0.9946746826171875,-0.1054534912109375,0.0056915283203125
1772536309303123500,5.40012353515625,-0.9937286376953125,-0.105682373046875,0.005157470703125
1772536309313171700,5.410171630859375,-0.9925689697265625,-0.1056060791015625,0.0059356689453125
1772536309323219500,5.420219482421875,-0.993743896484375,-0.1081085205078125,0.0074920654296875
1772536309333268700,5.430268798828125,-0.996337890625,-0.110321044921875,0.008819580078125
1772536309343316500,5.44031640625,-0.9974517822265625,-0.109161376953125,0.0083465576171875
1772536309353365800,5.45036572265625,-0.9957427978515625,-0.105926513671875,0.0064697265625
1772536309363413500,5.46041357421875,-0.994720458984375,-0.1052703857421875,0.0072479248046875
1772536309373461500,5.47046142578125,-0.995208740234375,-0.1061859130859375,0.0078125
1772536309383510500,5.480510498046875,-0.99493408203125,-0.1069183349609375,0.0095977783203125
1772536309393558500,5.49055859375,-0.994476318359375,-0.1084442138671875,0.0096893310546875
1772536309403606500,5.5006064453125,-0.99835205078125,-0.1092071533203125,0.0117645263671875
1772536309413655600,5.510655517578125,-1.00067138671875,-0.1078948974609375,0.0103912353515625
1772536309423703600,5.52070361328125,-0.9969329833984375,-0.10845947265625,0.0103302001953125
1772536309433751600,5.53075146484375,-0.9994354248046875,-0.109649658203125,0.0114898681640625
1772536309443800600,5.540800537109375,-1.0010833740234375,-0.10888671875,0.0139923095703125
1772536309453848600,5.5508486328125,-1.0022125244140625,-0.109283447265625,0.0160980224609375
1772536309463896600,5.560896484375,-1.000823974609375,-0.108642578125,0.014984130859375
1772536309473945600,5.570945556640625,-0.99993896484375,-0.10693359375,0.01617431640625
1772536309483993600,5.58099365234375,-1.008209228515625,-0.106964111328125,0.0142059326171875
1772536309494042600,5.591042724609375,-0.997528076171875,-0.106781005859375,0.0152740478515625
1772536309504090600,5.601090576171875,-0.9993133544921875,-0.1056365966796875,0.0142974853515625
1772536309514138400,5.611138427734375,-1.000152587890625,-0.1050872802734375,0.0120391845703125
1772536309524187600,5.621187744140625,-0.99578857421875,-0.106842041015625,0.012664794921875
1772536309534235400,5.6312353515625,-0.99383544921875,-0.1070709228515625,0.0101318359375
1772536309544283600,5.64128369140625,-0.9899749755859375,-0.10882568359375,0.0110321044921875
1772536309554332400,5.65133251953125,-0.990509033203125,-0.11297607421875,0.01080322265625
1772536309564380700,5.661380615234375,-0.99029541015625,-0.1145172119140625,0.010406494140625
1772536309574428700,5.6714287109375,-0.988677978515625,-0.1129150390625,0.011138916015625
1772536309584477400,5.6814775390625,-0.9919586181640625,-0.1127471923828125,0.0084381103515625
1772536309594525700,5.691525634765625,-0.993743896484375,-0.1115875244140625,0.007568359375
1772536309604573400,5.701573486328125,-0.9929962158203125,-0.110626220703125,0.00726318359375
1772536309614622700,5.711622802734375,-0.9947662353515625,-0.1099395751953125,0.0066070556640625
1772536309624670500,5.72167041015625,-0.9963226318359375,-0.110687255859375,0.0087890625
1772536309634719500,5.731719482421875,-0.99786376953125,-0.1105804443359375,0.009613037109375
1772536309644767500,5.741767578125,-0.9957427978515625,-0.11041259765625,0.011199951171875
1772536309654815500,5.7518154296875,-0.996368408203125,-0.1083831787109375,0.013092041015625
1772536309664864500,5.761864501953125,-0.9967193603515625,-0.10906982421875,0.012359619140625
1772536309674912500,5.77191259765625,-0.995819091796875,-0.109619140625,0.0138702392578125
1772536309684960500,5.78196044921875,-0.9963226318359375,-0.1107330322265625,0.0147857666015625
1772536309695009500,5.792009521484375,-0.9975433349609375,-0.110931396484375,0.0169677734375
1772536309705057500,5.8020576171875,-0.9993743896484375,-0.1111907958984375,0.0162506103515625
1772536309715105500,5.81210546875,-0.9987945556640625,-0.109954833984375,0.0160980224609375
1772536309725154600,5.822154541015625,-0.999237060546875,-0.10858154296875,0.015533447265625
1772536309735202600,5.83220263671875,-1.0001220703125,-0.106719970703125,0.0150909423828125
1772536309745250600,5.84225048828125,-0.9988250732421875,-0.1075897216796875,0.0139923095703125
1772536309755299600,5.852299560546875,-0.99688720703125,-0.1085357666015625,0.013824462890625
1772536309765347600,5.86234765625,-0.998504638671875,-0.110809326171875,0.0152435302734375
1772536309775396600,5.872396728515625,-0.9986572265625,-0.111480712890625,0.014190673828125
1772536309785444600,5.882444580078125,-0.996063232421875,-0.113189697265625,0.0139007568359375
1772536309795492600,5.89249267578125,-0.9940032958984375,-0.1141510009765625,0.0132293701171875
1772536309805541600,5.902541748046875,-0.9944915771484375,-0.11602783203125,0.0129852294921875
1772536309815589400,5.91258935546875,-0.9923095703125,-0.1173248291015625,0.0122528076171875
1772536309825637600,5.9226376953125,-0.995574951171875,-0.1169281005859375,0.0119171142578125
1772536309835686400,5.932686279296875,-0.998504638671875,-0.1157379150390625,0.012420654296875
1772536309845734700,5.942734619140625,-0.9928741455078125,-0.1137237548828125,0.0096435546875
1772536309855782400,5.952782470703125,-0.992034912109375,-0.1102294921875,0.0096893310546875
1772536309865831700,5.962831787109375,-0.998046875,-0.1107177734375,0.0148162841796875
1772536309875879400,5.97287939453125,-0.9957733154296875,-0.11126708984375,0.0152587890625
1772536309885928700,5.9829287109375,-0.99420166015625,-0.10809326171875,0.015106201171875
1772536309895976400,5.9929765625,-0.993804931640625,-0.106292724609375,0.013702392578125
1772536309906024400,6.0030244140625,-0.992889404296875,-0.109161376953125,0.0130615234375
1772536309916073500,6.013073486328125,-0.9949798583984375,-0.1114349365234375,0.0126495361328125
1772536309926121500,6.02312158203125,-0.993804931640625,-0.1129608154296875,0.0124969482421875
1772536309936169700,6.033169677734375,-0.9949493408203125,-0.1147918701171875,0.0136260986328125
1772536309946218500,6.043218505859375,-0.9999237060546875,-0.1154937744140625,0.0124664306640625
1772536309956266800,6.053266845703125,-0.994964599609375,-0.1134490966796875,0.009368896484375
1772536309966314500,6.063314453125,-0.992767333984375,-0.1102142333984375,0.00946044921875
1772536309976363800,6.07336376953125,-0.9953460693359375,-0.111083984375,0.0085296630859375
1772536309986412000,6.083412109375,-0.9928131103515625,-0.1134033203125,0.0106201171875
1772536309996460000,6.0934599609375,-0.9940032958984375,-0.11431884765625,0.0140228271484375
1772536310006509000,6.103509033203125,-0.9946136474609375,-0.11419677734375,0.01568603515625
1772536310016557000,6.11355712890625,-0.9918212890625,-0.1148223876953125,0.015350341796875
1772536310026606000,6.123606201171875,-0.9946136474609375,-0.1142578125,0.018218994140625
1772536310036654000,6.133654052734375,-0.997894287109375,-0.1126251220703125,0.0178375244140625
1772536310046702000,6.1437021484375,-0.9969940185546875,-0.11163330078125,0.0170440673828125
1772536310056751000,6.153751220703125,-0.999969482421875,-0.111053466796875,0.0196380615234375
1772536310066798800,6.163798828125,-1.0018463134765625,-0.1108245849609375,0.01849365234375
1772536310076847000,6.17384716796875,-0.99810791015625,-0.1096038818359375,0.017791748046875
1772536310086895900,6.183895751953125,-1.0001983642578125,-0.1090850830078125,0.0218353271484375
1772536310096944000,6.193944091796875,-1.00439453125,-0.1116485595703125,0.0210723876953125
1772536310106992000,6.2039921875,-1.00048828125,-0.1099853515625,0.021484375
1772536310117041200,6.214041259765625,-1.0014495849609375,-0.1085052490234375,0.0233612060546875
1772536310127089000,6.2240888671875,-1.002166748046875,-0.1083984375,0.0206451416015625
1772536310137137000,6.234136962890625,-0.998565673828125,-0.1081390380859375,0.0193939208984375
1772536310147186000,6.24418603515625,-0.9970550537109375,-0.1073150634765625,0.0193023681640625
1772536310157234000,6.25423388671875,-0.99359130859375,-0.109619140625,0.01824951171875
1772536310167283000,6.264282958984375,-0.9916839599609375,-0.1134796142578125,0.0189361572265625
1772536310177331000,6.2743310546875,-0.9950408935546875,-0.11553955078125,0.0171966552734375
1772536310187379200,6.284379150390625,-0.9933013916015625,-0.1165924072265625,0.014251708984375
1772536310197428000,6.294427978515625,-0.9931488037109375,-0.116790771484375,0.0138092041015625
1772536310207476200,6.304476318359375,-0.994598388671875,-0.11651611328125,0.012664794921875
1772536310217524000,6.31452392578125,-0.9929656982421875,-0.114227294921875,0.011871337890625
1772536310227573200,6.3245732421875,-0.991943359375,-0.11297607421875,0.0102386474609375
1772536310237621000,6.33462109375,-0.9933013916015625,-0.1114044189453125,0.009735107421875
1772536310247669000,6.3446689453125,-0.99359130859375,-0.10992431640625,0.01080322265625
1772536310257718000,6.354718017578125,-0.992828369140625,-0.1092681884765625,0.011077880859375
1772536310267766000,6.36476611328125,-0.99371337890625,-0.1076202392578125,0.0110321044921875
1772536310277814300,6.374814208984375,-0.9925537109375,-0.10784912109375,0.0122222900390625
1772536310287863000,6.384863037109375,-0.9943389892578125,-0.1071014404296875,0.01226806640625
1772536310297911000,6.3949111328125,-0.9972076416015625,-0.107177734375,0.0110321044921875
1772536310307960000,6.4049599609375,-0.9958038330078125,-0.1089019775390625,0.0103912353515625
1772536310318008000,6.415008056640625,-0.9950408935546875,-0.1090240478515625,0.0109100341796875
1772536310328056000,6.42505615234375,-0.9980621337890625,-0.109619140625,0.011077880859375
1772536310338105000,6.43510498046875,-1.00048828125,-0.1106414794921875,0.00994873046875
1772536310348153000,6.445153076171875,-1.003387451171875,-0.1106109619140625,0.009033203125
1772536310358201000,6.455201171875,-1.0030517578125,-0.107574462890625,0.013458251953125
1772536310368250000,6.46525,-1.0042266845703125,-0.1063690185546875,0.0153656005859375
1772536310378298000,6.475298095703125,-1.0025634765625,-0.1071624755859375,0.01806640625
1772536310388345900,6.485345947265625,-1.0117950439453125,-0.10675048828125,0.014984130859375
1772536310398395100,6.49539501953125,-0.995758056640625,-0.106353759765625,0.014007568359375
1772536310408443000,6.50544287109375,-0.9939422607421875,-0.1048126220703125,0.027099609375
1772536310418491100,6.5154912109375,-1.0048370361328125,-0.1067352294921875,0.019561767578125
1772536310428540000,6.525539794921875,-0.9932098388671875,-0.1083831787109375,0.020050048828125
1772536310438588200,6.535588134765625,-0.994232177734375,-0.107330322265625,0.020538330078125
1772536310448636200,6.54563623046875,-0.9937286376953125,-0.108245849609375,0.0184783935546875
1772536310458685200,6.555685302734375,-0.993988037109375,-0.111663818359375,0.015533447265625
1772536310468733200,6.565733154296875,-0.98779296875,-0.1124725341796875,0.013519287109375
1772536310478782000,6.575781982421875,-0.9893798828125,-0.1128997802734375,0.01593017578125
1772536310488830200,6.585830322265625,-0.99530029296875,-0.116058349609375,0.01544189453125
1772536310498878000,6.5958779296875,-0.993377685546875,-0.1148223876953125,0.0155181884765625
1772536310508927200,6.60592724609375,-0.9899139404296875,-0.1112060546875,0.012603759765625
1772536310518975000,6.61597509765625,-0.990386962890625,-0.110260009765625,0.01171875
1772536310529023000,6.62602294921875,-0.9919891357421875,-0.110809326171875,0.0124969482421875
1772536310539072000,6.636072021484375,-0.9936676025390625,-0.11053466796875,0.01507568359375
1772536310549120000,6.6461201171875,-0.99560546875,-0.1112213134765625,0.016082763671875
1772536310559168000,6.65616796875,-0.99871826171875,-0.110107421875,0.0164794921875
1772536310569217000,6.666217041015625,-1.00103759765625,-0.1074676513671875,0.0179595947265625
1772536310579265000,6.67626513671875,-0.999481201171875,-0.105072021484375,0.0158843994140625
1772536310589313000,6.68631298828125,-0.9994659423828125,-0.104248046875,0.01434326171875
1772536310599362000,6.696362060546875,-1.001434326171875,-0.103851318359375,0.014495849609375
1772536310609410000,6.70641015625,-1.002349853515625,-0.105804443359375,0.013641357421875
1772536310619459000,6.716458984375,-0.9997100830078125,-0.1062164306640625,0.012725830078125
1772536310629507000,6.726507080078125,-0.9988250732421875,-0.1055145263671875,0.0156402587890625
1772536310639555000,6.73655517578125,-1.0005645751953125,-0.109161376953125,0.011810302734375
1772536310649604000,6.74660400390625,-0.9970550537109375,-0.1095428466796875,0.01226806640625
1772536310659652000,6.756652099609375,-0.9950408935546875,-0.1085357666015625,0.014739990234375
1772536310669700000,6.7667001953125,-0.999603271484375,-0.11077880859375,0.014495849609375
1772536310679749000,6.7767490234375,-0.9975128173828125,-0.109466552734375,0.0132904052734375
1772536310689796900,6.786796875,-0.9938201904296875,-0.1065826416015625,0.0129241943359375
1772536310699845000,6.79684521484375,-0.9970703125,-0.1060638427734375,0.0119781494140625
1772536310709894000,6.806893798828125,-0.99920654296875,-0.105133056640625,0.01312255859375
1772536310719942100,6.816942138671875,-0.997833251953125,-0.104156494140625,0.0106048583984375
1772536310729990000,6.826989990234375,-0.995574951171875,-0.103057861328125,0.010498046875
1772536310740039200,6.8370390625,-1.0015869140625,-0.1042633056640625,0.010528564453125
1772536310750087000,6.8470869140625,-1.0010833740234375,-0.1058502197265625,0.0098114013671875
1772536310760135000,6.857135009765625,-0.9962158203125,-0.1060943603515625,0.0085296630859375
1772536310770184000,6.867183837890625,-0.99468994140625,-0.106414794921875,0.011199951171875
1772536310780232000,6.87723193359375,-0.9960784912109375,-0.1087646484375,0.010345458984375
1772536310790281000,6.887281005859375,-0.9932403564453125,-0.109100341796875,0.0108184814453125
1772536310800329000,6.897328857421875,-0.992156982421875,-0.109832763671875,0.0120391845703125
1772536310810377200,6.907377197265625,-0.995086669921875,-0.1114959716796875,0.01275634765625
1772536310820426000,6.917426025390625,-0.994781494140625,-0.1102752685546875,0.0118408203125
1772536310830474200,6.92747412109375,-0.9925994873046875,-0.106842041015625,0.0111083984375
1772536310840522000,6.93752197265625,-0.9930419921875,-0.1061859130859375,0.0129852294921875
1772536310850571300,6.9475712890625,-0.997802734375,-0.10833740234375,0.0123291015625
1772536310860619000,6.957618896484375,-0.9971771240234375,-0.1068115234375,0.01483154296875
1772536310870667000,6.9676669921875,-0.9990081787109375,-0.10467529296875,0.0164642333984375
1772536310880716000,6.977716064453125,-1.0005950927734375,-0.1026611328125,0.0151824951171875
1772536310890764000,6.987763916015625,-0.99725341796875,-0.1017608642578125,0.016021728515625
1772536310900812000,6.99781201171875,-0.99920654296875,-0.1039886474609375,0.0172576904296875
1772536310910861000,7.007861083984375,-1.0026092529296875,-0.1064300537109375,0.0181121826171875
1772536310920908800,7.01790869140625,-1.00079345703125,-0.1076202392578125,0.016204833984375
1772536310930957000,7.02795703125,-0.9976654052734375,-0.105865478515625,0.0156402587890625
1772536310941005800,7.038005859375,-0.9993743896484375,-0.105438232421875,0.0164031982421875
1772536310951054000,7.04805419921875,-1.0019989013671875,-0.1065673828125,0.0140533447265625
1772536310961102800,7.058102783203125,-0.9980621337890625,-0.10418701171875,0.013153076171875
1772536310971151000,7.068151123046875,-0.997100830078125,-0.1021575927734375,0.014984130859375
1772536310981199000,7.07819921875,-0.99847412109375,-0.1047210693359375,0.0141448974609375
1772536310991248600,7.08824853515625,-0.9981842041015625,-0.1053619384765625,0.014251708984375
1772536311001296600,7.098296630859375,-0.9963531494140625,-0.10369873046875,0.01263427734375
1772536311011344400,7.108344482421875,-0.992767333984375,-0.1035919189453125,0.0129547119140625
1772536311021393700,7.1183935546875,-0.994110107421875,-0.103515625,0.0116729736328125
1772536311031441400,7.12844140625,-0.9975738525390625,-0.104736328125,0.011810302734375
1772536311041489700,7.13848974609375,-0.99603271484375,-0.105133056640625,0.011383056640625
1772536311051538400,7.148538330078125,-0.9924468994140625,-0.1052093505859375,0.0128631591796875
1772536311061586700,7.158586669921875,-0.9945068359375,-0.106689453125,0.0132293701171875
1772536311071634400,7.168634521484375,-0.9936981201171875,-0.1081390380859375,0.0132598876953125
1772536311081683700,7.17868359375,-0.9936676025390625,-0.10833740234375,0.0137176513671875
1772536311091731500,7.1887314453125,-0.994964599609375,-0.1085205078125,0.0142822265625
1772536311101779500,7.198779541015625,-0.995513916015625,-0.1085662841796875,0.0140228271484375
1772536311111828500,7.208828369140625,-0.9936065673828125,-0.1067047119140625,0.0142822265625
1772536311121876500,7.21887646484375,-0.9969635009765625,-0.10662841796875,0.0145111083984375
1772536311131925500,7.228925537109375,-0.9964141845703125,-0.1053466796875,0.015045166015625
1772536311141973500,7.238973388671875,-0.9975738525390625,-0.10528564453125,0.0155487060546875
1772536311152021800,7.249021728515625,-0.9978179931640625,-0.1033935546875,0.0177001953125
1772536311162070500,7.259070556640625,-0.9999847412109375,-0.1015777587890625,0.0203399658203125
1772536311172118500,7.269118408203125,-1.000091552734375,-0.1006927490234375,0.0154876708984375
1772536311182166500,7.27916650390625,-0.9988555908203125,-0.100860595703125,0.01312255859375
1772536311192215600,7.289215576171875,-0.9964141845703125,-0.101287841796875,0.0145263671875
1772536311202263600,7.299263671875,-0.99688720703125,-0.10302734375,0.015350341796875
1772536311212311600,7.3093115234375,-0.999176025390625,-0.1050567626953125,0.016693115234375
1772536311222360600,7.319360595703125,-0.9997406005859375,-0.1043548583984375,0.01544189453125
1772536311232408600,7.32940869140625,-0.998687744140625,-0.103118896484375,0.0128173828125
1772536311242456300,7.339456298828125,-0.9977569580078125,-0.102996826171875,0.01220703125
1772536311252505600,7.349505615234375,-0.99774169921875,-0.1036224365234375,0.012298583984375
1772536311262553300,7.35955322265625,-0.9946136474609375,-0.1050262451171875,0.0111846923828125
1772536311272601600,7.3696015625,-0.9917755126953125,-0.1035614013671875,0.0141754150390625
1772536311282650400,7.379650390625,-0.9951019287109375,-0.102569580078125,0.017608642578125
1772536311292698600,7.38969873046875,-0.9968109130859375,-0.10345458984375,0.0154876708984375
1772536311302747400,7.399747314453125,-0.9940032958984375,-0.105987548828125,0.0152740478515625
1772536311312795600,7.409795654296875,-0.9968414306640625,-0.1062774658203125,0.01922607421875
1772536311322843600,7.41984375,-0.998931884765625,-0.106536865234375,0.01715087890625
1772536311332892700,7.429892578125,-0.9951171875,-0.107025146484375,0.0151519775390625
1772536311342940700,7.439940673828125,-0.9965972900390625,-0.1047821044921875,0.01751708984375
1772536311352988400,7.449988525390625,-1.001953125,-0.102294921875,0.0162506103515625
1772536311363037700,7.46003759765625,-1.0003204345703125,-0.1006622314453125,0.0153961181640625
1772536311373085400,7.47008544921875,-1.0007171630859375,-0.10064697265625,0.01373291015625
1772536311383133700,7.4801337890625,-1.0041961669921875,-0.1019134521484375,0.0165557861328125
1772536311393182500,7.490182373046875,-1.0014495849609375,-0.1009674072265625,0.0184326171875
1772536311403230500,7.50023046875,-1.0024261474609375,-0.1043548583984375,0.015716552734375
1772536311413278500,7.510278564453125,-0.9997406005859375,-0.1048736572265625,0.015716552734375
1772536311423327500,7.520327392578125,-0.9947967529296875,-0.102508544921875,0.01702880859375
1772536311433375500,7.53037548828125,-0.9952850341796875,-0.1026458740234375,0.0164947509765625
1772536311443423500,7.540423583984375,-0.998138427734375,-0.1039276123046875,0.013885498046875
1772536311453472500,7.550472412109375,-0.9963226318359375,-0.1052093505859375,0.0138702392578125
1772536311463520500,7.5605205078125,-0.9926300048828125,-0.1032257080078125,0.0194549560546875
1772536311473569500,7.570569580078125,-0.9963226318359375,-0.1034698486328125,0.0183258056640625
1772536311483617500,7.580617431640625,-0.996307373046875,-0.10577392578125,0.016876220703125
1772536311493665500,7.59066552734375,-0.998992919921875,-0.1051483154296875,0.0145416259765625
1772536311503714600,7.600714599609375,-0.991607666015625,-0.104278564453125,0.0162200927734375
1772536311513762600,7.610762451171875,-0.9947509765625,-0.10308837890625,0.017303466796875
1772536311523810600,7.620810546875,-0.9993743896484375,-0.1040496826171875,0.014617919921875
1772536311533859600,7.630859619140625,-0.995452880859375,-0.1049346923828125,0.013580322265625
1772536311543907600,7.640907470703125,-0.9926910400390625,-0.10418701171875,0.0148162841796875
1772536311553955600,7.65095556640625,-0.993438720703125,-0.1057281494140625,0.0157470703125
1772536311564004600,7.661004638671875,-0.9970855712890625,-0.10736083984375,0.018798828125
1772536311574052600,7.671052490234375,-0.99920654296875,-0.107391357421875,0.0164031982421875
1772536311584100600,7.6811005859375,-0.991455078125,-0.104827880859375,0.015655517578125
1772536311594149600,7.691149658203125,-0.993896484375,-0.1024932861328125,0.0228729248046875
1772536311604197400,7.701197265625,-1.002410888671875,-0.102783203125,0.020660400390625
1772536311614245600,7.71124560546875,-1.0006866455078125,-0.1020355224609375,0.0161590576171875
1772536311624294400,7.72129443359375,-0.994659423828125,-0.0987091064453125,0.020172119140625
1772536311634342400,7.73134228515625,-1.00079345703125,-0.09881591796875,0.0225982666015625
1772536311644391400,7.741391357421875,-1.00634765625,-0.1013336181640625,0.02276611328125
1772536311654439400,7.751439453125,-1.00872802734375,-0.1011199951171875,0.017364501953125
1772536311664487700,7.76148779296875,-0.996368408203125,-0.09942626953125,0.0213470458984375
1772536311674536400,7.771536376953125,-0.9995880126953125,-0.097503662109375,0.0265045166015625
1772536311684584700,7.781584716796875,-1.0062255859375,-0.0998382568359375,0.0236358642578125
1772536311694632400,7.791632568359375,-0.9989166259765625,-0.101806640625,0.0220794677734375
1772536311704681700,7.801681640625,-0.99761962890625,-0.1016845703125,0.02166748046875
1772536311714729500,7.8117294921875,-0.9972686767578125,-0.10211181640625,0.0223541259765625
1772536311724777500,7.821777587890625,-0.9950103759765625,-0.102691650390625,0.020660400390625
1772536311734826500,7.831826416015625,-0.9930267333984375,-0.1045684814453125,0.0183258056640625
1772536311744874500,7.84187451171875,-0.9925689697265625,-0.10595703125,0.019561767578125
1772536311754922800,7.8519228515625,-0.9934539794921875,-0.1060028076171875,0.019622802734375
1772536311764971500,7.861971435546875,-0.993988037109375,-0.1069183349609375,0.016387939453125
1772536311775019500,7.87201953125,-0.9958343505859375,-0.106842041015625,0.012542724609375
1772536311785067500,7.882067626953125,-0.9839630126953125,-0.1047821044921875,0.0193023681640625
1772536311795116500,7.892116455078125,-0.993804931640625,-0.1017608642578125,0.0203399658203125
1772536311805164500,7.90216455078125,-0.99725341796875,-0.1036224365234375,0.01611328125
1772536311815212500,7.912212646484375,-0.9944610595703125,-0.1038970947265625,0.0187225341796875
1772536311825261600,7.922261474609375,-0.9988555908203125,-0.0996246337890625,0.01739501953125
1772536311835309600,7.9323095703125,-0.99755859375,-0.100616455078125,0.017913818359375
1772536311845358600,7.942358642578125,-0.998748779296875,-0.100677490234375,0.0186614990234375
1772536311855406600,7.952406494140625,-0.9992523193359375,-0.10272216796875,0.018463134765625
1772536311865454300,7.962454345703125,-0.9967498779296875,-0.1033782958984375,0.018524169921875
1772536311875503600,7.972503662109375,-0.99591064453125,-0.1039581298828125,0.021881103515625
1772536311885551400,7.98255126953125,-0.996795654296875,-0.105438232421875,0.0215301513671875
1772536311895599600,7.992599609375,-0.995819091796875,-0.1066436767578125,0.0214385986328125
1772536311905648400,8.0026484375,-0.9945068359375,-0.105499267578125,0.0208740234375
1772536311915696600,8.012696533203124,-0.994964599609375,-0.104156494140625,0.0194244384765625
1772536311925744600,8.02274462890625,-0.994293212890625,-0.1035614013671875,0.0191192626953125
1772536311935793700,8.032793701171874,-0.9950408935546875,-0.1036224365234375,0.017730712890625
1772536311945841700,8.042841552734375,-0.996185302734375,-0.1035919189453125,0.01824951171875
1772536311955889400,8.052889404296875,-0.997650146484375,-0.1041717529296875,0.0197601318359375
1772536311965938700,8.062938720703125,-0.9978179931640625,-0.103515625,0.0185394287109375
1772536311975986400,8.072986328125,-0.9973297119140625,-0.105194091796875,0.01959228515625
1772536311986034200,8.0830341796875,-0.9980926513671875,-0.10528564453125,0.0202484130859375
1772536311996083000,8.0930830078125,-0.9984283447265625,-0.1051483154296875,0.0206756591796875
1772536312006131200,8.103131103515626,-0.99969482421875,-0.1037445068359375,0.0194854736328125
1772536312016180000,8.113179931640625,-1.001617431640625,-0.1023101806640625,0.0179443359375
1772536312026228200,8.123228271484376,-1.0019989013671875,-0.1002349853515625,0.0163726806640625
1772536312036276200,8.133276123046874,-1.0000762939453125,-0.0977325439453125,0.0171966552734375
1772536312046325000,8.143324951171875,-1.000518798828125,-0.0969390869140625,0.018280029296875
1772536312056373000,8.153373046875,-1.0007781982421875,-0.0980224609375,0.01763916015625
1772536312066421000,8.1634208984375,-0.99951171875,-0.0988616943359375,0.021759033203125
1772536312076470000,8.173469970703126,-0.9996490478515625,-0.0999908447265625,0.0224761962890625
1772536312086518000,8.18351806640625,-0.998565673828125,-0.0995330810546875,0.0211639404296875
1772536312096566300,8.193566162109375,-0.994049072265625,-0.0984954833984375,0.0191802978515625
1772536312106615000,8.203614990234374,-0.9907684326171875,-0.0988006591796875,0.0196075439453125
1772536312116663000,8.2136630859375,-0.992828369140625,-0.1017608642578125,0.022125244140625
1772536312126711000,8.2237109375,-0.99407958984375,-0.103912353515625,0.0236968994140625
1772536312136760000,8.233760009765625,-0.99468994140625,-0.103790283203125,0.023681640625
1772536312146808000,8.24380810546875,-0.99365234375,-0.1027984619140625,0.0222015380859375
1772536312156856000,8.25385595703125,-0.995697021484375,-0.100799560546875,0.0218963623046875
1772536312166905000,8.263905029296875,-0.99755859375,-0.1008148193359375,0.0236663818359375
1772536312176953000,8.273953125,-0.9983673095703125,-0.1009063720703125,0.02227783203125
1772536312187001000,8.2840009765625,-0.997344970703125,-0.099853515625,0.0206146240234375
1772536312197050000,8.294050048828124,-0.9985198974609375,-0.0990447998046875,0.022979736328125
1772536312207098000,8.30409814453125,-1.0014495849609375,-0.10028076171875,0.022857666015625
1772536312217147100,8.314147216796876,-0.998321533203125,-0.0989990234375,0.0233154296875
1772536312227195100,8.324195068359375,-1.00128173828125,-0.0972442626953125,0.0240936279296875
1772536312237243100,8.3342431640625,-1.001373291015625,-0.0990753173828125,0.0230865478515625
1772536312247292200,8.344292236328124,-0.9980926513671875,-0.0990753173828125,0.0237274169921875
1772536312257340200,8.354340087890625,-0.9968109130859375,-0.0986328125,0.0238037109375
1772536312267388200,8.36438818359375,-0.9986572265625,-0.0994415283203125,0.024169921875
1772536312277437000,8.37443701171875,-0.9992218017578125,-0.09906005859375,0.0240478515625
1772536312287485200,8.384485107421876,-0.998748779296875,-0.0980224609375,0.023468017578125
1772536312297533000,8.394532958984374,-0.9999542236328125,-0.0986785888671875,0.0248565673828125
1772536312307582200,8.404582275390625,-1.0015106201171875,-0.0984344482421875,0.0226287841796875
1772536312317630000,8.4146298828125,-0.99847412109375,-0.0976104736328125,0.021942138671875
1772536312327678000,8.424677978515625,-0.999542236328125,-0.09735107421875,0.0214691162109375
1772536312337727000,8.43472705078125,-0.99798583984375,-0.099578857421875,0.020599365234375
1772536312347775000,8.44477490234375,-0.997314453125,-0.0993804931640625,0.0215301513671875
1772536312357823200,8.4548232421875,-0.9989166259765625,-0.098785400390625,0.0202178955078125
1772536312367872000,8.4648720703125,-0.99859619140625,-0.099884033203125,0.01763916015625
1772536312377920300,8.474920166015625,-0.9973602294921875,-0.1011962890625,0.0194549560546875
1772536312387968000,8.484968017578124,-0.999176025390625,-0.102020263671875,0.019134521484375
1772536312398017300,8.495017333984375,-0.997711181640625,-0.101837158203125,0.0181121826171875
1772536312408065000,8.50506494140625,-0.995208740234375,-0.1011505126953125,0.01953125
1772536312418113000,8.515113037109375,-0.99603271484375,-0.1003570556640625,0.02032470703125
1772536312428162000,8.525162109375,-0.994537353515625,-0.0994415283203125,0.0178985595703125
1772536312438210000,8.5352099609375,-0.992919921875,-0.099822998046875,0.018768310546875
1772536312448259000,8.545259033203125,-0.9963836669921875,-0.0990447998046875,0.0200653076171875
1772536312458307000,8.55530712890625,-0.998199462890625,-0.099151611328125,0.0209503173828125
1772536312468355000,8.56535498046875,-0.9970703125,-0.0967559814453125,0.0192718505859375
1772536312478404000,8.575404052734376,-0.9962158203125,-0.0961456298828125,0.0198516845703125
1772536312488452000,8.5854521484375,-0.9992828369140625,-0.097412109375,0.0220947265625
1772536312498500000,8.5955,-0.998077392578125,-0.098114013671875,0.0225372314453125
1772536312508548900,8.605548828125,-0.9964599609375,-0.09808349609375,0.02301025390625
1772536312518597000,8.61559716796875,-0.99713134765625,-0.0978546142578125,0.0238189697265625
1772536312528645000,8.62564501953125,-0.9969482421875,-0.0986785888671875,0.02178955078125
1772536312538694100,8.635694091796875,-0.9953155517578125,-0.0982666015625,0.02252197265625
1772536312548742100,8.6457421875,-0.9951934814453125,-0.0977630615234375,0.021728515625
1772536312558790000,8.655789794921875,-0.9975433349609375,-0.0989837646484375,0.0220794677734375
1772536312568839200,8.665839111328125,-0.9991455078125,-0.0983428955078125,0.0237884521484375
1772536312578887000,8.675886962890624,-1.0004730224609375,-0.0994720458984375,0.02252197265625
1772536312588935200,8.68593505859375,-0.99957275390625,-0.0987396240234375,0.0231170654296875
1772536312598984000,8.69598388671875,-0.999237060546875,-0.0977935791015625,0.02130126953125
1772536312609032200,8.7060322265625,-0.9980316162109375,-0.0973358154296875,0.0192718505859375
1772536312619080200,8.716080078125,-0.997711181640625,-0.0970916748046875,0.0204010009765625
1772536312629129200,8.726129150390625,-0.9950408935546875,-0.0979156494140625,0.0220947265625
1772536312639177000,8.736177001953125,-0.994049072265625,-0.0984039306640625,0.0234527587890625
1772536312649226200,8.746226318359374,-0.9966583251953125,-0.099761962890625,0.0246124267578125
1772536312659274000,8.75627392578125,-0.9980316162109375,-0.0997772216796875,0.025390625
1772536312669322000,8.766322021484376,-0.9957275390625,-0.0992584228515625,0.02386474609375
1772536312679371000,8.77637109375,-0.9975128173828125,-0.09820556640625,0.0238037109375
1772536312689419000,8.7864189453125,-1,-0.0991363525390625,0.022552490234375
1772536312699467300,8.79646728515625,-0.99798583984375,-0.0975189208984375,0.0222930908203125
1772536312709516000,8.80651611328125,-0.9995574951171875,-0.0955047607421875,0.021881103515625
1772536312719564300,8.816564208984374,-1.0014801025390625,-0.0943756103515625,0.0235137939453125
1772536312729612000,8.826612060546875,-1.0072784423828125,-0.092315673828125,0.0298004150390625
1772536312739661000,8.8366611328125,-0.9997406005859375,-0.0961456298828125,0.01739501953125
1772536312749709000,8.846708984375,-0.991302490234375,-0.08685302734375,0.0223388671875
1772536312759757000,8.856757080078125,-1.0029754638671875,-0.0863189697265625,0.022674560546875
1772536312769806000,8.86680615234375,-1.003936767578125,-0.093994140625,0.0200958251953125
1772536312779854000,8.87685400390625,-0.9998626708984375,-0.093048095703125,0.0187225341796875
1772536312789902000,8.886902099609374,-0.9977874755859375,-0.0943450927734375,0.0186004638671875
1772536312799951000,8.896951171875,-0.9983978271484375,-0.099517822265625,0.019622802734375
1772536312809999000,8.9069990234375,-0.9994049072265625,-0.1017913818359375,0.020416259765625
1772536312820047000,8.917047119140625,-0.999908447265625,-0.0998687744140625,0.02081298828125
1772536312830096100,8.92709619140625,-0.9987640380859375,-0.0987701416015625,0.01947021484375
1772536312840144100,8.93714404296875,-0.9952850341796875,-0.0976409912109375,0.018280029296875
1772536312850192100,8.947192138671875,-0.9931182861328125,-0.096343994140625,0.0185546875
1772536312860241200,8.9572412109375,-0.9927520751953125,-0.09661865234375,0.019073486328125
1772536312870289200,8.9672890625,-0.992279052734375,-0.09844970703125,0.0197906494140625
1772536312880338200,8.977338134765626,-0.9938507080078125,-0.1002349853515625,0.0191650390625
1772536312890386200,8.98738623046875,-0.9954376220703125,-0.09881591796875,0.0188446044921875
1772536312900434000,8.997433837890625,-0.99658203125,-0.0965728759765625,0.016326904296875
1772536312910483200,9.007483154296875,-0.9953765869140625,-0.0946044921875,0.0164947509765625
1772536312920531000,9.017531005859375,-0.996795654296875,-0.0929107666015625,0.0163421630859375
1772536312930579200,9.0275791015625,-1.00067138671875,-0.0929718017578125,0.0187530517578125
1772536312940628000,9.0376279296875,-1.0030059814453125,-0.0943603515625,0.0199127197265625
1772536312950676000,9.047676025390626,-1.0014495849609375,-0.094970703125,0.0199432373046875
1772536312960724200,9.05772412109375,-1.00189208984375,-0.0941162109375,0.022308349609375
1772536312970773000,9.06777294921875,-1.002593994140625,-0.094207763671875,0.0216064453125
1772536312980821200,9.0778212890625,-1.0025482177734375,-0.0939483642578125,0.0218658447265625
1772536312990869200,9.087869140625,-1.000396728515625,-0.0933685302734375,0.022308349609375
1772536313000918300,9.097918212890624,-1.0007476806640625,-0.093017578125,0.021270751953125
1772536313010966300,9.10796630859375,-0.999114990234375,-0.0947113037109375,0.020294189453125
1772536313021014300,9.11801416015625,-0.9983673095703125,-0.09765625,0.0191497802734375
1772536313031063300,9.128063232421875,-0.9973907470703125,-0.0991058349609375,0.0202178955078125
1772536313041111300,9.138111328125,-0.99896240234375,-0.097015380859375,0.0183868408203125
1772536313051159000,9.148158935546874,-0.9952239990234375,-0.0996246337890625,0.0166015625
1772536313061208300,9.158208251953125,-0.9948883056640625,-0.1000213623046875,0.01629638671875
1772536313071256000,9.168256103515626,-0.99359130859375,-0.1017303466796875,0.016632080078125
1772536313081305300,9.178305419921875,-0.991607666015625,-0.1022491455078125,0.016998291015625
1772536313091353000,9.18835302734375,-0.992645263671875,-0.101165771484375,0.01727294921875
1772536313101401000,9.198401123046875,-0.99310302734375,-0.1005401611328125,0.0164031982421875
1772536313111450000,9.2084501953125,-0.9938812255859375,-0.0998992919921875,0.016876220703125
1772536313121498000,9.218498046875,-0.9957275390625,-0.09979248046875,0.0184173583984375
1772536313131546400,9.22854638671875,-0.9967193603515625,-0.0988922119140625,0.0192718505859375
1772536313141595100,9.23859521484375,-0.9974517822265625,-0.097259521484375,0.018463134765625
1772536313151643400,9.248643310546875,-0.9986419677734375,-0.0961151123046875,0.018157958984375
1772536313161691100,9.258691162109375,-0.9983978271484375,-0.096405029296875,0.0190887451171875
1772536313171740400,9.268740478515625,-0.9998626708984375,-0.0964813232421875,0.020172119140625
1772536313181788200,9.2787880859375,-1.002197265625,-0.095611572265625,0.021453857421875
1772536313191836200,9.288836181640624,-1.001434326171875,-0.095855712890625,0.022430419921875
1772536313201885200,9.29888525390625,-1.0025177001953125,-0.0955657958984375,0.0205535888671875
1772536313211933200,9.30893310546875,-1.001861572265625,-0.0959320068359375,0.019744873046875
1772536313221981200,9.318981201171875,-1.000335693359375,-0.096954345703125,0.02056884765625
1772536313232030200,9.3290302734375,-0.99737548828125,-0.09722900390625,0.0184326171875
1772536313242078200,9.339078125,-0.9975738525390625,-0.09771728515625,0.01953125
1772536313252126200,9.349126220703125,-0.9982147216796875,-0.0991058349609375,0.0198516845703125
1772536313262175200,9.35917529296875,-0.99664306640625,-0.09881591796875,0.0202178955078125
1772536313272223200,9.36922314453125,-0.99871826171875,-0.0983428955078125,0.02032470703125
1772536313282271200,9.379271240234376,-1.001190185546875,-0.09783935546875,0.019256591796875
1772536313292320300,9.3893203125,-0.9989471435546875,-0.0977630615234375,0.0170440673828125
1772536313302368300,9.3993681640625,-0.9943389892578125,-0.0969390869140625,0.0135498046875
1772536313312416300,9.409416259765624,-0.996490478515625,-0.0974273681640625,0.014434814453125
1772536313322465300,9.41946533203125,-0.9963836669921875,-0.0996856689453125,0.01422119140625
1772536313332513000,9.429512939453126,-0.99285888671875,-0.0990753173828125,0.0161590576171875
1772536313342561300,9.439561279296875,-0.9954681396484375,-0.0980072021484375,0.016845703125
1772536313352610000,9.449610107421876,-0.995147705078125,-0.0996551513671875,0.01739501953125
1772536313362658300,9.459658203125,-0.9968719482421875,-0.099853515625,0.0196380615234375
1772536313372706000,9.4697060546875,-0.9978179931640625,-0.1007080078125,0.0205841064453125
1772536313382755300,9.47975537109375,-0.9966583251953125,-0.1009674072265625,0.0199432373046875
1772536313392803000,9.489802978515625,-0.9988861083984375,-0.0991363525390625,0.019317626953125
1772536313402851000,9.49985107421875,-1.0003814697265625,-0.0966339111328125,0.01788330078125
1772536313412900000,9.509900146484375,-1.0019989013671875,-0.0943145751953125,0.0183868408203125
1772536313422948000,9.519947998046876,-1.0030975341796875,-0.0925750732421875,0.018402099609375
1772536313432997000,9.5299970703125,-1.0004119873046875,-0.0919036865234375,0.0183258056640625
1772536313443045000,9.540045166015625,-1.0008087158203125,-0.09393310546875,0.0227508544921875
1772536313453093400,9.55009326171875,-1.004119873046875,-0.0980987548828125,0.022216796875
1772536313463142100,9.56014208984375,-1.00030517578125,-0.1002960205078125,0.0234527587890625
1772536313473190400,9.5701904296875,-0.99993896484375,-0.09814453125,0.020904541015625
1772536313483238100,9.580238037109375,-0.9960784912109375,-0.0968780517578125,0.0175628662109375
1772536313493287400,9.590287353515626,-0.9958343505859375,-0.0986175537109375,0.0193328857421875
1772536313503335200,9.600335205078125,-0.9875030517578125,-0.10009765625,0.014251708984375
1772536313513383200,9.610383056640625,-0.990814208984375,-0.099639892578125,0.02325439453125
1772536313523432200,9.62043212890625,-0.9990692138671875,-0.105194091796875,0.021026611328125
1772536313533480200,9.630480224609375,-0.997894287109375,-0.105255126953125,0.02386474609375
1772536313543528200,9.640528076171876,-0.9999847412109375,-0.105560302734375,0.02288818359375
1772536313553577200,9.6505771484375,-0.998626708984375,-0.1041259765625,0.0211334228515625
1772536313563625200,9.660625244140626,-1.001678466796875,-0.102447509765625,0.0208282470703125
1772536313573673200,9.670673095703124,-1.0032501220703125,-0.099609375,0.018585205078125
1772536313583722200,9.68072216796875,-1.005523681640625,-0.0971527099609375,0.0181427001953125
1772536313593770200,9.690770263671874,-1.0039825439453125,-0.0969085693359375,0.0194091796875
1772536313603818200,9.700818359375,-1.0012664794921875,-0.0985870361328125,0.020904541015625
1772536313613867300,9.7108671875,-0.999481201171875,-0.10003662109375,0.0214996337890625
1772536313623915300,9.720915283203125,-0.9873046875,-0.100067138671875,0.0223541259765625
1772536313633963000,9.730962890625,-0.9870758056640625,-0.10107421875,0.0160369873046875
