time,seconds_elapsed,z,y,x
1772536303986282500,0.083282470703125,0.01423836871087551,0.018669190765172244,-0.06026543066939339
1772536303996331800,0.093331787109375,0.04690262095034122,0.012984203931316732,-0.01298877050857991
1772536304006379500,0.103379638671875,-0.051019408619403836,0.016105770017951725,0.019889343677274882
1772536304016427500,0.113427490234375,-0.10828326458632945,0.007527619025856256,-0.06960245547108351
1772536304026476500,0.1234765625,0.016210545566678045,0.0077515639748424285,-0.10974389345711097
1772536304036524500,0.133524658203125,0.049663902357220645,0.02861249263063073,-0.03779827239336446
1772536304046573600,0.143573486328125,-0.11709668563902377,0.019374489490315318,0.030950032200105487
1772536304056621600,0.15362158203125,-0.18275486046373843,-0.0031426088746637102,-0.022096151272859424
1772536304066669600,0.163669677734375,-0.03097147684693336,0.05306793864704668,-0.09076706151487306
1772536304076718600,0.173718505859375,0.001263151803612709,0.09488244267813861,-0.04012028560014441
1772536304086766600,0.1837666015625,-0.08663198927044868,0.047217239857465024,-0.010879176209773867
1772536304096814600,0.193814697265625,-0.08049684751629829,0.004861103230342269,-0.024787618846539405
1772536304106863600,0.203863525390625,-0.0020201076507568357,0.01056757124364376,-0.045927729769889264
1772536304116911600,0.21391162109375,0.03033727059662342,0.0024769115075469017,-0.03134989997157827
1772536304126960600,0.223960693359375,-0.006384148079156876,-0.0049413288597017525,0.01029158558016643
1772536304137008600,0.234008544921875,-0.0820253722578287,0.02349383444264531,-0.031249745799042283
1772536304147056600,0.244056640625,-0.053529930135607716,0.03514583992213011,-0.12770418703425676
1772536304157105700,0.254105712890625,0.07980711168646812,0.05936550442129373,-0.0931990379021503
1772536304167153700,0.264153564453125,0.04895370826125145,0.07181677051968872,-0.02204792821696028
1772536304177201400,0.274201416015625,-0.09048398852348327,0.021902327467501162,-0.0452424326531589
1772536304187250700,0.284250732421875,-0.07331774966716766,-0.02540332132577896,-0.036815599765256043
1772536304197298400,0.29429833984375,-0.03558043194711208,-0.022221330288797615,-0.022425693754479288
1772536304207347700,0.30434765625,-0.05151099152863026,0.018538842383772135,-0.020257683799322693
1772536304217395500,0.3143955078125,-0.021036358287930487,0.009605082887038588,-0.01961288308976218
1772536304227443700,0.324443603515625,-0.018072832307219504,-0.009637012395262717,-0.030757012112345546
1772536304237492500,0.334492431640625,-0.05702011033892631,-0.01840345250107348,-0.045176582609023894
1772536304247540500,0.34454052734375,0.005527238988876342,-0.013415654151141643,-0.056527120923902836
1772536304257588700,0.354588623046875,0.03615735505223274,0.0028097236584872006,-0.010481226400751619
1772536304267637500,0.364637451171875,-0.03914543095231056,0.0026474457688629625,0.003222396112605929
1772536304277685800,0.374685791015625,-0.050391047587990755,-0.003705503454431891,0.0018678396984934805
1772536304287734500,0.384734619140625,-0.0383200860440731,0.03266395997852087,-0.008665792742930353
1772536304297782800,0.39478271484375,-0.04336684803962707,0.03252265181168914,-0.00925959391761571
1772536304307830500,0.40483056640625,-0.05117138431072235,0.03036846945248544,0.008664386237133294
1772536304317879600,0.414879638671875,-0.0795031603038311,0.03566343405544758,0.015887670287862418
1772536304327927600,0.424927490234375,-0.10229366878271103,0.04283924396894872,0.010794621465168892
1772536304337975600,0.4349755859375,-0.09176759859323501,0.03984612656757235,0.004235628275759518
1772536304348024600,0.445024658203125,-0.04955225867629051,0.0535311722446233,-0.010636106435209512
1772536304358072600,0.455072509765625,-0.04848492170572281,0.03550144842676818,-0.005036806857120245
1772536304368120600,0.46512060546875,-0.03482230705618858,0.02896780887432396,-0.012414532550889998
1772536304378169600,0.475169677734375,-0.013322422909736632,0.023136545437574384,-0.025856015263032165
1772536304388217600,0.485217529296875,-0.014036124137043951,-0.0041897067748010155,-0.039917054645624006
1772536304398266600,0.4952666015625,-0.02775309932231903,-0.00735394295938313,-0.03407963546272367
1772536304408314400,0.505314453125,-0.042991584986448284,0.002681494168937206,-0.05983465630300343
1772536304418362600,0.515362548828125,-0.011029343536496162,0.02323817918114364,-0.08105291049648077
1772536304428411400,0.525411376953125,-0.0006885667860507964,0.03188895701803267,-0.059869946812093254
1772536304438459600,0.535459716796875,-0.027278467547893523,0.017589651900157332,-0.05330408549048006
1772536304448507600,0.545507568359375,-0.037842531660199165,0.004310337479785084,-0.054817376130260526
1772536304458556700,0.555556640625,-0.023066402810811994,0.022525573932379483,-0.03274365588491782
1772536304468604700,0.565604736328125,-0.026972178077697754,0.032290888882428405,-0.013053743769880383
1772536304478653700,0.57565380859375,-0.015613164195418357,0.030547625411674377,-0.025082985063921658
1772536304488701700,0.58570166015625,-0.0073678984194993965,0.04695931957364082,-0.005716130890790373
1772536304498749400,0.59574951171875,-0.011907295414805412,0.042997430205345154,-0.023008078486006705
1772536304508798700,0.605798828125,0.016563596788048744,0.016593772730603813,-0.03673952058805153
1772536304518846500,0.615846435546875,-0.05102583836019039,0.006206526489928365,-0.009957366923429072
1772536304528894700,0.625894775390625,-0.10085516041219234,-0.019675956654921174,0.03215107855293899
1772536304538943500,0.635943603515625,-0.07256079382002353,0.011159838048368691,-0.015331552508752792
1772536304548991700,0.64599169921875,-0.06022913551330566,0.04682319903858006,-0.04301538598714396
1772536304559039500,0.65603955078125,-0.026551322317123413,0.057002793877944345,-0.026724980117287484
1772536304569088800,0.6660888671875,-0.02409574585855007,0.06567571048140526,-0.05852635018341243
1772536304579136500,0.676136474609375,-0.06866086377203465,0.04551065513528883,-0.07650653577111662
1772536304589185500,0.686185546875,-0.059707741987705225,0.0249654413651675,-0.0828789751461707
1772536304599233500,0.696233642578125,-0.014769699108600615,0.022005714776739477,-0.05232081007417291
1772536304609281500,0.706281494140625,0.007408814951777458,0.03787321905940771,-0.03220792330671102
1772536304619330600,0.71633056640625,0.004504910203814506,0.027576281450688838,-0.017400595601461826
1772536304629378600,0.726378662109375,0.01788344721496105,-0.005168927070498466,-0.007901256377529352
1772536304639426600,0.736426513671875,0.025828853261470792,-0.011830576916784047,-0.009545224192272871
1772536304649475600,0.7464755859375,0.04641220708489418,-0.001578209102153778,-0.01648627550182864
1772536304659523600,0.756523681640625,0.05254968692660331,-0.008127996071800588,-0.01523128873836249
1772536304669572600,0.766572509765625,0.007722118684649467,-0.0092669369738549,-0.02631165007604286
1772536304679620600,0.77662060546875,-0.023702947148680684,-0.002264949257299304,-0.034059241128666325
1772536304689668600,0.786668701171875,-0.05871697738468647,-0.009759250535443425,-0.08122404754599556
1772536304699717600,0.796717529296875,-0.021429156997799872,-0.00604191051274538,-0.10161207059356384
1772536304709765600,0.806765625,0.001972176855802536,0.020141528340056537,-0.033881455142656336
1772536304719813600,0.816813720703125,-0.05305062218606472,0.06849011031500994,0.0013491952524054794
1772536304729862700,0.826862548828125,-0.07772855184674263,0.08986731792986392,0.029820534979831427
1772536304739910700,0.83691064453125,-0.0894675049573183,0.11463906335383653,0.036241928063146765
1772536304749959400,0.84695947265625,-0.061840077841281885,0.11977291911095381,0.023885454975580794
1772536304760007700,0.857007568359375,-0.040115152767300606,0.11769655122831463,0.0361075062948279
1772536304770055400,0.867055419921875,-0.023082184901833534,0.10327617701403796,0.040669498714432116
1772536304780104700,0.877104736328125,-0.02579728907942772,0.07406586462073028,0.02455201999237761
1772536304790152400,0.88715234375,-0.030868600994348523,0.034697657763212916,0.006810986055945977
1772536304800200700,0.89720068359375,-0.034568040034174914,-0.001034749875217676,-0.011133032239833847
1772536304810249500,0.90724951171875,-0.018214871126413346,-0.029237857987359166,-0.011269180174358188
1772536304820297500,0.91729736328125,-0.021596914780139923,-0.036773806450143456,-0.034845158208813516
1772536304830345700,0.927345703125,-0.019128478839993475,-0.044464945474639535,-0.04980661702984944
1772536304840394500,0.93739453125,0.017260931402444838,-0.04387625886648893,-0.054087865412468086
1772536304850442800,0.94744287109375,0.0008265139520168304,-0.039835605173558,-0.06451544366353192
1772536304860491500,0.957491455078125,-0.011546645408868789,-0.029833412727713584,-0.05969493730505928
1772536304870539800,0.967539794921875,-0.008503039929270744,-0.029883535479754208,-0.07080701808840967
1772536304880587500,0.97758740234375,0.010897826111316681,-0.01886595544628799,-0.0677414291058667
1772536304890636800,0.98763671875,0.005786182186007499,-0.01448416016548872,-0.04268124039564281
1772536304900684500,0.9976845703125,-0.006972761622071266,-0.017264949990436432,-0.04182736351266503
1772536304910732500,1.007732666015625,0.003801730370521545,0.008714709918573498,-0.06454670645147562
1772536304920781600,1.017781494140625,-0.004443535405397415,0.03016958587951958,-0.05227342726849019
1772536304930829600,1.02782958984375,-0.04500175576508045,0.01822407734617591,-0.01659307861085981
1772536304940878600,1.037878662109375,-0.020946341916918753,0.024652722154185173,-0.02013207552512176
1772536304950926600,1.047926513671875,-0.016498130336403845,0.06267886675298213,-0.006888353007938712
1772536304960974600,1.057974609375,-0.051665305307507514,0.05015095522180199,0.016095403887564315
1772536304971023600,1.068023681640625,-0.05926408987343311,0.025511896266788243,0.001991383879771456
1772536304981071400,1.0780712890625,-0.041565351575613016,0.038227220128849146,0.004767159602884203
1772536304991119400,1.088119384765625,-0.07411153039336205,0.03824007961042225,0.011098974706605076
1772536305001168100,1.098168212890625,-0.08509703478813171,0.013759060761332511,-0.012296650925418361
1772536305011216400,1.10821630859375,-0.07579846056699753,0.002417728666216135,-0.028224233098560942
1772536305021264400,1.118264404296875,-0.10221534284949302,0.01018682829774916,-0.013676341780787332
1772536305031313400,1.1283134765625,-0.08774374990463256,0.0312721402939409,-0.03281636492810212
1772536305041361400,1.138361328125,-0.06802841108739376,0.03177782479375601,-0.03099828265546821
1772536305051410400,1.148410400390625,-0.10395663355886936,0.02956950109452009,-0.03940536966328509
1772536305061458400,1.15845849609375,-0.06471943266987801,0.036617519909888506,-0.05580219504968263
1772536305071506200,1.168506103515625,-0.021267244434356687,0.04163286385387182,-0.02815346941729076
1772536305081555500,1.178555419921875,-0.06466156500279903,0.029094650124385953,0.006435814334312453
1772536305091603200,1.188603271484375,-0.027186113089323043,0.023592472511529922,0.0035059074954129753
1772536305101651500,1.1986513671875,0.02178746891617775,0.03712590782344341,0.01157040987694636
1772536305111700200,1.2087001953125,0.019555179819464683,0.039887992947921155,0.014098412250913678
1772536305121748500,1.21874853515625,0.023686580535769462,0.02577091252915561,-0.030082090259157118
1772536305131796500,1.22879638671875,0.04525193113386631,0.032462226861342786,-0.0402779695130419
1772536305141845200,1.23884521484375,0.03906418240964413,0.021774682499840853,-0.052934886851906775
1772536305151893500,1.2488935546875,0.020713702204823492,-0.034192996176704765,-0.07974917095415293
1772536305161942300,1.2589423828125,-0.004196867167949677,-0.05898980297669768,-0.07568116346341558
1772536305171990300,1.268990234375,-0.04019523226618767,-0.05023322667777538,-0.07221720454674213
1772536305182038300,1.279038330078125,-0.016864041039347646,-0.023209464543312786,-0.08939193723676726
1772536305192087300,1.28908740234375,-0.0316191271007061,0.009425853862613439,-0.08044813127005472
1772536305202135300,1.29913525390625,-0.05315642064809799,0.02239844042137265,-0.07714333583731203
1772536305212183300,1.309183349609375,-0.021481763967871666,0.0016429449014365672,-0.060293332456471393
1772536305222232300,1.319232421875,-0.023210195195674896,-0.007408230429887771,-0.03266190501875244
1772536305232280300,1.3292802734375,-0.0030406828701496124,-0.0016416297271847724,0.003723276573140174
1772536305242329300,1.339329345703125,-0.04265022420287132,0.0068937050364911556,0.0374372296617832
1772536305252377300,1.34937744140625,-0.045755789002776145,0.006883110577240586,0.004955814042780548
1772536305262425300,1.35942529296875,-0.004601356315612793,0.02113674992248416,0.004473793546343222
1772536305272474400,1.369474365234375,-0.023495441877841947,0.021401026881858704,0.020182673201197758
1772536305282522400,1.3795224609375,-0.0581622661113739,0.001840440234914422,0.02163120977538638
1772536305292570400,1.3895703125,-0.046486441364884376,-0.01019208899475634,0.006458080965047702
1772536305302619100,1.399619140625,-0.04191431114375591,-0.012062339846044778,-0.00765432327860035
1772536305312667400,1.40966748046875,-0.05637888982594013,-0.0036672903358936308,-0.0018641042382922023
1772536305322715400,1.41971533203125,-0.04856675477027893,-0.003003273469209671,-0.03872886777436361
1772536305332764400,1.429764404296875,-0.0485503881573677,0.010284297322854399,-0.06843886418496258
1772536305342812400,1.4398125,-0.06559738454818725,-0.027158859756216406,-0.05318398450845852
1772536305352861400,1.449861328125,-0.06287818871736527,-0.024609905925765632,-0.03414231630223803
1772536305362909400,1.459909423828125,-0.055963879284262656,0.02543086691983044,-0.019478771848697216
1772536305372957200,1.469957275390625,-0.047991000708937644,0.04643485730811953,-0.05509243021197617
1772536305383006200,1.480006103515625,-0.007428688696026801,0.022436799670383333,-0.03690120482263155
1772536305393054200,1.49005419921875,0.0031926585614681243,0.03224142371751368,0.012188834036234766
1772536305403102500,1.5001025390625,-0.011568272718787192,0.04323788789771497,0.009310538653563707
1772536305413151200,1.510151123046875,0.005047931039333343,0.03293050196021795,0.01606807748922147
1772536305423199500,1.520199462890625,0.009523030626773834,0.03763049634471535,0.018443976307706906
1772536305433247200,1.530247314453125,0.00037760114073753353,0.03294036576710641,0.014251648317556827
1772536305443296500,1.540296630859375,-0.0006505728632211685,0.022337796275317668,0.004284664182411507
1772536305453344300,1.55034423828125,-0.011131050345301628,0.031625191515311596,0.005053063872177153
1772536305463393500,1.5603935546875,-0.014341244563460349,0.03086392481923103,-0.020851375376153735
1772536305473441300,1.570441162109375,-0.02073649855852127,-0.001021598132699728,-0.03218420450440608
1772536305483489300,1.5804892578125,-0.033901100558042525,-0.025352321790903805,-0.030760418778983875
1772536305493538300,1.590538330078125,-0.029590251621603964,-0.047211540769040584,-0.01827017237707041
1772536305503586300,1.60058642578125,-0.04274725483655929,-0.055291167654469606,0.016264412912074474
1772536305513634600,1.610634521484375,-0.0535001195192337,-0.046325478649511934,0.013783181422436609
1772536305523683300,1.620683349609375,-0.03780862939059734,-0.0442662810973823,0.023315400002663952
1772536305533731300,1.6307314453125,-0.037892216020822524,-0.027094562348350882,0.010543898107111453
1772536305543779300,1.640779296875,-0.013904022189974784,0.005847556984424591,0.016012182583520187
1772536305553828400,1.650828369140625,-0.057709261646866794,-0.0005864215858280658,0.03999130719192326
1772536305563876400,1.66087646484375,-0.05950608193576336,0.012056786888092755,0.024919839524617418
1772536305573925400,1.67092529296875,-0.01868599576950073,0.03688274671733379,0.024091572006931527
1772536305583973400,1.680973388671875,-0.025600305202603337,0.026990882778167722,0.01579704199549742
1772536305594021400,1.691021484375,-0.03880991538763046,0.026196225269138812,0.012232390050170943
1772536305604070400,1.7010703125,-0.008006196323037148,0.030920988768711685,-0.00864015597817488
1772536305614118400,1.711118408203125,-0.024445874470472334,0.023029797127470372,-0.0300384155142121
1772536305624166100,1.721166259765625,-0.014509002345800399,0.006400003235414624,-0.054812489892588925
1772536305634215400,1.73121533203125,-0.023691256710886954,-0.00033924189172685143,-0.062046030475851145
1772536305644263200,1.74126318359375,-0.05591477944552898,-0.000979877882823348,-0.08277807205496356
1772536305654312400,1.7513125,-0.0018880057036876677,-0.004941621120646595,-0.10733240273543633
1772536305664360200,1.761360107421875,0.018873627296090125,0.007252674541994929,-0.11555194041505455
1772536305674408400,1.771408447265625,-0.0411392351180315,0.0010867723233997822,-0.08566538186115212
1772536305684457200,1.781457275390625,-0.020158406409621236,-0.022819003921002147,-0.07826867747227662
1772536305694505200,1.791505126953125,0.006442600268125534,-0.007055763730406761,-0.04865807718238793
1772536305704553500,1.801553466796875,-0.019571546432375908,0.00853825737312436,-0.03302171477447264
1772536305714602200,1.811602294921875,-0.0205652336448431,0.020308336274325847,-0.039095362999197095
1772536305724650500,1.821650390625,0.026409868019819257,0.037155645374581214,-0.0598893364991527
1772536305734698200,1.8316982421875,0.017275544449687003,0.024555253129079937,-0.050528967354493214
1772536305744747500,1.84174755859375,-0.027243396234512326,0.000044204467907547945,-0.026510341852763665
1772536305754795300,1.851795166015625,-0.03617372166514397,-0.017537848647683856,-0.016246813323302193
1772536305764844500,1.861844482421875,-0.05699672946333885,-0.019054829081892967,-0.014930725756054744
1772536305774892300,1.871892333984375,-0.04852817632555961,-0.026782427659258246,-0.014033630785858257
1772536305784940300,1.881940185546875,-0.04316577250957489,0.00013305179513990877,0.002098835442773998
1772536305794989300,1.8919892578125,-0.0563496637314558,0.01568812912777066,-0.03568145376932807
1772536305805037300,1.902037353515625,-0.02418985388278961,0.017975801673531532,-0.03770420090174302
1772536305815085300,1.912085205078125,-0.03431961823105812,-0.0014298136074095964,-0.016067584298877044
1772536305825134300,1.92213427734375,-0.04660334574282169,-0.016293766870722173,-0.008406630350090562
1772536305835182300,1.932182373046875,-0.03119476420879364,-0.017614859406650064,0.00422072296757251
1772536305845231400,1.9422314453125,-0.036545477586984634,-0.012956073815375566,0.010368477608123794
1772536305855279400,1.952279296875,-0.025557635104656216,-0.013461392989009618,0.004621357924025506
1772536305865327400,1.962327392578125,-0.049859132668375966,-0.0237557002492249,0.008957478299038485
1772536305875376000,1.972376220703125,-0.029572715964913367,-0.01364990129843354,-0.008619807309890166
1772536305885424400,1.98242431640625,-0.028181553867459297,0.0029806963112205265,-0.023280091227265074
1772536305895472400,1.992472412109375,-0.038942601856589314,0.012713789492100476,-0.02966954566920176
1772536305905521400,2.002521484375,-0.042082653447985646,0.021182488760352135,-0.03889052460948005
1772536305915569400,2.0125693359375,-0.06435936718583106,0.0277124019857496,-0.02564046368305571
1772536305925617200,2.0226171875,-0.06745265702605246,0.032058322235569356,-0.018770148655306546
1772536305935666400,2.03266650390625,-0.057840779072046274,0.043526568645983935,-0.021955044035427272
1772536305945714200,2.042714111328125,-0.04347966076433658,0.045218394190445536,-0.019717329844925552
1772536305955762400,2.052762451171875,-0.025996026521921158,0.04706606788374483,-0.03342532713930122
1772536305965811200,2.062811279296875,-0.0014507833302021026,0.024110724231973288,-0.021646800070162862
1772536305975859500,2.072859375,0.009032032239437103,0.003943476928770542,-0.025784383932081982
1772536305985912600,2.08291259765625,-0.0078068743586540215,0.009609905192628502,-0.030350349273905158
1772536305995960600,2.092960693359375,-0.050019876188039776,-0.018262071269005534,-0.02132829957236536
1772536306006008300,2.10300830078125,-0.045239656174182886,-0.03614179215691984,-0.048430049713328475
1772536306016057600,2.1130576171875,-0.012370236751437187,-0.015515841300785541,-0.059071078918827694
1772536306026105300,2.123105224609375,-0.02381225274205208,-0.017191227167099712,-0.06213907905416563
1772536306036153600,2.133153564453125,-0.05281447534263134,-0.030166297943890093,-0.043941085997316984
1772536306046202400,2.143202392578125,-0.03715747200548648,-0.028992139597982167,-0.041203751721605654
1772536306056250600,2.153250732421875,-0.010945172384381294,-0.0113070644993335,-0.039764065174153075
1772536306066299400,2.16329931640625,0.0005815992802381515,0.0006008885025978088,-0.035899206439545375
1772536306076347400,2.173347412109375,-0.044269934359192846,-0.016651786528155205,0.005840451390203089
1772536306086395400,2.1833955078125,-0.013812836775183676,-0.0076879972193390125,0.0028042711652349677
1772536306096444400,2.1934443359375,0.019049568384885786,0.012769319071620702,-0.0002845708287321031
1772536306106492400,2.203492431640625,0.0010860416710376738,0.011976999650150536,0.030398480998259036
1772536306116540400,2.21354052734375,-0.03731120126247406,-0.008212751745805144,0.03607382322093472
1772536306126589400,2.22358935546875,-0.028984686943888664,0.005895926170796156,0.03448146686241962
1772536306136637400,2.233637451171875,-0.025132103168964384,0.00628426790125668,0.015425322606274857
1772536306146685400,2.243685546875,-0.045377603340148925,-0.004116276212409138,0.022256091074924916
1772536306156734500,2.253734375,-0.06520575488209725,0.003001666034013033,0.01204192724567838
1772536306166782500,2.263782470703125,-0.04363222097754478,0.013659472844377159,-0.002334954886743799
1772536306176831500,2.27383154296875,-0.05454407561421394,0.023641499285027383,0.0032800993829034267
1772536306186879500,2.28387939453125,-0.05512918202579021,0.012662789957225322,-0.027142063885042443
1772536306196927500,2.293927490234375,-0.046581718432903284,0.00011171674616634845,-0.028288466574344782
1772536306206976500,2.3039765625,-0.05735387233793735,0.00025083295591175555,-0.031284214324224735
1772536306217024500,2.3140244140625,-0.040783845809102055,-0.008077727189287542,-0.04345546703799628
1772536306227072500,2.324072509765625,-0.047561377120018004,-0.016504340881481765,-0.06373698837063276
1772536306237121300,2.334121337890625,-0.02534311557114124,-0.01549625981748104,-0.07311415338646621
1772536306247169500,2.34416943359375,0.0028279169023036955,-0.0067768006585538386,-0.06471038171374238
1772536306257217300,2.35421728515625,0.011858780097961425,0.004012961968407035,-0.05051634533493779
1772536306267266600,2.3642666015625,0.03534311605989933,-0.008420037820935249,-0.038985947807971384
1772536306277314300,2.374314208984375,0.013012626308202742,-0.010401859287917613,-0.024695246121659874
1772536306287363600,2.384363525390625,0.01845335605740547,-0.0020429770696908235,-0.023770861285738645
1772536306297411300,2.394411376953125,0.04416822755038738,0.005176891181245446,-0.030548282998800275
1772536306307459300,2.404459228515625,0.028175124126672745,0.008850611257925628,-0.04305191860524937
1772536306317508400,2.41450830078125,0.02432370939552784,0.004147036676853895,-0.0653742433167994
1772536306327556400,2.424556396484375,0.013013795351982115,0.0030182518426328897,-0.04626375679122284
1772536306337604600,2.4346044921875,-0.035551205852627756,-0.01358326580300927,-0.036483920125477014
1772536306347653400,2.4446533203125,-0.04609130456745624,-0.015189678086340426,-0.03747022774908691
1772536306357701600,2.45470166015625,-0.04752864389419555,-0.008588453190401196,-0.02766492784852162
1772536306367749400,2.464749267578125,-0.06889759513735771,-0.013483458690345286,-0.020996976125612854
1772536306377798700,2.474798583984375,-0.05381576133966445,-0.016639438503235578,-0.021657376263104378
1772536306387846400,2.484846435546875,-0.042720951351523394,-0.006363835943490267,-0.01887391955703497
1772536306397895700,2.494895751953125,-0.023739187505841253,-0.0035351883888244625,0.000500990058388561
1772536306407943400,2.504943359375,-0.03594166647493839,0.006288286489248275,0.006131378894485533
1772536306417991400,2.514991455078125,-0.04572890099585056,0.006378010599315166,0.021885138870682566
1772536306428040400,2.52504052734375,-0.03412088078856468,-0.005132102191448211,0.027175116771273312
1772536306438088400,2.53508837890625,-0.016188333734869956,-0.0184623430814594,0.023791739676985887
1772536306448136400,2.545136474609375,-0.011412205374240874,-0.02620207048803568,0.0290264619926922
1772536306458185500,2.555185546875,-0.032197219249606134,-0.03294080415852368,0.008996467735711484
1772536306468233500,2.5652333984375,-0.02933306199014187,-0.04671557394564151,-0.008263111959863454
1772536306478281500,2.575281494140625,-0.04069207587242126,-0.031627018146216865,-0.01929506757855415
1772536306488330200,2.585330322265625,-0.04476093274652958,-0.027802199161052702,-0.03699983375836163
1772536306498378500,2.59537841796875,-0.05801145946383476,-0.021825389773771166,-0.04119715758403763
1772536306508427300,2.60542724609375,-0.08437047407925129,0.00565576073937118,-0.03663408745219931
1772536306518475500,2.6154755859375,-0.06966974855363368,0.002192103216797113,-0.036945290559530254
1772536306528523500,2.6255234375,-0.05383095890879631,0.011653685979917644,-0.04217113544903695
1772536306538572500,2.635572509765625,-0.039919922456145285,0.027365634374693033,-0.037430078401789066
1772536306548620500,2.64562060546875,-0.004583820658922195,0.018863105902075766,-0.035209114416688676
1772536306558668300,2.655668212890625,0.02115560075342655,0.008878741373866796,-0.03072173986956477
1772536306568717600,2.665717529296875,0.011875731232762336,-0.000671396455541253,-0.021062113783694804
1772536306578765300,2.675765380859375,-0.013849077132344245,-0.013402648539096116,-0.010162406242545694
1772536306588813600,2.6858134765625,-0.024240122765302657,0.006275646203383803,-0.0175158560115844
1772536306598862300,2.6958623046875,-0.01639817709326744,0.02378492634370923,-0.04131829974567518
1772536306608910600,2.70591064453125,-0.03108662765920162,0.05720036227665841,-0.05096566913817078
1772536306618959400,2.71595947265625,-0.06654138740003109,0.04501790318228304,-0.06089954558815807
1772536306629007400,2.72600732421875,-0.0617044687628746,0.030064956461265682,-0.04130145820872858
1772536306639055600,2.7360556640625,-0.06202946293354034,0.04048647029772401,-0.03547010344043374
1772536306649104400,2.7461044921875,-0.06614508155882358,0.03382540497332811,-0.031353808961715544
1772536306659152400,2.75615234375,-0.037193712362647055,0.02385148877389729,-0.024647589321341364
1772536306669200400,2.766200439453125,-0.018847908332943916,0.017590674813464283,-0.03231775862304494
1772536306679249400,2.77624951171875,-0.0011778116077184677,0.007401143101975321,0.003808872497361153
1772536306689297400,2.78629736328125,-0.0024070611417293547,-0.02128784883096814,0.014074300722964107
1772536306699345400,2.796345458984375,0.018891747474670408,-0.020177038044854996,-0.00030941300904378295
1772536306709394400,2.80639453125,0.040999534386396405,-0.026605171396210787,0.014553791335597633
1772536306719442400,2.8164423828125,0.025176526832580565,-0.03438289272561669,0.01605436862427741
1772536306729490400,2.826490478515625,0.04022562740445137,-0.03338832873031497,-0.0028923604406416413
1772536306739539500,2.83653955078125,0.02898819407522678,-0.030513430881127714,-0.0021938750487752257
1772536306749587500,2.84658740234375,-0.012611644291877746,-0.023480974961072206,0.004462842894066125
1772536306759636500,2.856636474609375,-0.03574117546677589,-0.0050440585818141695,-0.017195081358309834
1772536306769684500,2.8666845703125,-0.02410042203366756,0.01617430520951748,-0.057618934748601164
1772536306779732500,2.876732421875,-0.03142565035521984,0.033576106387376785,-0.058918619170319285
1772536306789781500,2.886781494140625,-0.08518822020292281,0.03658559040166438,-0.04330452339313924
1772536306799829500,2.89682958984375,-0.10126374121308326,0.02173157401047647,-0.04761917172186076
1772536306809877500,2.90687744140625,-0.0801215844631195,0.03193206550739705,-0.03087187066366896
1772536306819926500,2.916926513671875,-0.07726502598822116,0.03135828420743346,-0.02365530861467123
1772536306829974500,2.926974609375,-0.06996843923926353,0.039444267768412825,-0.037729938131198286
1772536306840023600,2.9370234375,-0.015695581781864164,0.05063092075847089,-0.03214983644392341
1772536306850071600,2.947071533203125,-0.014628244811296463,0.04181253126971424,-0.013650284890923648
1772536306860119300,2.957119384765625,-0.05265139373540878,0.03366897230260074,-0.015327259926125407
1772536306870168300,2.967168212890625,-0.023908698853850364,0.03547572946362197,-0.017155315603502093
1772536306880216300,2.97721630859375,0.012315291693806648,0.05027472773194313,-0.027379900362063198
1772536306890264600,2.9872646484375,0.015464695635437965,0.04016797893308103,-0.0347437436609529
1772536306900313300,2.997313232421875,0.015322656816244125,0.015433935170993208,-0.03421840461259708
1772536306910361600,3.007361572265625,0.02154080067873001,0.0005817454107105731,-0.023324889350216833
1772536306920409300,3.017409423828125,0.0030476971328258513,-0.024786942993104456,-0.019237163378857076
1772536306930458600,3.027458740234375,-0.04581248762607574,-0.04120236348211765,-0.03418554352261126
1772536306940506400,3.03750634765625,-0.04532674993574619,-0.04496799962595105,-0.04624707965105772
1772536306950554400,3.047554443359375,-0.037383097454905506,-0.026042715207859873,-0.05672320975158363
1772536306960603400,3.057603271484375,-0.036623218998312945,-0.005747969067469239,-0.06371208225823939
1772536306970651400,3.0676513671875,-0.04767360532283783,0.007318579385057092,-0.06907594737894833
1772536306980700400,3.077700439453125,-0.02613923438489437,0.024224340674281118,-0.049366380715370174
1772536306990745000,3.0877451171875,-0.046328620454669,0.020361381635814906,-0.030257994815334675
1772536307000793000,3.09779296875,-0.05516425333917141,0.015003069473057984,-0.014140844886843114
1772536307010842000,3.107842041015625,-0.02897475007176399,0.009708835522457956,-0.010364340289123355
1772536307020890000,3.11789013671875,-0.0324859730631113,-0.006353752940893173,0.017094433995429426
1772536307030938000,3.127938232421875,-0.06598141542971134,-0.026439897831901905,0.024800587925966826
1772536307040987100,3.137987060546875,-0.05140168593525886,-0.032473478907719254,0.00931804610658437
1772536307051035000,3.148034912109375,-0.022633272090554237,-0.010300152479112147,0.004016907491162419
1772536307061083100,3.158083251953125,-0.04256137687563896,-0.0007291910573840141,-0.009907481633406132
1772536307071132000,3.1681318359375,-0.06433364822268485,0.002104717194288969,-0.016145170446578413
1772536307081180200,3.17818017578125,-0.04608136769533157,-0.006453633118793368,-0.038592875103466213
1772536307091229000,3.18822900390625,-0.05281213725507259,-0.007892579880729318,-0.023749672367237507
1772536307101277200,3.198277099609375,-0.07079436866939068,-0.0028879034612327814,-0.028562351612281052
1772536307111325000,3.208324951171875,-0.0527507624566555,-0.000879924639686942,-0.03545404735477641
1772536307121374200,3.218374267578125,-0.008723989203572273,0.03120302058048546,-0.03999547191038728
1772536307131422000,3.228421875,0.018977672192454338,0.035563042420893906,-0.04870071988087147
1772536307141470000,3.238469970703125,0.02937573208808899,0.015030030545219779,-0.030556868164055048
1772536307151519000,3.24851904296875,0.01372165136039257,-0.005439195379242301,-0.030847759135719386
1772536307161567000,3.25856689453125,0.005399813216924667,-0.014848390367999672,-0.029321444617584347
1772536307171615200,3.268615234375,0.004956745624542236,-0.004680193705484271,-0.02173603098988533
1772536307181664000,3.2786640625,0.006375380250811576,-0.013221373688057064,-0.040566915122792126
1772536307191712300,3.288712158203125,0.01737842030227184,0.005455708122625947,-0.04553054714584723
1772536307201761000,3.298760986328125,0.018005612289905548,-0.0063224810197949404,-0.049492144253198055
1772536307211809300,3.308809326171875,0.005727729997038841,0.017051599500700832,-0.033864440075773744
1772536307221857000,3.31885693359375,-0.005798457145690918,0.01417633632533252,-0.04739827724648639
1772536307231906000,3.328906005859375,-0.03139116356372833,-0.011626213451102376,-0.042579716249927874
1772536307241954000,3.3389541015625,-0.046046880903840064,-0.014895663575828074,-0.030037849258631465
1772536307252002000,3.349001953125,-0.02541851889491081,-0.024436449055001138,-0.017623152310959993
1772536307262051000,3.359051025390625,-0.039998832911252974,-0.03649374739974737,-0.03282998246150091
1772536307272099000,3.36909912109375,-0.0477618681281805,-0.042494229923561215,-0.03188373285364359
1772536307282146800,3.379146728515625,-0.021565350598096847,-0.04817483284324407,-0.031276944333221764
1772536307292196000,3.389196044921875,-0.03251578367948532,-0.04244381491057574,-0.011112108182813971
1772536307302243800,3.399243896484375,-0.027317045992612837,-0.037671485942229625,-0.007235102352686226
1772536307312293000,3.409293212890625,-0.024212650236487387,-0.025282836751267312,-0.0020486213591881094
1772536307322340900,3.4193408203125,-0.02632569686770439,-0.013994403887167573,0.016787852264288812
1772536307332389000,3.42938916015625,-0.0418798243522644,-0.006219824362918734,0.012016253948304802
1772536307342438000,3.43943798828125,-0.05666121389865875,-0.00039067981801927087,0.002898972844518721
1772536307352486100,3.449486083984375,-0.05394084902405739,0.009563216506689787,0.004575600819848477
1772536307362534100,3.4595341796875,-0.04288227939307689,0.0333743732701987,0.005938267475180328
1772536307372583200,3.469583251953125,-0.036356092494726176,0.029066812269389626,-0.02661936431834474
1772536307382631200,3.479631103515625,-0.03585106558203697,0.024756693985313175,-0.021511592850554734
1772536307392679000,3.489678955078125,-0.05644201819002628,0.022910993053391573,-0.013436806537024676
1772536307402728200,3.499728271484375,-0.04859188921153545,0.0015519786823540926,-0.02570453276205808
1772536307412776000,3.50977587890625,-0.013676058652997015,-0.005619739577919244,-0.04876923680612817
1772536307422824200,3.51982421875,-0.01435994926393032,-0.009047083678096533,-0.04105000419830903
1772536307432873000,3.529873046875,-0.017682371684908865,-0.0321160437721759,-0.03376439550109207
1772536307442921000,3.5399208984375,-0.008083353212475776,-0.03254771318770945,-0.03317651261053979
1772536307452970000,3.549969970703125,0.013073416584730147,-0.016117387390509247,-0.022648871518485245
1772536307463018000,3.56001806640625,0.012869418445229529,-0.016220993895456195,-0.036453634585067625
1772536307473066000,3.57006591796875,-0.0016740706920623778,-0.020778072677925228,-0.04530225481530651
1772536307483115000,3.580114990234375,0.012045827102661132,-0.016868936410173774,-0.04520688641574234
1772536307493163000,3.5901630859375,0.007957096484303474,-0.026163418978080152,-0.03207330060899258
1772536307503211000,3.6002109375,-0.014001052823662758,-0.030292919998243448,-0.004602507093083113
1772536307513260000,3.610260009765625,-0.04873217446506023,-0.04031250197030604,-0.0009787819042801856
1772536307523308000,3.62030810546875,-0.04914192430973053,-0.019707082445546982,-0.01084145628158003
1772536307533356000,3.63035595703125,-0.05180442151725292,0.002169526058807969,-0.02892499264590442
1772536307543405000,3.640405029296875,-0.052370238706469535,0.03109707598797977,-0.04980634303521365
1772536307553453000,3.650453125,-0.060573418906331056,0.05396992898806929,-0.03479503545677289
1772536307563502000,3.660502197265625,-0.05397592033743858,0.037932036574557425,-0.0544030779746361
1772536307573550000,3.670550048828125,-0.03446165705025196,0.01374115977846086,-0.049673327772691844
1772536307583598000,3.68059814453125,-0.03409223921597004,-0.022117358457669614,-0.03215920706046745
1772536307593647000,3.690647216796875,-0.038002690657973286,-0.0398261797580868,-0.026221451041940597
1772536307603695000,3.700695068359375,-0.0054489130556583405,-0.03882511295676231,-0.008340743773337453
1772536307613743000,3.7107431640625,-0.009046645286679268,-0.041471608877554536,-0.0320778489199467
1772536307623791900,3.7207919921875,-0.003899345526099205,-0.02642806126363575,-0.037213513041660186
1772536307633840000,3.730840087890625,-0.016556582525372503,-0.018049524496868252,-0.03132741414513439
1772536307643887900,3.740887939453125,-0.0012613982379436493,-0.0008995791882276535,-0.03211372395092621
1772536307653937200,3.750937255859375,-0.0012403554499149322,0.008338277821615338,-0.02352108777575195
1772536307663985000,3.76098486328125,-0.017913842353224754,-0.005436857291683555,-0.007306742816790938
1772536307674033000,3.771032958984375,-0.0503846178472042,-0.0039378509055823085,0.01038974872501567
1772536307684082000,3.78108203125,-0.0770107589662075,0.016251535164192317,0.014740180753171444
1772536307694130000,3.7911298828125,-0.03410392965376377,0.041864626783132554,-0.007372903388179838
1772536307704179000,3.801178955078125,-0.03675473642349243,0.05498546270616352,-0.01018595151491463
1772536307714227000,3.81122705078125,-0.062490650704503055,0.044353594054654236,-0.008910871811490506
1772536307724275200,3.821275146484375,-0.04069324491620063,0.02397854921966791,-0.020729429496917872
1772536307734324000,3.831323974609375,-0.03701660223007202,0.015724954006820915,-0.005843647994287312
1772536307744372200,3.841372314453125,-0.056498132291436194,0.005562456432729959,0.006977054204698652
1772536307754420000,3.851419921875,-0.05231587817072868,-0.008134133551642298,-0.003657152534369379
1772536307764469200,3.86146923828125,-0.03164133893251419,0.010923472009226678,-0.0201719782772474
1772536307774517000,3.87151708984375,-0.037294250127673144,0.0143989661000669,-0.011429741030931473
1772536307784565000,3.88156494140625,-0.04713759874999523,0.011746113503724336,-0.006454838695190847
1772536307794614000,3.891614013671875,-0.05069733705818653,0.019072583934292196,-0.020370514790341257
1772536307804662000,3.901662109375,-0.05771744495332241,0.026569077169522642,-0.015602533203549682
1772536307814711000,3.9117109375,-0.06298574074506759,0.026970424512028694,-0.013581822764594107
1772536307824759000,3.921759033203125,-0.049610710865259165,0.03985306776501238,-0.024599932521022855
1772536307834807000,3.93180712890625,-0.02969195843040943,0.04245492082647979,-0.006802702284790575
1772536307844856000,3.94185595703125,-0.031604514053463935,0.02159391910545528,0.004902038028929382
1772536307854904000,3.951904052734375,-0.02916296612024307,0.005260770072415471,0.003919639395456761
1772536307864952000,3.9619521484375,0.001143324816226959,-0.007013824284821749,0.015224712867103515
1772536307875000800,3.972000732421875,-0.0035620763957500455,-0.008978329290822148,0.019873853847198187
1772536307885049000,3.982049072265625,0.008185060021281242,-0.022267434452846645,0.002268785182200372
1772536307895097000,3.99209716796875,0.013483166429400444,-0.027955855352804062,0.0005465827657841146
1772536307905146000,4.00214599609375,-0.0077829089611768714,-0.013172858371213078,-0.0032872963086701926
1772536307915194000,4.012194091796875,-0.014960253244638443,-0.009221417331695556,-0.0045003436265513294
1772536307925243100,4.0222431640625,-0.02238426576554775,-0.01253375675007701,-0.02029721209211275
1772536307935291100,4.032291015625,-0.020374094986915586,0.010244842095300554,-0.02940329594844952
1772536307945339000,4.0423388671875,-0.05109247385561466,0.00920848478488624,-0.027705186793673783
1772536307955388200,4.05238818359375,-0.08001520147919654,0.026784911877289413,-0.039655207105353474
1772536307965436000,4.062435791015625,-0.06022212125062942,0.04693579256758094,-0.05426388869965448
1772536307975484200,4.072484130859375,-0.07433540227711201,0.0628858605671674,-0.05803020983007736
1772536307985536300,4.082536376953125,-0.06175532216727733,0.07627521123327315,-0.0485797421160154
1772536307995584500,4.09258447265625,-0.05448737699091434,0.08429558221213519,-0.0874999860103242
1772536308005632500,4.102632568359375,-0.021527941197156904,0.052570364388450974,-0.0927598610335961
1772536308015681500,4.112681640625,-0.008902852901816367,0.017519728469103574,-0.07975770132048055
1772536308025729500,4.1227294921875,0.01025426751077175,-0.005714797450229525,-0.0786283502306789
1772536308035777300,4.13277734375,0.0033422961652278898,-0.031018019402399656,-0.05824303973000496
1772536308045826600,4.14282666015625,-0.009269348126649856,-0.04025857982598245,-0.04764096342856064
1772536308055874300,4.152874267578125,0.01100245552957058,-0.019374051098898053,-0.06266155029200017
1772536308065923300,4.16292333984375,0.01829261253774166,-0.01226392683275044,-0.06335808118879795
1772536308075971300,4.172971435546875,0.005649988585710525,-0.0038367286186665292,-0.06924039895934983
1772536308086019600,4.18301953125,0.0013169278174638747,0.005900090889260173,-0.05971795285446569
1772536308096068400,4.193068359375,0.006503390544652939,0.009892448461055754,-0.043271223911736156
1772536308106116600,4.20311669921875,-0.012843114960193634,0.008448752458766102,-0.029927557284571228
1772536308116164400,4.213164306640625,-0.05246493125259876,0.002892141244933009,-0.009822360633220523
1772536308126213400,4.22321337890625,-0.08840192155241966,0.00040485447384417056,0.0021462182484567162
1772536308136261400,4.233261474609375,-0.07524842546880245,0.015249883840978145,-0.006485160768218338
1772536308146309400,4.243309326171875,-0.05230126512348652,0.04006992538608611,-0.0026519210145808754
1772536308156358400,4.2533583984375,-0.0583715249478817,0.05733699426837265,-0.004071724684629589
1772536308166406400,4.263406494140625,-0.04246843789517879,0.0745115625616163,-0.043345805251598354
1772536308176454400,4.273454345703125,-0.0010579846203327178,0.06803228354491293,-0.027406021184008568
1772536308186503400,4.28350341796875,-0.051778118032217026,0.028292613026499748,-0.009244012755993753
1772536308196551400,4.293551513671875,-0.06952069547176361,-0.003729030460491776,-0.02897560858828947
1772536308206600400,4.303600341796875,-0.03480184879004955,-0.022594912841543555,-0.0049248343826271595
1772536308216648400,4.3136484375,-0.04463642958402633,-0.01884476652778685,-0.018748320415988562
1772536308226696400,4.323696533203125,-0.054906479185819625,-0.007623992072418331,-0.04745398948909715
1772536308236745500,4.333745361328125,-0.003009118688106537,0.0219322842143476,-0.076668868459668
1772536308246793500,4.34379345703125,-0.015053776746988295,0.03285144537463784,-0.05791168888378888
1772536308256841500,4.353841552734375,-0.042651393246650696,0.027717297356575726,-0.05171089801490306
1772536308266890500,4.363890380859375,-0.014537059396505354,0.025490707348287105,-0.0458985950069502
1772536308276938500,4.3739384765625,-0.027331659039855002,0.029236104421690105,-0.023447693745978174
1772536308286986200,4.383986328125,-0.04811959552466869,0.04243183221183717,-0.011878690374828874
1772536308297035500,4.394035400390625,-0.011015315011143684,0.04733173308260739,-0.00019829905107617376
1772536308307083300,4.404083251953125,0.011827800437808036,0.07133475915640593,-0.006663129417318851
1772536308317132500,4.414132568359375,0.015505612167716025,0.06473952560983598,-0.023459767776262012
1772536308327180300,4.42418017578125,0.022186112844943998,0.039336715740710494,0.0037333595757372677
1772536308337228300,4.434228271484375,-0.004881342300772667,0.0027428689673542977,0.022793778148200362
1772536308347277300,4.44427734375,-0.008539280286431312,-0.02604768364392221,0.011748597721755504
1772536308357325300,4.4543251953125,-0.018577859219908715,-0.0352240927901119,0.02223336778646335
1772536308367373600,4.46437353515625,-0.06391220794022083,-0.042740313639119266,0.007277900314796716
1772536308377422300,4.47442236328125,-0.04320668904185295,-0.026063100408762693,-0.012862860840279608
1772536308387470600,4.484470703125,-0.035947511693835255,-0.00016790391281247137,-0.012707049224060027
1772536308397518300,4.494518310546875,-0.0740916566491127,-0.002855024104937911,-0.011260722873266786
1772536308407567600,4.504567626953125,-0.08772855233550071,-0.016150339812040327,-0.0019096695462241767
1772536308417615400,4.514615478515625,-0.07941255941092967,0.001987447490170598,0.005119169644638896
1772536308427664600,4.52466455078125,-0.07308335638940334,0.008709814547747373,0.016569752534199504
1772536308437712400,4.53471240234375,-0.05487433048188686,0.027313027404621243,0.013466936813807114
1772536308447760400,4.544760498046875,-0.041059740141034126,0.03738558167293667,0.0034388153422623873
1772536308457809400,4.554809326171875,-0.04491057035028934,0.03790536776334047,-0.008588654119800776
1772536308467857400,4.564857421875,-0.04362988288998604,0.023064576179906725,-0.01093268736214377
1772536308477905400,4.574905517578125,-0.013563245928287506,0.003758548815920949,-0.030994063138077035
1772536308487954400,4.584954345703125,-0.02936345712840557,-0.011617664818465708,-0.03400679855537601
1772536308498002400,4.59500244140625,-0.019082301610708237,-0.015459581068903206,-0.03396378139755688
1772536308508050400,4.605050537109375,-0.013428805893659591,-0.004613996601477265,-0.05195188543023541
1772536308518099200,4.61509912109375,-0.009009235885739326,0.02073028801344335,-0.07803218356897122
1772536308528147500,4.6251474609375,-0.0017944822013378143,0.031777605598047376,-0.076600936056301
1772536308538195500,4.635195556640625,-0.014008067086338996,0.028192878979071974,-0.08191218507378362
1772536308548244500,4.645244384765625,-0.030545360389351843,0.023469284523278473,-0.08666520655346102
1772536308558292500,4.65529248046875,-0.04795885200500488,0.018271569749712942,-0.0737909749357961
1772536308568341500,4.665341552734375,-0.016152093377709387,0.027820173209160564,-0.0721202561114449
1772536308578389500,4.675389404296875,-0.019230770170688628,0.03793992762006819,-0.0789725970910862
1772536308588437200,4.685437255859375,-0.038764907202124596,0.04183225888349116,-0.060595722069684416
1772536308598486500,4.695486572265625,-0.052908583366870876,0.030241116745769975,-0.04143761527640745
1772536308608534300,4.7055341796875,-0.04909282447099685,0.030340412401780485,-0.04915176071715541
1772536308618582500,4.71558251953125,-0.025479309171438216,0.018611469228565693,-0.038969042338943105
1772536308628631300,4.72563134765625,-0.021599837389588355,0.01634213605709374,-0.021755895600980145
1772536308638679600,4.735679443359375,-0.022026538369059562,0.012653218411281704,0.0036605044020805505
1772536308648727300,4.745727294921875,-0.03153904760181904,-0.003661079790815711,-0.0003585585135500878
1772536308658776600,4.755776611328125,-0.05613748228549957,0.003359247300028801,0.007551821885351091
1772536308668824300,4.76582421875,-0.07539104880988598,0.025444895445182917,-0.0064939468628726895
1772536308678872300,4.775872314453125,-0.03695990360677242,0.029904724398255346,-0.04081833260059357
1772536308688921300,4.78592138671875,-0.037353286838531494,0.03507189790308475,-0.04273897106540389
1772536308698969300,4.79596923828125,-0.06966098072528838,0.034317718534916636,-0.035088392380159344
1772536308709018400,4.806018310546875,-0.04617547571957111,0.010559387937188148,-0.0418528267474845
1772536308719066400,4.81606640625,-0.06248246739804744,0.008612491653114557,-0.01691357013634406
1772536308729114600,4.826114501953125,-0.08127367710769176,0.007047507358714938,-0.033437547300057484
1772536308739163400,4.836163330078125,-0.06408113476634025,-0.011116583428531885,-0.07614265262847766
1772536308749211400,4.84621142578125,-0.0780909554183483,-0.004260799249634147,-0.07839019409324974
1772536308759259400,4.85625927734375,-0.037895138630270955,0.011742314111441374,-0.051703664556518196
1772536308769308400,4.866308349609375,-0.00647241088449955,-0.012798983557522296,-0.06806236815592273
1772536308779356400,4.8763564453125,-0.013136544948816298,-0.0026136165644973517,-0.06966381200319155
1772536308789404400,4.886404296875,0.010358312407135964,0.01800042465813458,-0.04864492543986998
1772536308799453400,4.896453369140625,-0.003981763112545013,0.03132197078503668,-0.009135118154576048
1772536308809501400,4.90650146484375,-0.04549275415241718,0.025396818519756198,-0.020737612803373485
1772536308819550500,4.916550537109375,-0.015001169776916503,0.036748160552233455,-0.036685762840509416
1772536308829598500,4.926598388671875,0.02480067925751209,0.06226181038469076,-0.0018214341403450815
1772536308839646500,4.936646484375,-0.019759762480854988,0.045231692063435906,-0.00782205366147682
1772536308849695500,4.946695556640625,-0.023726328024268148,0.026862653288617727,-0.016985585059784352
1772536308859743200,4.9567431640625,-0.021257307562232017,0.03795505212396383,-0.015882099063601343
1772536308869791500,4.96679150390625,-0.03984685721993446,0.015584011166170239,-0.042107148568425325
1772536308879840300,4.97684033203125,-0.038061727368831635,0.014378434768691658,-0.035652492536325006
1772536308889888500,4.986888427734375,-0.07577040351629256,0.012513079288229345,-0.03246130441273563
1772536308899936500,4.9969365234375,-0.07651917605698108,0.008547682788595556,-0.03439000745299272
1772536308909985300,5.0069853515625,-0.04570142846703529,0.029178748211264607,-0.020761103276815265
1772536308920033500,5.017033447265625,-0.07762450695037841,0.047782107198610896,-0.02130015119011514
1772536308930081300,5.027081298828125,-0.05019932440817356,0.06354958517290651,-0.02339547036839649
1772536308940130600,5.037130615234375,-0.017005495336651803,0.061033656829223036,-0.002590591881936416
1772536308950178300,5.04717822265625,-0.03166881146132946,0.04574855554439127,-0.0014148626334499568
1772536308960227600,5.0572275390625,-0.02758183440864086,0.04341112557277083,0.005874965581158176
1772536308970275300,5.067275390625,-0.016861118429899215,0.049582361553609365,0.01412603091020137
1772536308980323300,5.0773232421875,0.0055921209186315535,0.05696830708645284,0.0003610244652722031
1772536308990368500,5.087368408203125,0.004931611183285713,0.04382635531015694,0.01308798396619968
1772536309000416500,5.09741650390625,-0.03324117534458637,0.03264766643084586,0.014074145459337158
1772536309010464500,5.107464599609375,-0.023223639199137686,0.03950695774108171,0.0071988345960620785
1772536309020513500,5.117513427734375,0.00758650960624218,0.036777094385772945,0.020823510121693832
1772536309030561500,5.1275615234375,-0.012592355069518089,0.016678893730789422,0.020043027268489822
1772536309040609500,5.137609619140625,-0.012846622091531753,-0.00941620925143361,0.009321434506913646
1772536309050658600,5.147658447265625,-0.015485153901576995,-0.012687997463718056,0.011097440336644648
1772536309060706600,5.15770654296875,-0.02007774238884449,-0.020936624240502712,0.007802709640190005
1772536309070754600,5.167754638671875,-0.024131986215710638,-0.01955927147269249,-0.008735697907675057
1772536309080803600,5.177803466796875,-0.030661680245399472,-0.020126842227578164,-0.019932835759129373
1772536309090851600,5.1878515625,0.002241056925058365,0.011217194258794187,-0.08183460805923677
1772536309100900600,5.197900634765625,-0.011248539245128631,-0.007273717330023646,-0.04528480135700665
1772536309110948600,5.207948486328125,-0.09188158036172389,-0.035026232130452986,0.028000543877901508
1772536309120996400,5.217996337890625,-0.07419862415492534,-0.005000438635796308,-0.0072690320217516265
1772536309131045600,5.228045654296875,0.003867196822166443,0.062452510651201006,-0.07451476829885505
1772536309141093400,5.23809326171875,-0.03632335926890373,0.02625299695767462,-0.035952772390842436
1772536309151141600,5.2481416015625,-0.0995452468574047,0.009392463049665093,0.01976876777121797
1772536309161190400,5.2581904296875,-0.0721001905709505,0.05454392948374152,-0.000668446446629241
1772536309171238400,5.26823828125,-0.010301613783836365,0.057219066977128384,-0.04207541085644625
1772536309181286700,5.27828662109375,-0.037542087408900256,0.029417306207492947,-0.04014195857583545
1772536309191335400,5.28833544921875,-0.06806991214156151,0.013172639175504446,-0.01876506148823537
1772536309201383700,5.2983837890625,-0.044863808599114416,0.01283127839192748,-0.030881149948667735
1772536309211432400,5.308432373046875,-0.03259294056892395,0.010786693887040018,-0.03967611289606429
1772536309221480700,5.318480712890625,-0.04761164600253105,-0.006761968415603041,-0.0587524414237123
1772536309231528400,5.328528564453125,-0.024827567264437675,-0.014868775568902492,-0.0733328376384452
1772536309241577700,5.33857763671875,-0.0008709376156330108,-0.000550838815793395,-0.0734908412117511
1772536309251625500,5.34862548828125,-0.01173661502301693,-0.007430588392168283,-0.07136141883446835
1772536309261673500,5.358673583984375,-0.03704641284644603,-0.022807971070334315,-0.055283705867221575
1772536309271722500,5.368722412109375,-0.04774316342771053,-0.0205800658877939,-0.04549335694061592
1772536309281770500,5.3787705078125,-0.014093407282233237,0.016152897095307706,-0.04835202517420985
1772536309291818500,5.388818603515625,-0.005125087928771972,0.034054756749793885,-0.05522052270420827
1772536309301867500,5.398867431640625,-0.0038087446331977843,0.03111658440604806,-0.0647080984251108
1772536309311915500,5.40891552734375,0.014288637593388557,0.03511515252292156,-0.06593918372318149
1772536309321963500,5.418963623046875,0.009870236629247665,0.020140797687694428,-0.050201141905924306
1772536309332012500,5.429012451171875,-0.01450198808312416,-0.009208850111067295,-0.0395402572224848
1772536309342060500,5.439060546875,-0.029506080469489097,-0.014716653747111558,-0.02949144915593788
1772536309352108500,5.449108642578125,-0.029528292301297186,0.010878609954193234,-0.04846974240290001
1772536309362157600,5.459157470703125,-0.005777414357662201,0.026073914063721892,-0.05036999566680751
1772536309372205600,5.46920556640625,-0.004812953239679336,0.020032076616212726,-0.039370481012994424
1772536309382254600,5.479254638671875,-0.013635142120718955,0.009608005496487021,-0.02940850184652954
1772536309392302600,5.489302490234375,-0.0008025485545396804,0.0002157616425305605,-0.022952685903804376
1772536309402350300,5.499350341796875,-0.021482933011651037,-0.01644603482298553,-0.0036275793800130485
1772536309412399600,5.509399658203125,-0.06626900019943714,-0.00820442230887711,-0.008829961195541546
1772536309422447400,5.519447265625,-0.038410102415084836,-0.006812894885241985,-0.01762291484894231
1772536309432495600,5.52949560546875,-0.03725567168295383,-0.018487404457479713,-0.011312544392049312
1772536309442544400,5.53954443359375,-0.06942717196941375,-0.018523571749404073,0.002811504623619839
1772536309452592600,5.549592529296875,-0.07427110486924648,-0.011108838513493537,0.03322734774863347
1772536309462640600,5.559640625,-0.07663900304436683,-0.011865209838747977,0.027168166440678758
1772536309472689700,5.569689697265625,-0.0442892235815525,0.006953107073530554,0.02826495783459395
1772536309482737700,5.579737548828125,-0.12069617143571376,0.015487784250080584,0.025715684343734755
1772536309492786700,5.58978662109375,-0.08106500279307365,0.0171047179274261,0.015654044195078314
1772536309502834400,5.59983447265625,-0.02680675838291645,0.027524039806798097,0.029045952144451437
1772536309512882400,5.60988232421875,-0.07221534138321876,0.04385141668617725,-0.005976736322045326
1772536309522931500,5.619931396484375,-0.031572949871420855,0.03307699775882065,-0.0009665708766784519
1772536309532979500,5.6299794921875,-0.009627660045027733,0.03038162119500339,-0.020622050999151542
1772536309543027700,5.64002783203125,0.027617490243911743,0.022198899261280894,-0.02873091311221942
1772536309553076500,5.650076416015625,0.03500760049521923,-0.008468772333487869,-0.02131189642683603
1772536309563124700,5.660124755859375,0.029025018954277036,-0.03885696939975023,-0.03600395458880812
1772536309573172500,5.67017236328125,0.04498714271783828,-0.028089126343652605,-0.02445962900118902
1772536309583221500,5.680221435546875,0.03353402081131935,-0.02236892206594348,-0.037638889713725074
1772536309593269500,5.69026953125,0.0011643676042556762,-0.017254720857366918,-0.05897944597946479
1772536309603317500,5.7003173828125,0.005282324317097664,-0.005017097509652376,-0.059635891461046406
1772536309613366500,5.710366455078125,-0.0009679682493209838,0.0031892244953662155,-0.07234716020249761
1772536309623414500,5.72041455078125,-0.017254501661658286,0.002334215101227164,-0.057367818664899095
1772536309633462500,5.730462646484375,-0.03980009546875953,-0.007556260598450899,-0.04434779450153
1772536309643511600,5.740511474609375,-0.02302957793176174,-0.003826572550833225,-0.03729483464956283
1772536309653559600,5.7505595703125,-0.022720950374007225,0.010904182786867021,-0.015666629682015626
1772536309663608600,5.760608642578125,-0.030299861195683477,0.015128376353159546,-0.021893587038619444
1772536309673656600,5.770656494140625,-0.019741642302274702,0.006647986647114157,-0.015382433312619103
1772536309683704600,5.78070458984375,-0.02080664118528366,-0.008940846824645996,-0.008362161020701751
1772536309693753600,5.790753662109375,-0.03137830408215522,-0.010408069832995533,0.010141244723508134
1772536309703801600,5.800801513671875,-0.04981763161420822,-0.018454452035948633,0.01214830109644681
1772536309713849600,5.810849609375,-0.052551440492272374,-0.014123144833371043,0.004332814173074439
1772536309723898600,5.820898681640625,-0.045322658282518385,-0.003732391461357474,0.0058977071359287946
1772536309733946600,5.830946533203125,-0.06120937872231006,0.018011749769747256,-0.005816960916761309
1772536309743994400,5.840994384765625,-0.05340191984176636,0.013534896616637706,-0.011997074323799461
1772536309754043600,5.851043701171875,-0.037948330122232435,0.009058627985417842,-0.02658743481012061
1772536309764091400,5.86109130859375,-0.03364858710169792,-0.010098638557642698,-0.010253701255191117
1772536309774139600,5.8711396484375,-0.05119827231764793,-0.022854878951981662,-0.01716770016103983
1772536309784188400,5.8811884765625,-0.03388590298891067,-0.02881488333493471,-0.023076047421991822
1772536309794236700,5.891236572265625,-0.006267828223109245,-0.04326886755786836,-0.030304994028527286
1772536309804285400,5.901285400390625,-0.005533084207773208,-0.05499496118687093,-0.03038852585982531
1772536309814333400,5.91133349609375,0.0034638767182826992,-0.07340528182014823,-0.04066336123459041
1772536309824381700,5.921381591796875,0.0060942252218723295,-0.07526172334179282,-0.043785603174660355
1772536309834430500,5.931430419921875,-0.046478842580318445,-0.05977342763505876,-0.03048088031839579
1772536309844478700,5.941478759765625,-0.01323708271384239,-0.0487548977535218,-0.05706067981133237
1772536309854526500,5.9515263671875,0.02545125212073326,-0.008328487079963087,-0.06778990789009258
1772536309864575700,5.96157568359375,-0.02636310626864433,0.0034162381842732428,-0.032530524590890855
1772536309874623500,5.97162353515625,-0.03461129465401173,-0.011165537136793136,-0.002869491021707654
1772536309884672800,5.9816728515625,-0.007080898171663284,0.010856544252857566,-0.008848236637748778
1772536309894720500,5.991720458984375,-0.0058615855097770685,0.04320581225901842,-0.013325290720257907
1772536309904768500,6.0017685546875,0.009898878201842307,0.02668079391568899,-0.03343361091045662
1772536309914817500,6.011817626953125,-0.006173720198869705,0.0011311959870159624,-0.0240223518287763
1772536309924865500,6.021865478515625,-0.009500234273076056,-0.015079641840606927,-0.0422375882813707
1772536309934913500,6.03191357421875,0.005644727888703346,-0.030425752597674726,-0.02495680140098557
1772536309944962600,6.041962646484375,-0.055424950101971626,-0.047194151242822405,-0.030540556350070983
1772536309955010600,6.052010498046875,-0.03717617670595646,-0.03564217207171023,-0.054297078583203255
1772536309965058600,6.06205859375,0.010477554872632026,-0.007860431176796556,-0.06751045162789523
1772536309975107300,6.072107421875,-0.00718085141479969,0.007815276860818267,-0.07379716721456497
1772536309985156000,6.082156005859375,-0.005226794737577438,-0.02204940778799355,-0.06873243117090314
1772536309995204000,6.0922041015625,0.010956278300285338,-0.03575162379555404,-0.03641827101074159
1772536310005253000,6.102253173828125,-0.01679389841258526,-0.03602781038843095,-0.01402686311835423
1772536310015300900,6.11230078125,0.010270049601793289,-0.04195807722024619,-0.015406243446469306
1772536310025350100,6.12235009765625,0.009913491249084472,-0.0430510600887239,-0.0012118965404108166
1772536310035398000,6.13239794921875,-0.036597500035166736,-0.03586092938892543,0.01194130728226155
1772536310045446100,6.142446044921875,-0.029520108994841573,-0.02192614673450589,-0.006253361306339502
1772536310055495000,6.152494873046875,-0.045353637942671776,-0.02101801891364157,0.012212781167402863
1772536310065543000,6.16254296875,-0.0756383015692234,-0.01935169313661754,0.01954579093661159
1772536310075591200,6.172591064453125,-0.05967267067432403,-0.015076719231158494,-0.006598832009453326
1772536310085640000,6.182639892578125,-0.03854804958105087,-0.003042728696763515,0.025837091366853564
1772536310095688200,6.192688232421875,-0.10198854835629463,-0.02103570070080459,0.038498913209699094
1772536310105736000,6.20273583984375,-0.07640460976660252,-0.021655440034344792,0.025429880539141594
1772536310115785200,6.21278515625,-0.06667991908788681,-0.0017386603608727455,0.04982753195371478
1772536310125833000,6.2228330078125,-0.08120236543715,0.003333163010701537,0.035817291176598515
1772536310135881000,6.232880859375,-0.05826105031073093,0.003713321434706449,0.013757142798881976
1772536310145930000,6.242929931640625,-0.034226094728708266,0.014534282917529343,0.014257712732162326
1772536310155978000,6.25297802734375,-0.014307342293858527,0.009797828980162739,0.006467460714746266
1772536310166027000,6.263027099609375,0.021129297268390655,-0.027360446742922068,0.0028601752040907738
1772536310176075000,6.273074951171875,-0.0005512041419744491,-0.05306297021098435,0.0014781462611630559
1772536310186123000,6.283123046875,-0.006321019715070724,-0.06094846276380121,-0.032905221388489
1772536310196172000,6.293172119140625,0.00950491044819355,-0.06530022823251784,-0.04241296311458573
1772536310206220000,6.303219970703125,-0.005322071805596351,-0.06549911180548369,-0.048378447390254584
1772536310216268000,6.31326806640625,-0.0013116671204566955,-0.047749593168497084,-0.057191594448313114
1772536310226317000,6.323317138671875,0.01766951220333576,-0.02262384667508304,-0.06923318376727401
1772536310236365000,6.333364990234375,0.008954875349998474,-0.014436813892424107,-0.08021766524873673
1772536310246413000,6.3434130859375,0.0010334347009658812,0.007163315758109092,-0.07171389466710389
1772536310256462000,6.353462158203125,0.005740589478611946,0.01477459447942674,-0.06806645980915055
1772536310266510000,6.363510009765625,0.0013777180939912796,0.02832227751240134,-0.06522699859952553
1772536310276557800,6.373557861328125,0.008312485793232917,0.035344796560332174,-0.058296158156730234
1772536310286607000,6.383607177734375,0.006339139893651008,0.030051001001149415,-0.05159879767624661
1772536310296654800,6.39365478515625,-0.027745500537753105,0.04087488509342074,-0.05142585226213559
1772536310306704100,6.4037041015625,-0.02767243530154228,0.020019728591293095,-0.06814469441082328
1772536310316752000,6.413751953125,-0.01144376955628395,0.013047551491111517,-0.061586066547594964
1772536310326800100,6.423800048828125,-0.03100771720409393,0.0089395316503942,-0.061087560707237566
1772536310336849000,6.433848876953125,-0.05330488920807838,0.00004515431597828865,-0.06544360049227252
1772536310346897200,6.443897216796875,-0.08960603664517403,-0.010366495713591575,-0.08140411682063713
1772536310356945200,6.453945068359375,-0.0889361745595932,0.011406725481525062,-0.059832774873171
1772536310366994200,6.463994140625,-0.09810030874609947,0.04006327644959092,-0.021039719288796187
1772536310377042200,6.474042236328125,-0.08724807534217834,0.03515869940370321,-0.01488753506829962
1772536310387090000,6.48408984375,-0.1451595815628767,0.03624401042237878,0.005111954452563077
1772536310397139200,6.49413916015625,-0.11083470263481139,0.04011559115871787,-0.06873933583572507
1772536310407187000,6.50418701171875,0.04435761264264583,0.05519647510834038,0.06269691386632621
1772536310417235200,6.514235107421875,-0.1036281322568655,0.055038288871943945,0.046862928260769696
1772536310427284000,6.524283935546875,-0.035626024654507635,0.028197482088953254,0.008703567470051347
1772536310437332200,6.534332275390625,0.008317746490240096,0.03694726332090795,0.03223364226985723
1772536310447380000,6.5443798828125,-0.008026654589176178,0.035188436954841015,0.010136778610944747
1772536310457429000,6.554428955078125,-0.0018938509225845336,0.008160217840969562,-0.005366422403976321
1772536310467477000,6.56447705078125,0.026660627910494804,-0.009765607210993767,-0.04865180270522833
1772536310477526000,6.574526123046875,0.06512976703643798,-0.013527590093016623,-0.02358741274392232
1772536310487574000,6.584573974609375,-0.005225625693798065,-0.03647818450443446,-0.020244513790495692
1772536310497622000,6.5946220703125,-0.009350012147426605,-0.046648719254508614,-0.018319190017413348
1772536310507671000,6.604671142578125,0.025749358284473417,-0.016388897808268667,-0.03798122774483636
1772536310517719000,6.614718994140625,0.03794190038144588,0.006823416279256343,-0.055561052370723334
1772536310527767000,6.62476708984375,0.022884616503119466,-0.005598989050835371,-0.05401811551135033
1772536310537816000,6.634816162109375,0.009057751202583312,-0.004509147987514734,-0.034375531403068454
1772536310547864000,6.644864013671875,-0.014590835410356521,-0.010661752333119511,-0.010474376534856856
1772536310557912000,6.654912109375,-0.03216097889244556,-0.011201119906827806,-0.012155479755904525
1772536310567961000,6.664961181640625,-0.06647475190460682,0.007353723763674497,0.0044172319203615185
1772536310578009000,6.675009033203125,-0.06401683735847473,0.031262130356580015,0.0012891447613947093
1772536310588057000,6.68505712890625,-0.050561143457889555,0.040971696531400086,-0.024418822066765277
1772536310598106000,6.695106201171875,-0.06167290458083152,0.0481722755599767,-0.022947196877934038
1772536310608154000,6.705154052734375,-0.08705693668425082,0.03426642673909664,-0.022229604926798492
1772536310618203000,6.715202880859375,-0.06613923633992672,0.019295505969971417,-0.04286415921449661
1772536310628251100,6.725251220703125,-0.049530046844482416,0.025443653336167334,-0.016624587993975728
1772536310638299000,6.735298828125,-0.05962064822614192,0.008256956213712691,-0.026637941154651342
1772536310648348200,6.74534814453125,-0.05132336000204086,-0.020258578848466276,-0.05403466478735208
1772536310658396000,6.75539599609375,-0.005640051713585853,0.0017279197711497544,-0.023131029012240466
1772536310668444200,6.765444091796875,-0.04008826476037502,-0.014198182830959558,-0.02160979252802208
1772536310678493000,6.775492919921875,-0.05363046790063381,-0.021527064414322374,-0.028425536957476287
1772536310688541000,6.785541015625,-0.0025327333480119705,0.012860285290703176,-0.030165494226291775
1772536310698589200,6.795589111328125,-0.018149989196658133,0.019152517302706836,-0.0399702826702036
1772536310708638000,6.805637939453125,-0.04510813874900341,0.0266214649438858,-0.030210812939051538
1772536310718686200,6.815686279296875,-0.049663902357220645,0.036518224253878,-0.04107875536875799
1772536310728734000,6.82573388671875,-0.014011574217677115,0.04968684484139085,-0.05343072581114247
1772536310738783200,6.835783203125,-0.048963060611486434,0.04264635174535215,-0.05040964269060641
1772536310748831000,6.8458310546875,-0.08511398592293262,0.029677418448403475,-0.0525381060866639
1772536310758879000,6.85587890625,-0.03750350896418094,0.015924787427857516,-0.0711526623214595
1772536310768928000,6.865927978515625,-0.004576806396245956,0.02036211228817701,-0.05791448362907394
1772536310778976000,6.87597607421875,-0.01950900259017944,-0.0008763444431126117,-0.046787725866399704
1772536310789025000,6.88602490234375,-0.004483867415785789,-0.011614742209017277,-0.05794206575574353
1772536310799073000,6.896072998046875,0.022406477597355843,-0.01803323094919324,-0.045796559404581785
1772536310809121000,6.90612109375,-0.0005845218896865845,-0.028102205020934343,-0.03566913314387202
1772536310819170000,6.916170166015625,-0.009752163207530975,-0.039434477026760575,-0.03478210290996358
1772536310829218000,6.926218017578125,0.004529460123181343,-0.006485635692253708,-0.054229255777690555
1772536310839266000,6.93626611328125,0.020862170764803886,0.011121697995066642,-0.03556395573634654
1772536310849314800,6.946314697265625,-0.021491700839996335,-0.009884338219836353,-0.03739995725816116
1772536310859363000,6.956363037109375,-0.03418751628398895,-0.011043737388029693,-0.024208522050641477
1772536310869411000,6.9664111328125,-0.03852116157412529,0.013239566931873559,0.0027775749545544386
1772536310879460000,6.976460205078125,-0.062033554586768146,0.027905586470291018,-0.00609915712531656
1772536310889508000,6.986508056640625,-0.04505319369137287,0.047939855043590066,-0.0039676432556472714
1772536310899556000,6.99655615234375,-0.03334638928472996,0.03231704623699188,0.006757273974176496
1772536310909605000,7.006605224609375,-0.07465104409754277,0.0059388885296881196,0.019270718588586897
1772536310919652900,7.01665283203125,-0.07794833207726479,-0.011418708180263637,0.013065415941365063
1772536310929701000,7.026701171875,-0.04282674981355667,-0.004661781265959143,-0.0018671638450585306
1772536310939750000,7.03675,-0.03778992469012737,0.016258476361632346,0.002633380710892379
1772536310949798100,7.046798095703125,-0.07464812148809433,-0.00110788817666471,-0.0006951791899278759
1772536310959847000,7.056846923828125,-0.054666825211048126,0.013077727433666586,-0.030356541552674022
1772536310969895200,7.066895263671875,-0.022009002712368962,0.04116597699448466,-0.011238985965494067
1772536310979943000,7.07694287109375,-0.04365852446258068,0.029321006226167082,-0.011868917899485677
1772536310989992700,7.08699267578125,-0.03939852893054485,0.012850275353342294,-0.01292045451272279
1772536311000040400,7.09704052734375,-0.03289221577644348,0.02468706281520426,-0.024474296847358346
1772536311010088400,7.10708837890625,-0.0000339022696018219,0.03366816858500242,-0.02788879973227158
1772536311020137500,7.117137451171875,0.014013327783346175,0.03396189083456993,-0.03769570706803351
1772536311030185500,7.127185546875,-0.02669336113631725,0.026052432884275913,-0.035639085065480317
1772536311040233700,7.137233642578125,-0.027996844950318334,0.01548288887925446,-0.042306488799117505
1772536311050282500,7.147282470703125,0.005306289714574814,0.018109437990561125,-0.03688305724458769
1772536311060330800,7.157330810546875,0.008107903131842613,0.006438362484425306,-0.019963979816064237
1772536311070378500,7.16737841796875,-0.0010229133069515229,-0.013236571257188915,-0.0292738791488111
1772536311080427500,7.177427490234375,0.006344985112547874,-0.018894231692701578,-0.022182331718970088
1772536311090475500,7.1874755859375,0.0004617722928524017,-0.022882570676505565,-0.018202577900420874
1772536311100523500,7.1975234375,-0.016908464702963828,-0.029415991033241152,-0.019234880090225486
1772536311110572500,7.207572509765625,0.007030044767260551,-0.017348098229244352,-0.013496153775136917
1772536311120620500,7.21762060546875,-0.012293079861998558,-0.010119754410907626,-0.01494039776669815
1772536311130669600,7.227669677734375,-0.026242694759368895,-0.00700688308738172,-0.011146412311214953
1772536311140717600,7.237717529296875,-0.02290858190059662,-0.0011848989356309176,-0.002648523481097072
1772536311150765600,7.247765625,-0.03952010948359966,0.0001518295608460903,0.0009869286781176924
1772536311160814600,7.257814697265625,-0.04012333607375622,0.026553514274209735,0.04419418397555128
1772536311170862300,7.2678623046875,-0.0660480509251356,0.03260470407195389,0.013403233060985802
1772536311180910600,7.27791064453125,-0.04289338530898094,0.037079365267977116,-0.02520606345431879
1772536311190959400,7.28795947265625,-0.030572248396277427,0.031102263619750735,-0.022946320095099507
1772536311201007600,7.298007568359375,-0.01766951220333576,0.021043226420134304,-0.016054660885222255
1772536311211055600,7.3080556640625,-0.038705870491266246,-0.003920461379364133,-0.0038713250080123543
1772536311221104600,7.318104736328125,-0.054040217745304105,-0.007580956648290157,-0.0029800752567127344
1772536311231152600,7.328152587890625,-0.04660568383038044,0.0014576514624059199,-0.035080062943231315
1772536311241200400,7.338200439453125,-0.03135843033790588,0.010189458646252751,-0.045657552792690695
1772536311251249700,7.348249755859375,-0.036755320945382114,0.0030047347739338873,-0.048541346334386615
1772536311261297400,7.35829736328125,-0.013940847069025038,-0.008839724537730216,-0.05651592367645353
1772536311271345700,7.368345703125,0.019248305827379224,-0.007603606871515512,-0.052168085464183236
1772536311281394400,7.37839453125,0.015006430473923683,0.009025821694359183,-0.008446633566915988
1772536311291442700,7.388442626953125,-0.024247137027978895,0.008396437749639152,-0.014874401592090724
1772536311301491500,7.398491455078125,-0.0037649054914712906,-0.013578370432183146,-0.03673683544062078
1772536311311539700,7.408539794921875,-0.006079027652740478,-0.031271482706815006,-0.004239062341861426
1772536311321587500,7.41858740234375,-0.041972763332724566,-0.027778672154992818,0.0003445025887340307
1772536311331636500,7.428636474609375,-0.02431143443584442,-0.04480937499813735,-0.03524814951913431
1772536311341684500,7.4386845703125,-0.004151858982443809,-0.026499519064649937,-0.02354028566656634
1772536311351732500,7.448732421875,-0.059420741739869117,-0.004216083325073123,-0.014165303474664687
1772536311361781500,7.458781494140625,-0.06807984901368618,0.013612564962729811,-0.032077538392692805
1772536311371829500,7.46882958984375,-0.04941548055410385,0.02624751706495881,-0.04997327883364632
1772536311381877500,7.47887744140625,-0.08778817356824874,0.010779314298182725,-0.04278897508643567
1772536311391926500,7.488926513671875,-0.07890344084501266,0.015583499709516762,-0.012143204796221106
1772536311401974500,7.498974609375,-0.06982640042006968,0.002855389431118965,-0.026376239744853227
1772536311412022500,7.5090224609375,-0.07299626262784004,-0.02778773224428296,-0.04821194998323917
1772536311422071600,7.519071533203125,-0.011707973450422286,-0.0007175736848264933,-0.026978352090157566
1772536311432119600,7.52911962890625,-0.004285129973292351,0.003708791390061378,-0.03274038621559739
1772536311442167600,7.53916748046875,-0.02169277637004852,-0.0003527589604258537,-0.04737513383291662
1772536311452216600,7.549216552734375,-0.03823942202329635,-0.01938369571007788,-0.07463858647476881
1772536311462264600,7.5592646484375,0.017879355561733246,-0.008411854514479636,-0.022730741115659474
1772536311472313600,7.569313720703125,-0.007671265280246734,0.00522160710580647,-0.013416603999212384
1772536311482361600,7.579361572265625,-0.01593991193175316,-0.018237156023457646,-0.027356026296131312
1772536311492409300,7.589409423828125,-0.04179682224392891,-0.021391966792568565,-0.05096031710961833
1772536311502458600,7.599458740234375,-0.0021586393386125564,-0.012071984457224606,-0.048495242170337585
1772536311512506400,7.60950634765625,0.025939327898621557,-0.0005398059651255607,-0.03242863511899486
1772536311522554600,7.6195546875,-0.04241933805644512,-0.002556479549780488,-0.04260660425685346
1772536311532603400,7.629603271484375,-0.028008535388112068,-0.018576470980420708,-0.06666589056253433
1772536311542651600,7.639651611328125,0.016153262421488762,-0.008427636605501174,-0.06350377326980233
1772536311552699600,7.64969970703125,0.014251812714338301,-0.017369652473926543,-0.048651473911665376
1772536311562748400,7.65974853515625,-0.010310381612181663,-0.036101971603184936,-0.030780429520551114
1772536311572796700,7.669796630859375,-0.050831192570924756,-0.04545023018494248,-0.018084632342867554
1772536311582844400,7.679844482421875,-0.0008586626559495925,-0.030749723855033516,-0.05856043511610478
1772536311592893700,7.689893798828125,0.0329132585644722,-0.0026537293791770934,0.001344345547351986
1772536311602941400,7.69994140625,-0.05283960978388786,-0.0011443477295339107,0.023269396303314715
1772536311612989400,7.709989501953125,-0.0825175396889448,-0.0020726415555924176,-0.035326621582824735
1772536311623038500,7.72003857421875,-0.009971358916163443,0.026808804209530353,-0.023374792906548827
1772536311633086500,7.73008642578125,-0.036226913157105446,0.041708559438586236,0.017554306592140346
1772536311643135500,7.740135498046875,-0.09354220705032348,0.017957608429715038,0.02625076846797019
1772536311653183500,7.75018359375,-0.1499555836677551,0.011546645408868789,-0.010289685884024947
1772536311663231500,7.7602314453125,-0.06261223125755787,0.025944442465156314,-0.02242583988495171
1772536311673280500,7.770280517578125,-0.012910919499397277,0.0481486754886806,0.04765541207902133
1772536311683328500,7.78032861328125,-0.11536825441122055,0.04771401039846241,0.04335349536770954
1772536311693376500,7.79037646484375,-0.06966565690040588,0.019471300928294657,0.017832118886522946
1772536311703425500,7.800425537109375,-0.02933072390258312,0.019066300323978064,0.008373513531778008
1772536311713473500,7.8104736328125,-0.03374444869160652,0.019907061997056007,0.015758691879641264
1772536311723521500,7.820521484375,-0.014481529816985129,0.015817235400155186,0.007473989142477512
1772536311733570600,7.830570556640625,0.006010054069757461,0.006335194370895624,-0.01577606313955039
1772536311743618600,7.84061865234375,0.02036006646156311,-0.017039762932434678,-0.023961159693449734
1772536311753666600,7.85066650390625,0.007371405550837516,-0.011776070250570774,-0.003646466743573546
1772536311763715600,7.860715576171875,0.019932780960202217,-0.02296053128354251,-0.03466260471614078
1772536311773763600,7.870763671875,-0.03242401374280453,-0.020770620023831725,-0.07620145187731832
1772536311783811600,7.8808115234375,0.07287760468423365,-0.01840104134827852,-0.05277452692473307
1772536311793860400,7.8908603515625,0.05464987407624721,0.019304346863552927,0.00692296766359359
1772536311803908600,7.90090869140625,-0.03996434611976146,0.01666902992390096,-0.04367447095038369
1772536311813956600,7.91095654296875,0.00038929157853126526,-0.007465367444604635,-0.03800055349981412
1772536311824005600,7.921005615234375,-0.030060207220911978,0.03329005598761141,-0.031666966564115134
1772536311834053600,7.9310537109375,-0.043187984341382976,0.040010596414282916,-0.03770228293929249
1772536311844102700,7.9411025390625,-0.032305940321087835,0.029910423486679792,-0.03313029884863645
1772536311854150700,7.951150634765625,-0.05064063843488693,0.02219254258573055,-0.032880360941868275
1772536311864198400,7.961198486328125,-0.033521745851635934,0.005089797419682145,-0.03845739388922229
1772536311874247400,7.971247314453125,-0.013961889857053756,0.005314546086266637,-0.015879322584625332
1772536311884295400,7.98129541015625,-0.024079379245638848,-0.007220014381408691,-0.004019263845030218
1772536311894343700,7.99134375,-0.018219547301530838,-0.026501711021736263,-0.01305412736237049
1772536311904392400,8.001392333984375,-0.002214168918132782,-0.022904051855951547,-0.010373016785923391
1772536311914440700,8.011440673828124,-0.009079963034391403,-0.014600699217244982,-0.022862057611439376
1772536311924488400,8.021488525390625,0.004704232168197631,-0.008311097553744911,-0.028575649485271422
1772536311934537700,8.031537841796874,-0.005232639956474304,-0.006984817386046052,-0.042159225815534586
1772536311944585500,8.04158544921875,-0.013742694148421287,-0.009013765930384396,-0.04482988806320354
1772536311954633500,8.051633544921875,-0.026657120779156683,-0.01810337357595563,-0.02787873499598354
1772536311964682500,8.0616826171875,-0.03540565990209579,-0.013291516314819455,-0.03303018120871857
1772536311974730500,8.07173046875,-0.027105449068546294,-0.0211262285284698,-0.03663680913224816
1772536311984778200,8.0817783203125,-0.03419979124367237,-0.03272781899496913,-0.024622144352830944
1772536311994827000,8.091826904296875,-0.037676527443528174,-0.032587241480499504,-0.018217775469552725
1772536312004875300,8.101875244140626,-0.04260813862681389,-0.02395816401876509,-0.027364958521258084
1772536312014924000,8.111924072265625,-0.06204173789322376,-0.012103110247850418,-0.03159592888820916
1772536312024972300,8.12197216796875,-0.07405307820439339,0.0028518822997808456,-0.058390704572387035
1772536312035020000,8.13202001953125,-0.06028992578983307,0.03206482504159212,-0.0581015123674646
1772536312045069000,8.142069091796875,-0.055097617843747136,0.04772884264141321,-0.038315848260372876
1772536312055117000,8.152116943359376,-0.06218202314674854,0.03919825711809098,-0.050606717898976056
1772536312065165000,8.1621650390625,-0.050717795324325556,0.032449002053588624,-0.022769794484414158
1772536312075214000,8.172214111328126,-0.04982113874554634,0.021059300772100685,0.001497508548758924
1772536312085262000,8.182261962890625,-0.04468786751031875,0.016706073998659848,-0.011305457064136862
1772536312095310000,8.19231005859375,-0.016210545566678045,0.027147242383658884,-0.024833248086553066
1772536312105359000,8.202359130859374,0.033818682971596715,0.031670418896526095,-0.04251229530321434
1772536312115407000,8.212406982421875,0.02690086640715599,0.008447802610695361,-0.017328151419758797
1772536312125455000,8.222455078125,0.009280454042553902,-0.022506065514311193,-0.0010312975428067148
1772536312135504100,8.232504150390625,-0.0018196166425943374,-0.02881912111863494,0.008509341805893928
1772536312145552100,8.24255224609375,0.004944470664858818,-0.025605858160555363,-0.005249097900930792
1772536312155600100,8.25260009765625,0.0042097266495227815,-0.009988236985728144,-0.013861717418208717
1772536312165649200,8.262649169921875,-0.02316343344449997,-0.003767901166155934,-0.0016655951246619225
1772536312175697200,8.272697265625,-0.03277764948606491,-0.01706672400459647,0.0014856902468018233
1772536312185745000,8.282744873046875,-0.028587796580791473,-0.008611103413626552,-0.023845533957146108
1772536312195794200,8.292794189453126,-0.02610650115907192,0.004074994353950023,-0.013864877489674835
1772536312205842000,8.302842041015625,-0.06272445946037769,-0.007753171410039067,-0.002495451811235398
1772536312215891200,8.31289111328125,-0.042967619588971134,-0.0033204496596008536,-0.008898359389789402
1772536312225939000,8.32293896484375,-0.0471346761405468,0.012816738409921527,0.004169833030551672
1772536312235987200,8.3329873046875,-0.07118658285737037,0.011714695452153681,-0.005407101474236697
1772536312246036000,8.343035888671874,-0.04439443752169609,-0.003401698202267289,-0.0036367673334665594
1772536312256084000,8.353083984375,-0.019736381605267524,0.0068179363865405315,0.0003116049661301076
1772536312266132200,8.36313232421875,-0.02832125459909439,0.0010593728598207236,-0.0016298114252276718
1772536312276181000,8.373180908203125,-0.047826165536046024,-0.002551145787537098,0.003067643942311406
1772536312286229200,8.383229248046876,-0.03872925136685371,0.009383768286556005,-0.007768131517153233
1772536312296277000,8.393277099609374,-0.044426001703739164,0.005070215936377644,0.004153904809057712
1772536312306326300,8.403326171875,-0.06533259613215923,0.006289747793972492,-0.007491597864404321
1772536312316374000,8.4133740234375,-0.05153378788232803,0.01059073292352259,-0.02057851325152442
1772536312326422000,8.423422119140625,-0.03583060731589794,0.020319076864048838,-0.026167236636672166
1772536312336471000,8.433470947265626,-0.04617255311012268,0.002333192187920213,-0.03566168048977852
1772536312346519000,8.44351904296875,-0.01748012711107731,-0.003512318969890475,-0.03483920339206233
1772536312356567000,8.453567138671875,-0.036842414706945416,0.003398044940456748,-0.032933442835975435
1772536312366616000,8.463615966796874,-0.041670565515756604,-0.001826411709561944,-0.0658987786475569
1772536312376664000,8.4736640625,-0.025859248399734497,-0.01394983409307897,-0.05985202756291255
1772536312386712000,8.483712158203126,-0.03799158474206924,-0.02526135557182133,-0.04855360302776098
1772536312396761000,8.493760986328125,-0.03767126674652099,-0.026749548302963375,-0.06503461783258244
1772536312406809000,8.50380908203125,-0.006678162589669227,-0.022254282710328695,-0.05858931415071711
1772536312416857000,8.513857177734375,-0.008714636853337288,-0.013078458086028694,-0.03959074530070647
1772536312426906000,8.523906005859375,-0.007281389179825782,-0.007609305959939956,-0.059137833145260804
1772536312436954000,8.5339541015625,0.015246084448695182,-0.008863689935207366,-0.06805462324088439
1772536312447003100,8.544003173828125,0.001146247425675392,-0.0059863078679889435,-0.04860471216049045
1772536312457051100,8.554051025390624,-0.031526188120245935,-0.0029158143814653156,-0.04119604333918542
1772536312467099100,8.56409912109375,-0.03239420312643051,0.010156287029013037,-0.04320407695965841
1772536312477148200,8.574148193359376,-0.00890402194559574,0.025458850905299184,-0.05529224536670371
1772536312487196000,8.58419580078125,-0.034058336946368215,0.02244542136825621,-0.027721005417313427
1772536312497244200,8.594244140625,-0.0408124873816967,0.005786985903605818,-0.019441088453121484
1772536312507293000,8.60429296875,-0.01953472155332565,0.007377689161151647,-0.019829156188946217
1772536312517341200,8.614341064453125,-0.01885550711750984,0.010150514875352382,-0.0017367789310403167
1772536312527389000,8.624388916015626,-0.025132103168964384,-0.0006424626220017672,-0.019389431331120432
1772536312537438200,8.634438232421875,-0.01013794765472412,-0.0021138503488153217,-0.02187295524254441
1772536312547486000,8.64448583984375,0.0018535189121961593,0.005759148048609494,-0.014142123528476803
1772536312557534000,8.654533935546874,-0.020443068569898606,-0.003765855339542031,-0.026168277816288173
1772536312567583000,8.6645830078125,-0.03213409088551998,-0.005973229190707206,-0.00485523974513635
1772536312577631000,8.674630859375,-0.05698971520066261,-0.01058971001021564,-0.009941950158588588
1772536312587679200,8.68467919921875,-0.04711246430873871,-0.01357617847509682,-0.009447901297640055
1772536312597728000,8.69472802734375,-0.043217210435867306,-0.0019260726917535065,-0.014427845134679228
1772536312607776300,8.7047763671875,-0.032309447452425956,-0.002138473333418369,-0.03698708387464285
1772536312617824000,8.714823974609375,-0.02835340330302715,0.007828355538100004,-0.037360538563225416
1772536312627873300,8.724873291015625,-0.012510522004961966,-0.0016310352679342031,-0.01848515770146623
1772536312637921000,8.734921142578125,0.011518588358163833,-0.005282616578042507,-0.006170925453584641
1772536312647970300,8.74497021484375,-0.008261632388830185,-0.017360738515108824,0.007356317579559981
1772536312658018000,8.75501806640625,-0.029309681114554405,-0.02296221178397536,0.01800422405041754
1772536312668066000,8.765066162109376,-0.015154899033904075,-0.020213935989141462,0.009872044993843882
1772536312678115000,8.775114990234375,-0.013039514315128325,-0.011490458242222666,0.0055093197396956384
1772536312688163000,8.7851630859375,-0.04411912771165371,-0.018282675665616987,0.00042180560864508147
1772536312698211000,8.795211181640624,-0.03628419630229473,-0.013898615362495183,-0.00761202763998881
1772536312708260000,8.805260009765625,-0.033547464814782144,0.007927797324582934,-0.008394008330535142
1772536312718308000,8.81530810546875,-0.05761632266640663,0.016324162008985878,-0.0009586524317041039
1772536312728356000,8.825356201171875,-0.08722586351037025,0.04146919772475958,0.05112650398937985
1772536312738404900,8.83540478515625,-0.10841536653339862,0.003809767546504736,0.01146483061062172
1772536312748453000,8.845453125,0.039002807611227035,0.05081592193655669,-0.031056287319865077
1772536312758501000,8.855501220703125,-0.03626549160182476,0.11328699115775524,0.026018822875618932
1772536312768550100,8.865550048828124,-0.09816752876341342,0.04500270561315119,-0.013644165677390992
1772536312778598100,8.87559814453125,-0.058987611019611356,0.023246508618071673,-0.024342304498143494
1772536312788646000,8.88564599609375,-0.03139817782640457,0.031466201561316846,-0.03361486749518663
1772536312798695200,8.895695068359375,-0.025915362501144408,-0.007030044767260551,-0.02756906625861302
1772536312808743000,8.905742919921876,-0.0416273108959198,-0.04478263312168419,-0.018021759707108138
1772536312818791200,8.915791259765625,-0.04111526972055435,-0.0376355378460139,-0.01367857940364629
1772536312828840000,8.92583984375,-0.04523088834583759,-0.018897519628331066,-0.015140870508551597
1772536312838888200,8.93588818359375,-0.014379238486289978,-0.009163695795089006,-0.030003672994393854
1772536312848936200,8.945936279296875,0.010874445235729217,0.007397124513983726,-0.03392409784113988
1772536312858985200,8.955985107421874,0.02176174995303154,0.012216288298740982,-0.029066154682263732
1772536312869033200,8.966033203125,0.02836743182837963,0.0008870850328356027,-0.024563290305063126
1772536312879082000,8.97608203125,0.016132219633460045,-0.023996084876358507,-0.02190682097952813
1772536312889130200,8.986130126953125,0.007006079369783401,-0.019570377388596533,-0.025721191635914145
1772536312899178000,8.996177978515625,-0.017625673061609268,0.0007509644977748394,-0.043083482787292446
1772536312909227000,9.00622705078125,-0.004732873740792274,0.019313333887606858,-0.049774322195444254
1772536312919275000,9.01627490234375,-0.008717559462785721,0.03348769745156169,-0.0540054204265587
1772536312929323300,9.0263232421875,-0.03806874163150787,0.043851051359996195,-0.03883819163404405
1772536312939372000,9.0363720703125,-0.0773375067025423,0.033612492875009774,-0.017216215477883816
1772536312949420000,9.046419921875,-0.07129296584129333,0.02191701357997954,-0.02374022868545726
1772536312959468000,9.056468017578124,-0.05988485212028026,0.03141695559211075,0.003895673997979611
1772536312969517000,9.06651708984375,-0.07479892813563346,0.0303810366731137,-0.00011610066033899784
1772536312979565000,9.07656494140625,-0.07725450459420681,0.034884997028857466,0.0052808812786825
1772536312989613300,9.08661328125,-0.05680208367407322,0.03856068986691534,0.005255856435280293
1772536312999662000,9.096662109375,-0.05733692120313644,0.04573058149628341,0.002098506649211049
1772536313009710300,9.10671044921875,-0.04789981529414653,0.04037146561592817,-0.008196750459074973
1772536313019758300,9.11675830078125,-0.03581190261542797,0.01441146025545895,-0.017090945130400357
1772536313029807000,9.12680712890625,-0.024947394251823424,-0.007087766303867101,-0.017250519606284796
1772536313039855400,9.13685546875,-0.03858662802577018,0.007917860452458262,-0.01693568150345236
1772536313049903000,9.146903076171874,-0.020473463708162307,0.005379062689840793,-0.03833994152201339
1772536313059952400,9.156952392578125,0.0050040918976068495,-0.013670359564572573,-0.05176087463647127
1772536313070000000,9.167000244140626,0.0007324059277772903,-0.01934898972287774,-0.04659989341041073
1772536313080049200,9.177049072265625,0.031042788517475127,-0.03588175298124552,-0.04597666521184146
1772536313090097200,9.18709716796875,0.025479893693327902,-0.02486446520872414,-0.03707830582205206
1772536313100145200,9.197145263671874,0.0178507139891386,-0.019514409417659043,-0.04566643021889031
1772536313110194200,9.207194091796875,0.012964110991358756,-0.011948285012319683,-0.04521885084817186
1772536313120242200,9.2172421875,0.002144610813260078,-0.008577493404969572,-0.03543000889206305
1772536313130290200,9.227290283203125,-0.019846856242418286,-0.006233341431617736,-0.017752934436779468
1772536313140339200,9.237339111328126,-0.019347674548625945,0.004965001996234059,-0.022669183654151857
1772536313150387200,9.24738720703125,-0.031413959917426106,0.019088292960077524,-0.026343195991776883
1772536313160435200,9.257435302734375,-0.036790392258763314,0.016117387390509247,-0.020997871174756436
1772536313170484200,9.267484130859375,-0.034279286220669745,0.015460530916973948,-0.011953052518982439
1772536313180532200,9.2775322265625,-0.06893442001640797,0.015955767088010907,0.0015229900498874484
1772536313190580200,9.287580322265624,-0.0645803164601326,0.022895868549495935,0.013909447283763438
1772536313200629200,9.297629150390625,-0.06999708081185817,0.022623481348901985,0.008328176552709192
1772536313210677200,9.30767724609375,-0.07034545585811137,0.022533391912654042,-0.015842735167592763
1772536313220725200,9.317725341796875,-0.06102993050217628,0.01559833195246756,0.00038337329439818856
1772536313230774300,9.327774169921875,-0.03619710254073143,0.013212021337822078,-0.013039331652037798
1772536313240822300,9.337822265625,-0.01944412066042423,0.01287475220747292,-0.022869455466605723
1772536313250870300,9.347870361328125,-0.03455693411827087,0.0017171061161905525,-0.007758450373355299
1772536313260919000,9.3579189453125,-0.020132687446475027,-0.0046098318830132485,-0.012087456020992248
1772536313270967300,9.36796728515625,-0.025996611043810843,0.001738806491345167,-0.002401453384850174
1772536313281015000,9.37801513671875,-0.05857201595604419,0.007977700880914927,-0.010577508115768432
1772536313291064300,9.388064208984375,-0.05536883600056171,0.007688070284575224,-0.026249964750371873
1772536313301112000,9.398112060546875,-0.0052460839599370954,0.013081892152130603,-0.05781186350481584
1772536313311160300,9.408160400390624,0.00009819967746734619,0.017078633638098834,-0.06825357987908647
1772536313321209000,9.418208984375,-0.029158874467015265,-0.0016243132662028073,-0.05599295924827456
1772536313331257000,9.428257080078126,0.017124153280258177,-0.01024352692104876,-0.05706071634395048
1772536313341305300,9.438305419921875,0.002650222247838974,0.010132760022953153,-0.03421571946516633
1772536313351354000,9.44835400390625,-0.0064256491333246225,-0.001359744045883417,-0.0414815457496792
1772536313361402400,9.45840234375,-0.009456395131349563,-0.00396283921636641,-0.016549641327932477
1772536313371450000,9.4684501953125,-0.031387656432390214,-0.015418445340916513,-0.009025419835560024
1772536313381499400,9.47849951171875,-0.019860884767770766,-0.02129844329021871,-0.0027543036768212913
1772536313391547100,9.488547119140625,-0.027466683596372603,-0.015359335564821958,-0.011110793008562176
1772536313401595100,9.49859521484375,-0.052777065941691396,0.011625409733504056,-0.022556443994678557
1772536313411644200,9.50864404296875,-0.05903963346779346,0.03372757062204182,-0.02611797240115702
1772536313421692200,9.518692138671875,-0.07753507510125636,0.05533486066572368,-0.021727409292012452
1772536313431740200,9.528740234375,-0.06915478476881981,0.06668145345784723,-0.035748207995761186
1772536313441789200,9.5387890625,-0.04397533532679081,0.05824029978364706,-0.0049149888420477504
1772536313451837200,9.548837158203124,-0.08540741591155529,0.02376717149131,0.008915712383389472
1772536313461885200,9.55888525390625,-0.07109189031124115,-0.01490508899129927,0.006271189223974943
1772536313471934200,9.568934326171876,-0.042970542198419566,-0.005740151087194681,0.010891798229329288
1772536313481982200,9.578982177734375,-0.03736789988577366,0.013968319597840308,-0.047866881138924504
1772536313492031000,9.589031005859376,0.005361234772205352,0.0050856327012181275,-0.0258069519569166
1772536313502079200,9.599079345703124,0.018214871126413346,-0.015347279800847172,-0.07642954327845945
1772536313512127200,9.609127197265625,0.09151625418066978,-0.0032890316080302,-0.03874689662139862
1772536313522176300,9.61917626953125,-0.04014613242745399,-0.03822846223786473,-0.003337199865002185
1772536313532224300,9.629224365234375,-0.02043546978533268,-0.059556131622567766,-0.025107790711615233
1772536313542272000,9.63927197265625,-0.05551964264810085,-0.056168681141361594,0.011339834257774054
1772536313552321300,9.6493212890625,-0.037571313503384586,-0.045949704139679665,-0.0276411816467531
1772536313562369000,9.659369140625,-0.0595388151615858,-0.03016512890011072,-0.01707375653358176
1772536313572417300,9.669417236328124,-0.07297989601492881,-0.004494388809800148,-0.04083676330642774
1772536313582466000,9.679466064453125,-0.1033621747970581,0.026821736756339667,-0.047768224803730844
1772536313592514300,9.689514404296874,-0.09755202721357345,0.042245223598554725,-0.04322387763867155
1772536313602562300,9.699562255859375,-0.072701663595438,0.02974989916272461,-0.021027389530185608
1772536313612611300,9.709611328125,-0.06304185484647751,0.012128536950051784,-0.015035747899953275
1772536313622659300,9.719659423828125,0.023062895679473876,0.009846563492715359,0.00041528453631326553
1772536313632707000,9.72970703125,0.09885317294001579,0.008492372404783963,-0.03526150219105184
