time,seconds_elapsed,z,y,x
1772536303972466200,0.069466064453125,0.0075548551976680756,-0.006807838566601276,-0.006994260009378195
1772536303982514700,0.0795146484375,0.011670771054923534,-0.0033281524665653706,-0.002394448034465313
1772536303992563500,0.0895634765625,0.0062403189949691296,-0.005396896041929722,-0.002596848411485553
1772536304002611700,0.09961181640625,0.005471730604767799,-0.012370649725198746,-0.0034993935842067003
1772536304012659500,0.109659423828125,0.011590076610445976,-0.0033806166611611843,-0.0002689792599994689
1772536304022708700,0.119708740234375,0.007774566300213337,0.020963339135050774,0.01998436078429222
1772536304032756500,0.129756591796875,-0.002912965603172779,0.017180051654577255,0.023868847638368607
1772536304042805800,0.1398056640625,-0.004827245604246855,-0.008293083868920803,0.0071037160232663155
1772536304052853500,0.149853515625,0.007065632846206427,-0.010489125736057758,0.0022176143247634172
1772536304062901500,0.159901611328125,0.011025220155715942,0.007260575890541077,0.017426127567887306
1772536304072950500,0.169950439453125,0.00649784691631794,0.016472449526190758,0.02665611170232296
1772536304082998500,0.17999853515625,0.0070342072285711765,0.003028813051059842,0.02214045636355877
1772536304093046800,0.190046875,0.011946408078074455,-0.0036759611684828997,0.018338527530431747
1772536304103095600,0.200095458984375,0.006058957893401384,-0.01273017656058073,0.015002385713160038
1772536304113143800,0.210143798828125,0.0002721750643104315,-0.025297632440924644,0.004087419714778662
1772536304123192600,0.220192626953125,-0.0015030881622806191,-0.042702190577983856,-0.012536032125353813
1772536304133240600,0.230240478515625,-0.002805107505992055,-0.04113838076591492,-0.028550151735544205
1772536304143288600,0.24028857421875,-0.0010330402292311192,-0.007968977093696594,-0.013084376230835915
1772536304153337600,0.250337646484375,-0.01407533884048462,0.03523921221494675,0.019523100927472115
1772536304163385600,0.260385498046875,-0.021075990051031113,0.03735030069947243,0.032876722514629364
1772536304173433600,0.27043359375,-0.01842028647661209,0.020851219072937965,0.028426848351955414
1772536304183482600,0.280482666015625,-0.01828925870358944,0.005824599415063858,0.018738534301519394
1772536304193530600,0.290530517578125,-0.018071677535772324,-0.013129916973412037,0.017366206273436546
1772536304203579600,0.30057958984375,-0.01829937845468521,-0.022473616525530815,0.01386867742985487
1772536304213627600,0.310627685546875,-0.013294500298798084,-0.02064402587711811,0.013429522514343262
1772536304223675400,0.32067529296875,-0.012045211158692837,-0.01950312778353691,0.012574381195008755
1772536304233724700,0.330724609375,-0.014372813515365124,-0.01309236604720354,0.010402573272585869
1772536304243772400,0.3407724609375,-0.015919843688607216,-0.0023068301379680634,0.020729780197143555
1772536304253820700,0.350820556640625,-0.024091754108667374,0.004039749037474394,0.02406165935099125
1772536304263869400,0.360869384765625,-0.028895564377307892,0.0013251889031380415,0.021078387275338173
1772536304273917700,0.370917724609375,-0.02828436903655529,0.006603041663765907,0.020410999655723572
1772536304283966500,0.380966552734375,-0.022180136293172836,0.008375641889870167,0.023750603199005127
1772536304294014700,0.3910146484375,-0.01721999980509281,0.0071766865439713,0.02894110418856144
1772536304304062700,0.401062744140625,-0.01332912128418684,0.004744155332446098,0.0369364470243454
1772536304314111500,0.411111572265625,-0.011411645449697971,0.003869839245453477,0.038355644792318344
1772536304324159700,0.42115966796875,-0.00848323293030262,0.005902630276978016,0.03490978106856346
1772536304334207500,0.43120751953125,-0.007469634059816599,0.01095544546842575,0.04210031405091286
1772536304344256500,0.441256591796875,-0.007693605963140726,0.014332866296172142,0.04635445028543472
1772536304354304500,0.451304443359375,-0.00466559175401926,0.008052334189414978,0.045046836137771606
1772536304364352500,0.4613525390625,-0.0034876756835728884,0.005589442327618599,0.04471607133746147
1772536304374401500,0.471401611328125,-0.003367833560332656,0.001829591696150601,0.035836029797792435
1772536304384449500,0.481449462890625,-0.008950884453952312,-0.004284493625164032,0.02911687269806862
1772536304394498600,0.49149853515625,-0.011136806569993496,-0.009166866540908813,0.028735240921378136
1772536304404546600,0.501546630859375,-0.015617841854691505,-0.0057646785862743855,0.03223756328225136
1772536304414594600,0.511594482421875,-0.014552311040461063,0.004461860284209251,0.037454698234796524
1772536304424643600,0.5216435546875,-0.01925438828766346,0.011357849463820457,0.04478984326124191
1772536304434691600,0.531691650390625,-0.020736970007419586,0.007670436520129442,0.04225770756602287
1772536304444739600,0.541739501953125,-0.016510266810655594,0.0011283813510090113,0.03976685553789139
1772536304454788600,0.55178857421875,-0.01973189227283001,-0.007634750101715326,0.037949513643980026
1772536304464836600,0.561836669921875,-0.022109029814600945,-0.006209426559507847,0.03413186967372894
1772536304474885600,0.5718857421875,-0.02485794574022293,-0.000663393409922719,0.03475851193070412
1772536304484933600,0.58193359375,-0.02305738255381584,0.009269398637115955,0.029822077602148056
1772536304494981600,0.591981689453125,-0.017724135890603065,0.0070943948812782764,0.02279958873987198
1772536304505030700,0.60203076171875,-0.0075785573571920395,-0.009897904470562935,0.018733739852905273
1772536304515078700,0.61207861328125,-0.012062788009643555,-0.03629089519381523,0.005947637837380171
1772536304525126700,0.622126708984375,-0.014456170611083508,-0.046306513249874115,-0.00563977612182498
1772536304535175700,0.63217578125,-0.015976568683981895,-0.03063780441880226,-0.006957774516195059
1772536304545223400,0.642223388671875,-0.027190076187253,-0.012990100309252739,0.002639458980411291
1772536304555271700,0.652271728515625,-0.03139760345220566,0.005219529382884502,0.018087390810251236
1772536304565320400,0.662320556640625,-0.029635123908519745,0.012407933361828327,0.025655029341578484
1772536304575368700,0.67236865234375,-0.02407417632639408,0.011292601935565472,0.02936694398522377
1772536304585417500,0.68241748046875,-0.017902834340929985,0.01227770559489727,0.033304426819086075
1772536304595465700,0.6924658203125,-0.019153721630573273,0.013635118491947651,0.03875831514596939
1772536304605513500,0.702513427734375,-0.019640546292066574,0.012253204360604286,0.04043317586183548
1772536304615562800,0.712562744140625,-0.013833523727953434,0.005276787560433149,0.03556864708662033
1772536304625610500,0.722610595703125,-0.00868936162441969,-0.00971654336899519,0.027650270611047745
1772536304635658500,0.732658447265625,-0.006585731171071529,-0.014877216890454292,0.015959259122610092
1772536304645707500,0.74270751953125,-0.011352256871759892,-0.019687151536345482,0.013470801524817944
1772536304655755500,0.752755615234375,-0.018879149109125137,-0.019458919763565063,0.006622216198593378
1772536304665804500,0.762804443359375,-0.024092286825180054,-0.020299678668379784,0.0007017429452389479
1772536304675852500,0.7728525390625,-0.024871528148651123,-0.015444203279912472,-0.009516273625195026
1772536304685900800,0.78290087890625,-0.025668079033493996,-0.004534830804914236,-0.009639045223593712
1772536304695949600,0.792949462890625,-0.0335310623049736,0.012658271007239819,0.004487426485866308
1772536304705997600,0.80299755859375,-0.04315146431326866,0.02346324734389782,0.0082483422011137
1772536304716045600,0.813045654296875,-0.0433671809732914,0.01955532468855381,0.010215619578957558
1772536304726094600,0.823094482421875,-0.03659023344516754,0.0070949275977909565,-0.001871403306722641
1772536304736142600,0.833142578125,-0.016026902943849564,-0.001532382913865149,-0.0038570561446249485
1772536304746191600,0.843191650390625,-0.003849332919344306,-0.0018397116800770164,-0.004335626028478146
1772536304756239600,0.853239501953125,0.005062669049948454,0.000806138850748539,0.0028549085836857557
1772536304766287600,0.86328759765625,0.009047024883329868,0.009897105395793915,0.006536195985972881
1772536304776336600,0.873336669921875,0.01267132069915533,0.016037821769714355,0.002764893928542733
1772536304786384600,0.883384521484375,0.01618296466767788,0.01062281709164381,-0.0008884305134415627
1772536304796432400,0.893432373046875,0.01617657206952572,0.0022892532870173454,-0.0017025588313117623
1772536304806481700,0.903481689453125,0.015396267175674438,-0.003500725142657757,-0.0005811017472296953
1772536304816529400,0.913529296875,0.01384018175303936,-0.0067756143398582935,-0.004111654590815306
1772536304826577700,0.92357763671875,0.007364439312368631,-0.0037025928031653166,-0.0008530105114914477
1772536304836626400,0.93362646484375,-0.0004471447318792343,0.000966993800830096,0.0011744539951905608
1772536304846674700,0.9436748046875,-0.002150768879801035,0.0021105550695210695,0.0015843145083636045
1772536304856723500,0.953723388671875,-0.0067452541552484035,-0.0006072007236070931,0.0005320995696820319
1772536304866771700,0.963771728515625,-0.002555303042754531,0.0001459412305848673,-0.0023238742724061012
1772536304876819700,0.97381982421875,-0.0030336068011820316,0.000901480030734092,-0.004944424610584974
1772536304886868500,0.983868408203125,-0.009517339058220387,-0.0067753479816019535,-0.008078432641923428
1772536304896916700,0.993916748046875,-0.011448396369814873,-0.008649680763483047,-0.005396896041929722
1772536304906964500,1.003964599609375,-0.014997324906289577,-0.0017441042000427842,-0.010867561213672161
1772536304917013800,1.014013671875,-0.018821358680725098,-0.0010373012628406286,-0.009277121163904667
1772536304927061500,1.0240615234375,-0.015895342454314232,-0.007693605963140726,-0.010230799205601215
1772536304937110800,1.03411083984375,-0.014768825843930244,-0.0040765004232525826,-0.006985205225646496
1772536304947158500,1.044158447265625,-0.01210087165236473,-0.0015872439835220575,-0.005957757588475943
1772536304957206500,1.05420654296875,-0.01176557969301939,-0.009638246148824692,-0.011512313038110733
1772536304967255600,1.064255615234375,-0.003487143199890852,-0.009695237502455711,-0.013896108604967594
1772536304977303300,1.07430322265625,-0.0010181264951825142,-0.015058311633765697,-0.01733051985502243
1772536304987351300,1.084351318359375,-0.0016476977616548538,-0.01697232574224472,-0.017555823549628258
1772536304997400300,1.094400390625,0.003581951605156064,-0.017073525115847588,-0.01750868558883667
1772536305007448300,1.1044482421875,0.001433845958672464,-0.014572817832231522,-0.013248161412775517
1772536305017496300,1.114496337890625,-0.005562810692936182,-0.00845686811953783,-0.002546780975535512
1772536305027545300,1.12454541015625,-0.009160741232335567,0.0067971860989928246,0.006607302464544773
1772536305037593300,1.13459326171875,-0.012752014212310314,0.009822537191212177,0.02316311001777649
1772536305047642000,1.14464208984375,-0.009905095212161541,0.01062361616641283,0.03145486116409302
1772536305057690400,1.1546904296875,-0.008202003315091133,0.018494853749871254,0.04126355051994324
1772536305067738400,1.16473828125,-0.006148173473775387,0.01612410880625248,0.036374520510435104
1772536305077787400,1.174787353515625,-0.006659500766545534,0.008159925229847431,0.02972513809800148
1772536305087835400,1.18483544921875,-0.002406698651611805,0.008798019029200077,0.02346218191087246
1772536305097883100,1.194883056640625,0.000013315805517777335,0.010421748273074627,0.00941853504627943
1772536305107932400,1.204932373046875,0.0060240705497562885,0.004815794061869383,0.000651675509288907
1772536305117980200,1.214980224609375,0.013264406472444534,0.006846720818430185,-0.006896521896123886
1772536305128028400,1.2250283203125,0.011728561483323574,0.009363141842186451,-0.013367736712098122
1772536305138077200,1.2350771484375,0.006375341210514307,0.011578358709812164,-0.021230453625321388
1772536305148125400,1.24512548828125,0.0007712514488957822,0.01122069638222456,-0.0325414314866066
1772536305158174200,1.25517431640625,-0.014056696556508541,-0.0009534116834402084,-0.0322657935321331
1772536305168222500,1.265222412109375,-0.020535634830594063,-0.008587363176047802,-0.031797345727682114
1772536305178270500,1.2752705078125,-0.033671941608190536,0.002216548891738057,-0.02521134726703167
1772536305188319500,1.285319580078125,-0.034810978919267654,0.005570267792791128,-0.015225824899971485
1772536305198367200,1.2953671875,-0.0359412245452404,0.010031062178313732,-0.00965662207454443
1772536305208415200,1.305415283203125,-0.02846413105726242,0.012231099419295788,-0.006156695540994406
1772536305218464300,1.31546435546875,-0.026132535189390182,0.0088803106918931,-0.003293531248345971
1772536305228512300,1.32551220703125,-0.02371465042233467,0.006772951222956181,-0.009957559406757355
1772536305238561300,1.335561279296875,-0.024153539910912514,0.004807005636394024,-0.017125191166996956
1772536305248609300,1.345609375,-0.01697472296655178,0.013820207677781582,-0.016568856313824654
1772536305258657300,1.3556572265625,-0.016881778836250305,0.02346750907599926,-0.013171995058655739
1772536305268706300,1.365706298828125,-0.016923056915402412,0.024766599759459496,-0.009868343360722065
1772536305278754300,1.37575439453125,-0.013857758603990078,0.014001303352415562,-0.0019651465117931366
1772536305288802300,1.38580224609375,-0.00942066591233015,0.007388141471892595,0.0016743293963372707
1772536305298851300,1.395851318359375,-0.010763165540993214,0.0005060005933046341,0.009609750472009182
1772536305308899300,1.4058994140625,-0.014849785715341568,0.010076602920889854,0.012834572233259678
1772536305318947300,1.415947265625,-0.014821822755038738,0.020009128376841545,0.011959724128246307
1772536305328996400,1.425996337890625,-0.018389392644166946,0.012692891992628574,0.013493970967829227
1772536305339044400,1.43604443359375,-0.019458919763565063,0.0054850466549396515,0.017794176936149597
1772536305349093400,1.44609326171875,-0.021397167816758156,0.001972869737073779,0.014406902715563774
1772536305359141400,1.456141357421875,-0.022484535351395607,0.005175853613764048,0.015856461599469185
1772536305369189400,1.466189453125,-0.018697787076234818,0.010090983472764492,0.013052418828010559
1772536305379238400,1.47623828125,-0.02154097892343998,0.020832311362028122,0.016864201053977013
1772536305389286400,1.486286376953125,-0.029076658189296722,0.016322780400514603,0.01605965942144394
1772536305399334400,1.49633447265625,-0.031076425686478615,0.01061882171779871,0.010142914950847626
1772536305409383400,1.506383544921875,-0.02936294861137867,0.012545352801680565,-0.002005093963816762
1772536305419431400,1.516431396484375,-0.02556528151035309,0.006874151527881622,-0.012828180566430092
1772536305429479400,1.5264794921875,-0.02124137245118618,0.0023369237314909697,-0.025427594780921936
1772536305439528200,1.536528076171875,-0.020539363846182823,0.006177202332764864,-0.026937607675790787
1772536305449576400,1.546576416015625,-0.017781926319003105,0.013050820678472519,-0.024623587727546692
1772536305459625200,1.556625244140625,-0.016981646418571472,0.027148529887199402,-0.022839801385998726
1772536305469673500,1.566673583984375,-0.020379040390253067,0.03314490243792534,-0.019285013899207115
1772536305479721200,1.57672119140625,-0.015449264086782932,0.02929557114839554,-0.013320332393050194
1772536305489770500,1.5867705078125,-0.010750115849077702,0.02147786132991314,-0.01258024014532566
1772536305499818200,1.596818359375,-0.010915231890976429,0.014482536353170872,-0.014517157338559628
1772536305509866200,1.6068662109375,-0.007817443460226059,0.008429703302681446,-0.013582920655608177
1772536305519915300,1.616915283203125,-0.004857073072344065,0.007212905213236809,-0.010179400444030762
1772536305529963300,1.62696337890625,-0.0016229304019361734,0.008170045912265778,-0.001728391507640481
1772536305540011500,1.637011474609375,0.0015193333383649588,0.01098367478698492,-0.0022176143247634172
1772536305550060300,1.647060302734375,0.005290902219712734,0.004162254277616739,-0.00013662016135640442
1772536305560108500,1.657108642578125,0.011292069219052792,0.00631888210773468,0.0029356025625020266
1772536305570157300,1.6671572265625,0.01805916242301464,0.011562912724912167,0.0035198999103158712
1772536305580205600,1.67720556640625,0.021692246198654175,0.011330419220030308,0.002740126335993409
1772536305590253300,1.68725341796875,0.02040487341582775,0.009048355743288994,0.0034386736806482077
1772536305600302300,1.69730224609375,0.018753714859485626,0.007988950237631798,0.0015307849971577525
1772536305610350300,1.707350341796875,0.020203538239002228,0.0031638352666050196,0.0010689928894862533
1772536305620398300,1.7173984375,0.01667245291173458,0.0012913667596876621,-0.0005941512063145638
1772536305630447400,1.727447265625,0.011283813044428825,-0.00020266656065359712,-0.008021974004805088
1772536305640495400,1.737495361328125,0.010700048878788948,-0.002429601736366749,-0.005527656991034746
1772536305650544400,1.74754443359375,0.007438208907842636,0.010963968001306057,0.0038123151753097773
1772536305660592400,1.75759228515625,0.0002306297537870705,0.019752399995923042,0.004205131437629461
1772536305670640000,1.76764013671875,-0.006414756178855896,0.016416257247328758,0.0008346347021870315
1772536305680689400,1.777689453125,-0.010907508432865143,0.014677213504910469,-0.004442951641976833
1772536305690737200,1.787737060546875,-0.018731342628598213,0.008896822109818459,-0.010730940848588943
1772536305700785400,1.797785400390625,-0.019274095073342323,0.0027659591287374496,-0.015508918091654778
1772536305710834200,1.807834228515625,-0.01979394443333149,0.011964251287281513,-0.01611798256635666
1772536305720882400,1.81788232421875,-0.019055716693401337,0.026262762024998665,-0.011439342051744461
1772536305730930400,1.827930419921875,-0.018488196656107903,0.029323266819119453,-0.014909973368048668
1772536305740979500,1.8379794921875,-0.020111925899982452,0.023207318037748337,-0.024866200983524323
1772536305751027500,1.84802734375,-0.02101180888712406,0.005979062989354134,-0.03509380668401718
1772536305761076500,1.858076416015625,-0.020257601514458656,-0.009496832266449928,-0.04033916816115379
1772536305771124500,1.86812451171875,-0.027885960415005684,-0.01137143187224865,-0.033480461686849594
1772536305781172200,1.878172119140625,-0.032754216343164444,-0.003186205867677927,-0.020477311685681343
1772536305791221500,1.888221435546875,-0.03578782454133034,0.009147691540420055,-0.009969543665647507
1772536305801269200,1.898269287109375,-0.034567829221487045,0.024400414898991585,0.001746501075103879
1772536305811317500,1.9083173828125,-0.027579430490732193,0.021979600191116333,0.014431403949856758
1772536305821366300,1.9183662109375,-0.0211886428296566,0.015666577965021133,0.0183451846241951
1772536305831414300,1.928414306640625,-0.020204603672027588,0.014970693737268448,0.0167400985956192
1772536305841463300,1.93846337890625,-0.01756221614778042,0.0075671058148145676,0.013449762016534805
1772536305851511300,1.94851123046875,-0.016577111557126045,0.006116481963545084,0.012774650938808918
1772536305861559300,1.958559326171875,-0.017184313386678696,0.000570981705095619,0.012025769799947739
1772536305871608300,1.9686083984375,-0.01936917006969452,0.0038948729634284973,0.012984241358935833
1772536305881656300,1.97865625,-0.019169965758919716,0.00606534956023097,0.017724934965372086
1772536305891704300,1.988704345703125,-0.0199260376393795,0.006965497974306345,0.01841416023671627
1772536305901753300,1.99875341796875,-0.01870870590209961,0.00768801337108016,0.01871935836970806
1772536305911801300,2.00880126953125,-0.016349146142601967,0.0032229574862867594,0.014242585748434067
1772536305921849300,2.018849365234375,-0.013629792258143425,-0.0037321539130061865,0.01360262744128704
1772536305931898400,2.0288984375,-0.013050287961959839,0.004234426189213991,0.015105982311069965
1772536305941946400,2.0389462890625,-0.012775982730090618,0.012527243234217167,0.013555755838751793
1772536305951994400,2.048994384765625,-0.009286176413297653,0.01534726470708847,0.017357684671878815
1772536305962043400,2.05904345703125,-0.010417487472295761,0.01781734637916088,0.01528974063694477
1772536305972091400,2.06909130859375,-0.012076370418071747,0.017429856583476067,0.01483726967126131
1772536305982144300,2.079144287109375,-0.01852255128324032,0.009382316842675209,0.008715727366507053
1772536305992192500,2.089192626953125,-0.020480774343013763,-0.0021233384031802416,0.005479720421135426
1772536306002240500,2.099240478515625,-0.01780589483678341,-0.0028972530271857977,0.005803028121590614
1772536306012289500,2.10928955078125,-0.020144948735833168,0.002046372974291444,0.009183377958834171
1772536306022337500,2.119337646484375,-0.026988208293914795,0.004003529902547598,0.010897655040025711
1772536306032385300,2.12938525390625,-0.027511784806847572,0.000037017940485384315,0.015150190331041813
1772536306042434600,2.1394345703125,-0.03135925531387329,0.01002174150198698,0.02412557601928711
1772536306052482300,2.149482421875,-0.0325680635869503,0.02094096876680851,0.025964489206671715
1772536306062531600,2.159531494140625,-0.031808264553546906,0.01546151377260685,0.030220219865441322
1772536306072579300,2.169579345703125,-0.03134993463754654,0.011348527856171131,0.02739034593105316
1772536306082627600,2.179627685546875,-0.028241757303476334,0.015393070876598358,0.02491546981036663
1772536306092676400,2.18967626953125,-0.027301661670207977,0.022819029167294502,0.019566509872674942
1772536306102724600,2.199724609375,-0.02304459922015667,0.017611751332879066,0.015559785068035126
1772536306112772400,2.2097724609375,-0.01534486748278141,0.011408981867134571,0.009179649874567986
1772536306122821600,2.219821533203125,-0.013531520962715149,0.00875247921794653,0.007521831896156073
1772536306132869400,2.229869384765625,-0.008168714120984077,0.003879959462210536,0.005155613645911217
1772536306142917400,2.23991748046875,-0.005190767347812653,-0.0023965786676853895,0.009585515595972538
1772536306152966400,2.24996630859375,-0.000624777574557811,-0.0006623281515203416,0.012198609299957752
1772536306163014400,2.260014404296875,-0.0019955066964030266,0.003338272450491786,0.01684103161096573
1772536306173063400,2.2700634765625,0.0012753878254443407,0.006115416996181011,0.01678004488348961
1772536306183111400,2.280111328125,0.002892192918807268,0.008242749609053135,0.01649641804397106
1772536306193159400,2.290159423828125,0.0023459785152226686,0.009129848331212997,0.014868161641061306
1772536306203208400,2.30020849609375,0.0007478156476281583,0.00948218535631895,0.016336096450686455
1772536306213256400,2.31025634765625,-0.0004916195175610483,0.010271811857819557,0.0205159280449152
1772536306223304400,2.320304443359375,-0.0010223875287920237,0.012553076259791851,0.019871974363923073
1772536306233353500,2.330353515625,-0.004856273997575045,0.01191205345094204,0.021853633224964142
1772536306243401500,2.3404013671875,-0.010152502916753292,0.016231700778007507,0.025665149092674255
1772536306253449500,2.350449462890625,-0.015372565016150475,0.01960885524749756,0.025315210223197937
1772536306263498500,2.36049853515625,-0.022247515618801117,0.01624554954469204,0.015396267175674438
1772536306273546500,2.37054638671875,-0.022055767476558685,0.010188722051680088,0.005087969359010458
1772536306283595500,2.380595458984375,-0.020718595013022423,0.005108209326863289,-0.0031995216850191355
1772536306293643500,2.3906435546875,-0.01734144054353237,0.00669358903542161,-0.011816179379820824
1772536306303691300,2.400691162109375,-0.01835157722234726,0.008772985078394413,-0.012574913911521435
1772536306313740500,2.410740478515625,-0.01780296489596367,0.016287626698613167,-0.014303305186331272
1772536306323788300,2.420788330078125,-0.021924473345279694,0.020626448094844818,-0.020175576210021973
1772536306333836500,2.43083642578125,-0.025355158373713493,0.021813951432704926,-0.022950856015086174
1772536306343885300,2.44088525390625,-0.02815653756260872,0.019587550312280655,-0.021987324580550194
1772536306353933600,2.45093359375,-0.029630329459905624,0.01047581061720848,-0.017784323543310165
1772536306363981600,2.460981689453125,-0.028561869636178017,0.010510964319109917,-0.016711069270968437
1772536306374030300,2.4710302734375,-0.025297101587057114,0.013276390731334686,-0.010936536826193333
1772536306384078600,2.48107861328125,-0.02062911167740822,0.014720089733600616,0.00001651159800530877
1772536306394127400,2.49112744140625,-0.013915815390646458,0.022706644609570503,0.003477022983133793
1772536306404175600,2.501175537109375,-0.005883721634745598,0.022706111893057823,0.008400674909353256
1772536306414223400,2.511223388671875,0.003082076320424676,0.01979048177599907,0.006311958190053701
1772536306424272600,2.521272705078125,0.007239004597067833,0.018688732758164406,0.006449909880757332
1772536306434320400,2.5313203125,0.014021276496350765,0.015809057280421257,0.0041366880759596825
1772536306444368400,2.541368408203125,0.012228436768054962,0.015292136929929256,0.0031047132797539234
1772536306454417400,2.55141748046875,0.011041998863220215,0.009585781954228878,-0.0006503439508378506
1772536306464465400,2.56146533203125,0.00848403200507164,0.008086156100034714,0.00028522455249913037
1772536306474513400,2.571513427734375,0.004143878817558289,0.0009097357979044318,0.0014921691035851836
1772536306484562400,2.5815625,0.005773200653493404,0.0013606089632958174,0.007411843631416559
1772536306494610400,2.5916103515625,0.002293780678883195,-0.0009986853692680597,0.010324808768928051
1772536306504659500,2.601659423828125,0.000020506340661086142,0.0011329087428748608,0.02112286165356636
1772536306514707500,2.61170751953125,0.0010953581659123302,0.004478371702134609,0.029920348897576332
1772536306524755500,2.62175537109375,-0.0010431602131575346,0.006220611743628979,0.03364584594964981
1772536306534804200,2.63180419921875,0.000020240024241502397,0.00618252856656909,0.02912299707531929
1772536306544852500,2.6418525390625,0.002626675646752119,0.008934639394283295,0.027336815372109413
1772536306554900500,2.651900390625,0.00355904852040112,0.008389489725232124,0.013302755542099476
1772536306564949500,2.661949462890625,0.000696150294970721,-0.0033683660440146923,0.0008929579053074121
1772536306574997500,2.67199755859375,-0.004043477587401867,-0.009781790897250175,-0.013420733623206615
1772536306585045500,2.68204541015625,-0.00854288786649704,-0.014941132627427578,-0.016639163717627525
1772536306595094500,2.692094482421875,-0.012026568874716759,0.000544350128620863,-0.01449958048760891
1772536306605142300,2.702142333984375,-0.010713896714150906,0.008045676164329052,-0.008404137566685677
1772536306615191600,2.712191650390625,-0.008768724277615547,0.01600000448524952,0.0033212280832231045
1772536306625239300,2.7222392578125,-0.008933840319514275,0.019044265151023865,0.011139203794300556
1772536306635287600,2.73228759765625,-0.006897320970892906,0.019414976239204407,0.018815232440829277
1772536306645336300,2.74233642578125,-0.0089391665533185,0.021277857944369316,0.021734856069087982
1772536306655384600,2.752384521484375,-0.002862099092453718,0.025498967617750168,0.020670391619205475
1772536306665432600,2.7624326171875,-0.0008639294537715614,0.023151392117142677,0.019530823454260826
1772536306675481600,2.772481689453125,-0.0005371595616452396,0.022959643974900246,0.011620170436799526
1772536306685529300,2.782529296875,0.002101234160363674,0.01576857641339302,0.00381444557569921
1772536306695577300,2.792577392578125,0.010006029158830643,0.01500957552343607,-0.002650644164532423
1772536306705626400,2.80262646484375,0.009534649550914764,0.010281932540237904,-0.008273109793663025
1772536306715674400,2.81267431640625,0.011918445117771626,0.002788063371554017,-0.015977101400494576
1772536306725722600,2.82272265625,0.011729893274605274,-0.0016413062112405896,-0.01733131892979145
1772536306735771400,2.832771484375,0.009772202931344509,-0.007672034204006195,-0.021082116290926933
1772536306745819600,2.842819580078125,0.004092213232070208,-0.017463412135839462,-0.022791864350438118
1772536306755868400,2.852868408203125,0.0016841830220073462,-0.016468456014990807,-0.012617791071534157
1772536306765916400,2.86291650390625,0.009047024883329868,-0.002237587934359908,-0.007808388210833073
1772536306775964400,2.87296435546875,0.00418462511152029,0.013148559257388115,0.003465837799012661
1772536306786013400,2.883013427734375,0.004144411068409681,0.015575231052935123,0.006744988262653351
1772536306796061400,2.8930615234375,0.004477039910852909,0.013420733623206615,0.00628905463963747
1772536306806109400,2.903109375,0.0028386632911860943,0.014398646540939808,0.0113975303247571
1772536306816158500,2.913158447265625,0.001526257605291903,0.009795905090868473,0.015789082273840904
1772536306826206500,2.92320654296875,-0.0026698189321905375,0.014823420904576778,0.02093644067645073
1772536306836255500,2.93325537109375,-0.008164985105395317,0.022846460342407227,0.01883627101778984
1772536306846303500,2.943303466796875,-0.008581504225730896,0.0156487338244915,0.013528591953217983
1772536306856351500,2.9533515625,-0.003967044875025749,0.011842810548841953,0.002301770029589534
1772536306866400500,2.963400390625,-0.000993891735561192,0.009977266192436218,-0.00032916670897975564
1772536306876448500,2.973448486328125,0.0009534116834402084,0.011781558394432068,0.0016881778137758374
1772536306886496500,2.98349658203125,0.0005233111442066729,0.02051139995455742,-0.0019049590919166803
1772536306896545500,2.993545654296875,-0.0001960086519829929,0.025164742022752762,-0.0005960154230706394
1772536306906593500,3.003593505859375,-0.006645119283348322,0.029387183487415314,-0.009756490588188171
1772536306916641500,3.0136416015625,-0.010526676662266254,0.02010367065668106,-0.023139141499996185
1772536306926690300,3.023690185546875,-0.009270730428397655,0.0029201561119407415,-0.03510366007685661
1772536306936738600,3.033738525390625,-0.01110165286809206,-0.003861050819978118,-0.043421242386102676
1772536306946786300,3.043786376953125,-0.014190919697284698,-0.006624612957239151,-0.039748743176460266
1772536306956835600,3.053835693359375,-0.015067100524902344,-0.004000067710876465,-0.025955434888601303
1772536306966883300,3.06388330078125,-0.011137339286506176,0.006146309431642294,-0.010599647648632526
1772536306976932600,3.0739326171875,-0.0121839614585042,0.016114521771669388,0.003988616168498993
1772536306986977000,3.08397705078125,-0.010157562792301178,0.021676532924175262,0.013424196280539036
1772536306997025000,3.09402490234375,-0.007011570502072573,0.0229180995374918,0.015295865945518017
1772536307007074000,3.104073974609375,-0.004896754398941994,0.023858727887272835,0.014612498693168163
1772536307017122000,3.1141220703125,-0.006456301547586918,0.013920875266194344,0.008202269673347473
1772536307027170000,3.124170166015625,-0.003222425002604723,0.005305283237248659,-0.0008988168556243181
1772536307037219000,3.134218994140625,-0.0017840516520664096,0.00018269284919369966,-0.003727093804627657
1772536307047267000,3.14426708984375,-0.006310626398772001,0.003777693957090378,-0.00043782367720268667
1772536307057315000,3.154315185546875,-0.0026911243330687284,0.00547386147081852,0.006619553081691265
1772536307067364000,3.164364013671875,-0.002639192622154951,0.005258677992969751,0.011419101618230343
1772536307077412000,3.174412109375,0.002252768026664853,0.009942645207047462,0.015918245539069176
1772536307087461000,3.184461181640625,0.002275671111419797,0.007611314300447702,0.015307583846151829
1772536307097509000,3.194509033203125,0.004832838196307421,0.003980360459536314,0.01876622997224331
1772536307107557000,3.20455712890625,0.0044410875998437405,0.007207312621176243,0.022374548017978668
1772536307117606000,3.21460595703125,0.0007294398383237422,0.02172313816845417,0.029267340898513794
1772536307127654100,3.224654052734375,0.0019651465117931366,0.03009718284010887,0.026764769107103348
1772536307137702000,3.234701904296875,0.0002918824611697346,0.029703833162784576,0.021265873685479164
1772536307147751200,3.244751220703125,-0.001567802974022925,0.017961157485842705,0.006383064668625593
1772536307157799000,3.254798828125,-0.003722566645592451,0.00755086075514555,-0.003531617810949683
1772536307167847200,3.26484716796875,-0.004441886208951473,0.001901230658404529,-0.013458284549415112
1772536307177896000,3.27489599609375,-0.0041396175511181355,0.0022865901701152325,-0.01936943642795086
1772536307187944000,3.28494384765625,-0.0062523032538592815,0.007281614933162928,-0.019390208646655083
1772536307197993000,3.294992919921875,-0.004973985720425844,0.014127003960311413,-0.0156474020332098
1772536307208041000,3.305041015625,-0.01028539426624775,0.019150258973240852,-0.0153752276673913
1772536307218089200,3.315089111328125,-0.007382548879832029,0.01696566678583622,-0.014255101792514324
1772536307228138000,3.325137939453125,-0.0054424358531832695,0.01961870864033699,-0.01607404090464115
1772536307238186200,3.335186279296875,-0.00526640098541975,0.017070597037672997,-0.01444019190967083
1772536307248234000,3.34523388671875,-0.01104759145528078,0.013802630826830864,-0.008896822109818459
1772536307258283300,3.355283203125,-0.0101415840908885,0.01070990227162838,-0.00700757559388876
1772536307268331000,3.3653310546875,-0.012462794780731201,0.005882656667381525,0.0010218549286946654
1772536307278379000,3.37537890625,-0.013611682690680027,0.010698983445763588,-0.0005073322099633515
1772536307288428000,3.385427978515625,-0.016534768044948578,0.01107289083302021,0.0033425334841012955
1772536307298476000,3.39547607421875,-0.017560085281729698,0.011450527235865593,0.003962250892072916
1772536307308525000,3.405525146484375,-0.018498582765460014,0.012071044184267521,0.004969458561390638
1772536307318573000,3.415572998046875,-0.018927885219454765,0.014973356388509274,0.0016530241118744016
1772536307328621000,3.42562109375,-0.015273228287696838,0.012557869777083397,-0.00030839405371807516
1772536307338670000,3.435670166015625,-0.00971760880202055,0.007223291788250208,-0.0022738068364560604
1772536307348717800,3.4457177734375,-0.0075609805062413216,0.006837932392954826,0.00007723167072981596
1772536307358766000,3.45576611328125,-0.006286391522735357,0.0077458037994802,0.004579837899655104
1772536307368814800,3.46581494140625,-0.001181111903861165,0.013982394710183144,0.007684018462896347
1772536307378863000,3.475863037109375,0.0015393070643767715,0.013605291023850441,0.009891246445477009
1772536307388911000,3.4859111328125,0.0022471752017736435,0.006969758775085211,0.008304269053041935
1772536307398960000,3.495960205078125,0.0016652746126055717,0.006464024540036917,0.011373828165233135
1772536307409008000,3.506008056640625,0.005573729984462261,0.011478490196168423,0.011608452536165714
1772536307419055900,3.516055908203125,-0.0015398397808894515,0.012278237380087376,0.010231598280370235
1772536307429105200,3.526105224609375,-0.006870422977954149,0.008828379213809967,0.00780439330264926
1772536307439153000,3.53615283203125,-0.005527923349291086,0.0014761901693418622,0.001829591696150601
1772536307449202200,3.5462021484375,-0.006720220670104027,0.005707953125238419,-0.0020335898734629154
1772536307459250000,3.55625,-0.0035124430432915688,0.006393717136234045,-0.005726861767470837
1772536307469298200,3.566298095703125,0.0014263890916481614,0.007724765222519636,-0.008685100823640823
1772536307479347000,3.576346923828125,0.0009209210984408855,0.012435098178684711,-0.007148723118007183
1772536307489395200,3.586395263671875,-0.004833370912820101,0.014948856085538864,-0.010843859054148197
1772536307499443000,3.59644287109375,-0.008974053896963596,0.0057433731853961945,-0.016645023599267006
1772536307509492200,3.6064921875,-0.015430355444550514,-0.007744206115603447,-0.024351146072149277
1772536307519540000,3.6165400390625,-0.014713965356349945,-0.02190663106739521,-0.02743162401020527
1772536307529588000,3.626587890625,-0.015426892787218094,-0.019767045974731445,-0.027281954884529114
1772536307539637000,3.636636962890625,-0.011271563358604908,-0.009363940916955471,-0.0120087256655097
1772536307549685000,3.64668505859375,-0.01002067606896162,0.003972637467086315,0.0022421153262257576
1772536307559734000,3.656734130859375,-0.00717562111094594,0.017072992399334908,0.01853347010910511
1772536307569782000,3.666781982421875,-0.00768721429631114,0.024049941450357437,0.02371864579617977
1772536307579830000,3.676830078125,-0.00720438314601779,0.01805783063173294,0.024264859035611153
1772536307589879000,3.686879150390625,-0.009017463773488998,0.006921821739524603,0.015718774870038033
1772536307599927000,3.696927001953125,-0.012005796656012535,0.0018181400373578072,0.007195062469691038
1772536307609975000,3.70697509765625,-0.01407560519874096,-0.0024402544368058443,0.0038181741256266832
1772536307620024000,3.717024169921875,-0.013471866957843304,-0.004255997482687235,0.001600559800863266
1772536307630072000,3.727072021484375,-0.012489426881074905,-0.0013520868960767984,-0.001398425898514688
1772536307640120000,3.7371201171875,-0.014475345611572266,0.0010847054654732347,0.0008868326549418271
1772536307650169000,3.747169189453125,-0.01290727686136961,0.007390271872282028,-0.0006410228670574725
1772536307660217000,3.757217041015625,-0.012019644491374493,0.0032197616528719664,-0.006442985497415066
1772536307670264800,3.767264892578125,-0.009156480431556702,-0.00935328844934702,-0.01149633340537548
1772536307680314000,3.777314208984375,-0.00612340634688735,-0.01206971239298582,-0.011861186474561691
1772536307690361900,3.78736181640625,0.0007310376968234777,-0.0025624935515224934,-0.007217166479676962
1772536307700411100,3.7974111328125,0.004800347611308098,0.0043737092055380344,-0.0019883159548044205
1772536307710459000,3.807458984375,0.007701063062995672,0.006566289812326431,0.0033910030033439398
1772536307720507100,3.817507080078125,0.010730142705142498,0.013790912926197052,0.009118929505348206
1772536307730556000,3.827555908203125,0.011183411814272404,0.01161404512822628,0.010205499827861786
1772536307740604000,3.83760400390625,0.010222277604043484,0.005636846646666527,0.0036389431916177273
1772536307750652200,3.847652099609375,0.006908239796757698,-0.0007736482657492161,0.004739894066005945
1772536307760701000,3.857700927734375,0.0037113812286406755,-0.0012551478575915098,0.0013054815353825688
1772536307770749200,3.867749267578125,0.0008966863388195634,-0.006184925325214863,0.004560663364827633
1772536307780797000,3.877796875,-0.0036970002111047506,-0.003093261504545808,0.002049835165962577
1772536307790846200,3.88784619140625,-0.0024738102219998837,-0.0025451830588281155,0.003150519449263811
1772536307800894000,3.89789404296875,-0.004084490239620209,-0.001252484624274075,0.00495134899392724
1772536307810943200,3.907943115234375,-0.0011414308100938797,0.0009973538108170033,0.008973521180450916
1772536307820991000,3.917990966796875,0.0029800771735608578,0.006385461427271366,0.012646553106606007
1772536307831039000,3.9280390625,0.005915679503232241,0.009725864045321941,0.014609302394092083
1772536307841088000,3.938087890625,0.009108543395996094,0.008200937882065773,0.01366174966096878
1772536307851136000,3.948135986328125,0.011923771351575851,0.004098338540643454,0.013562946580350399
1772536307861184000,3.95818408203125,0.015853265300393105,0.006908506155014038,0.009382848627865314
1772536307871233000,3.96823291015625,0.017314808443188667,0.005386775825172663,0.009705624543130398
1772536307881281000,3.978281005859375,0.020624851807951927,0.0070706927217543125,0.01145958248525858
1772536307891329000,3.9883291015625,0.018027203157544136,0.0070792147889733315,0.011382617056369781
1772536307901378000,3.9983779296875,0.01756967231631279,0.004840028937906027,0.005349758081138134
1772536307911426000,4.008426025390625,0.021024858579039574,0.0032551817130297422,0.003500991500914097
1772536307921474800,4.018474853515625,0.01895797811448574,0.0029318740125745535,-0.0019824570044875145
1772536307931523000,4.028523193359375,0.014821290038526058,0.005200887098908424,-0.004442685283720493
1772536307941571000,4.038571044921875,0.009998572058975697,-0.000651675509288907,-0.007923436351120472
1772536307951620000,4.0486201171875,0.010477407835423946,-0.003695402294397354,-0.004929777234792709
1772536307961668000,4.058668212890625,0.007896805182099342,-0.0027864654548466206,-0.001463673310354352
1772536307971715800,4.0687158203125,0.005142297595739365,0.00518837058916688,0.0063063655979931355
1772536307981768400,4.0787685546875,0.004763063509017229,0.010219347663223743,0.015128086321055889
1772536307991816400,4.08881640625,0.01007820013910532,0.020845094695687294,0.023127423599362373
1772536308001864400,4.098864501953125,0.010840930044651031,0.02364860475063324,0.024767132475972176
1772536308011913200,4.108913330078125,0.0037462685722857714,0.0256880521774292,0.025142638012766838
1772536308021961500,4.11896142578125,-0.007674697786569595,0.022480275481939316,0.013245497830212116
1772536308032009500,4.129009521484375,-0.016813067719340324,0.01432221382856369,0.005745769944041967
1772536308042058500,4.13905859375,-0.023489879444241524,0.0067961206659674644,-0.00914582796394825
1772536308052106500,4.1491064453125,-0.022403841838240623,0.0012117383303120732,-0.018667694181203842
1772536308062155500,4.159155517578125,-0.020110594108700752,-0.0023904533591121435,-0.021336181089282036
1772536308072203500,4.16920361328125,-0.0184682235121727,-0.0003515372518450022,-0.017706027254462242
1772536308082251300,4.179251220703125,-0.021813154220581055,0.007743939757347107,-0.008713063783943653
1772536308092300300,4.18930029296875,-0.026645459234714508,0.017543306574225426,-0.0064863949082791805
1772536308102348300,4.199348388671875,-0.02834801748394966,0.014974954538047314,-0.007252320181578398
1772536308112396500,4.209396484375,-0.028599686920642853,0.0014093448407948017,-0.01648416742682457
1772536308122445300,4.2194453125,-0.028712337836623192,-0.014038586989045143,-0.02304539829492569
1772536308132493600,4.22949365234375,-0.026440128684043884,-0.017371799796819687,-0.02111567184329033
1772536308142541300,4.239541259765625,-0.028013259172439575,-0.012713930569589138,-0.013400760479271412
1772536308152590600,4.249590576171875,-0.026081934571266174,0.001142496126703918,-0.0022509037517011166
1772536308162638300,4.259638427734375,-0.02345952019095421,0.021454159170389175,0.013030314818024635
1772536308172686300,4.269686279296875,-0.020590495318174362,0.032766733318567276,0.01848287135362625
1772536308182735400,4.2797353515625,-0.01702452264726162,0.02020886540412903,0.01296453457325697
1772536308192783400,4.289783447265625,-0.012019910849630833,0.010599114932119846,0.009996174834668636
1772536308202832400,4.299832275390625,-0.017102021723985672,0.004148405976593494,-0.002082858234643936
1772536308212880400,4.30988037109375,-0.022495456039905548,-0.00282002124004066,-0.002270078519359231
1772536308222928600,4.3199287109375,-0.028324048966169357,0.00030067088664509356,-0.0008143946761265397
1772536308232977400,4.329977294921875,-0.029254291206598282,0.009440906345844269,0.005209143273532391
1772536308243025400,4.340025390625,-0.03459100052714348,0.012355735525488853,0.009277387522161007
1772536308253073400,4.350073486328125,-0.03164554387331009,0.00806245394051075,0.007583617232739925
1772536308263122400,4.360122314453125,-0.03314037621021271,0.006773217581212521,0.004506867378950119
1772536308273170400,4.37017041015625,-0.03373932093381882,-0.0030274814926087856,-0.0034908715169876814
1772536308283218400,4.380218505859375,-0.03235554322600365,-0.007096258923411369,-0.009631055407226086
1772536308293267500,4.390267333984375,-0.03021329641342163,-0.003126551164314151,-0.008081895299255848
1772536308303315500,4.4003154296875,-0.02480042167007923,0.011167433112859726,-0.006193447392433882
1772536308313364500,4.410364501953125,-0.021991584450006485,0.023802002891898155,-0.00758042186498642
1772536308323412500,4.42041259765625,-0.018515095114707947,0.02118304930627346,-0.012237757444381714
1772536308333460200,4.430460205078125,-0.012702745385468006,0.014564561657607555,-0.016884973272681236
1772536308343509500,4.440509521484375,-0.00824727676808834,0.0014884406700730324,-0.021166803315281868
1772536308353557200,4.45055712890625,-0.009495766833424568,-0.00567093538120389,-0.026620158925652504
1772536308363605500,4.46060546875,-0.01037620846182108,-0.007385478354990482,-0.023600934073328972
1772536308373654300,4.470654296875,-0.013089969754219055,0.0018908443162217736,-0.012289955280721188
1772536308383702500,4.48070263671875,-0.014602910727262497,0.008377771824598312,-0.003373426152393222
1772536308393750500,4.49075048828125,-0.012142417021095753,0.007815312594175339,0.0032945964485406876
1772536308403799600,4.500799560546875,-0.009676862508058548,-0.004493285436183214,0.007420099340379238
1772536308413847600,4.51084765625,-0.008549812249839306,-0.004584631882607937,0.011235077865421772
1772536308423896300,4.520896240234375,-0.006087453570216894,-0.006493585649877787,0.013982661068439484
1772536308433944600,4.530944580078125,-0.005502357147634029,0.0023158849216997623,0.022729814052581787
1772536308443992300,4.540992431640625,-0.0004897553008049726,0.005335377063602209,0.02889236807823181
1772536308454041600,4.55104150390625,0.0023318638559430838,0.010549313388764858,0.027532292529940605
1772536308464089300,4.56108935546875,0.008506935089826584,0.007311975117772818,0.023935692384839058
1772536308474137300,4.571137451171875,0.010595652274787426,0.00222027744166553,0.019782759249210358
1772536308484186400,4.581186279296875,0.008350607939064503,-0.009604157879948616,0.011474229395389557
1772536308494234400,4.591234375,0.009020925499498844,-0.018977684900164604,0.010124272666871548
1772536308504282400,4.601282470703125,0.0018250643042847514,-0.01900351792573929,0.008646751753985882
1772536308514331400,4.611331298828125,-0.00008708536915946752,-0.012688897550106049,0.011583419516682625
1772536308524379400,4.62137939453125,-0.007471764925867319,-0.006253368686884642,0.014826882630586624
1772536308534427400,4.631427490234375,-0.011552526615560055,-0.00418302696198225,0.013145096600055695
1772536308544476400,4.641476318359375,-0.014207432046532631,-0.009755691513419151,0.011405253782868385
1772536308554524400,4.6515244140625,-0.014859906397759914,-0.015478292480111122,0.011603392660617828
1772536308564573400,4.661573486328125,-0.021509019657969475,-0.01161457784473896,0.00990163255482912
1772536308574621400,4.671621337890625,-0.02250664122402668,-0.008153799921274185,0.01200845930725336
1772536308584669400,4.68166943359375,-0.023136211559176445,-0.0033995250705629587,0.010094712488353252
1772536308594718500,4.691718505859375,-0.024159930646419525,-0.001032241270877421,0.00914502888917923
1772536308604766500,4.701766357421875,-0.022056566551327705,0.006996124051511288,0.009560215286910534
1772536308614814500,4.711814453125,-0.02281210571527481,0.009446498937904835,0.005087969359010458
1772536308624863500,4.721863525390625,-0.028867866843938828,0.005650162696838379,0.004256263840943575
1772536308634911200,4.7319111328125,-0.029141640290617943,-0.0028397287242114544,-0.00028868665685877204
1772536308644959500,4.74195947265625,-0.02863856963813305,-0.006931941956281662,-0.002013349672779441
1772536308655008300,4.75200830078125,-0.02316018007695675,-0.014783740043640137,-0.002332130214199424
1772536308665056500,4.762056396484375,-0.02147786132991314,-0.0167387668043375,-0.003519101068377495
1772536308675104300,4.772104248046875,-0.0194914098829031,-0.004878644831478596,0.009428389370441437
1772536308685153500,4.782153564453125,-0.01835104450583458,-0.0008977515972219408,0.015144597738981247
1772536308695201300,4.792201171875,-0.0163616631180048,0.0014082795241847634,0.01830204203724861
1772536308705250600,4.80225048828125,-0.014916897751390934,0.003054911969229579,0.02047065459191799
1772536308715298300,4.81229833984375,-0.016223443672060966,-0.003195527009665966,0.015725966542959213
1772536308725346300,4.82234619140625,-0.014709969982504845,-0.008132228627800941,0.011356517672538757
1772536308735395300,4.832395263671875,-0.00788615271449089,0.00012197277828818187,0.0047058057971298695
1772536308745443300,4.842443359375,-0.015066567808389664,0.0020817930344492197,-0.0025949841365218163
1772536308755491600,4.85249169921875,-0.021522602066397667,0.00011877698125317693,0.012372779659926891
1772536308765540400,4.862540283203125,-0.027512850239872932,0.000547279603779316,0.019657324999570847
1772536308775588600,4.872588623046875,-0.02839994989335537,-0.003942277282476425,0.025593243539333344
1772536308785636400,4.88263623046875,-0.031496938318014145,-0.01107661984860897,0.03178323060274124
1772536308795685600,4.892685546875,-0.030042320489883423,-0.024434769526124,0.03166019171476364
1772536308805733400,4.9027333984375,-0.02334979735314846,-0.026267822831869125,0.025741849094629288
1772536308815782400,4.912782470703125,-0.020562266930937767,-0.01146730501204729,0.02201661840081215
1772536308825830400,4.922830322265625,-0.02804894559085369,-0.00902465358376503,0.019471701234579086
1772536308835878400,4.93287841796875,-0.024159930646419525,-0.006985471583902836,0.01413659192621708
1772536308845927400,4.942927490234375,-0.024582574144005775,-0.0031766186002641916,0.010041715577244759
1772536308855975400,4.952975341796875,-0.020170781761407852,-0.0022359900176525116,0.009743707254529
1772536308866023400,4.9630234375,-0.01739310473203659,0.0013664679136127234,0.006626743823289871
1772536308876072400,4.973072509765625,-0.01876649633049965,0.0016532903537154198,0.004108192399144173
1772536308886120200,4.9831201171875,-0.018922291696071625,-0.0027417242527008057,0.0027542412281036377
1772536308896168400,4.99316845703125,-0.020296482369303703,-0.0002663161139935255,0.0019206717843189836
1772536308906217200,5.00321728515625,-0.019822973757982254,-0.0006809702608734369,0.004772118292748928
1772536308916265500,5.013265380859375,-0.016638098284602165,0.0026320021133869886,0.00905607920140028
1772536308926313500,5.0233134765625,-0.015968846157193184,0.012632171623408794,0.013767477124929428
1772536308936362500,5.033362548828125,-0.016581639647483826,0.016633039340376854,0.017826134338974953
1772536308946410500,5.043410400390625,-0.01299542747437954,0.01011095754802227,0.013744041323661804
1772536308956459500,5.05345947265625,-0.009552759118378162,0.005014199763536453,0.009466472081840038
1772536308966507500,5.063507568359375,-0.007917577400803566,0.008348477073013783,0.008925584144890308
1772536308976555300,5.07355517578125,-0.005130046978592873,0.01133920717984438,-0.00018322547839488834
1772536308986600700,5.0836005859375,-0.0052323127165436745,0.015018630772829056,-0.0073228939436376095
1772536308996648400,5.0936484375,-0.0019329222850501537,0.015110243111848831,-0.010191118344664574
1772536309006696400,5.103696533203125,0.0014327806420624256,0.01775050163269043,-0.011751997284591198
1772536309016745500,5.113745361328125,0.004977980628609657,0.026370353996753693,-0.010833739303052425
1772536309026793500,5.12379345703125,0.009281382896006107,0.018863702192902565,-0.01629455015063286
1772536309036841700,5.133841796875,0.012631905265152454,0.01158421766012907,-0.01901283860206604
1772536309046890500,5.143890380859375,0.013261210173368454,0.013874536380171776,-0.016224775463342667
1772536309056938800,5.153938720703125,0.010218283161520958,0.009127718396484852,-0.0156474020332098
1772536309066986500,5.163986572265625,0.010630007833242416,0.015439942479133606,-0.008194014430046082
1772536309077035500,5.174035400390625,0.005791310220956802,0.03399525210261345,-0.004539624322205782
1772536309087083500,5.18408349609375,0.010967962443828583,0.033852506428956985,0.0036791570018976927
1772536309097132500,5.194132568359375,0.006403038278222084,0.021705029532313347,0.0033390712924301624
1772536309107180500,5.2041806640625,0.005376389715820551,0.008344216272234917,-0.002808036981150508
1772536309117228500,5.214228515625,0.0033742249943315983,0.020742828026413918,-0.001591505017131567
1772536309127277600,5.224277587890625,0.006375873927026987,0.024651017040014267,0.007923436351120472
1772536309137325600,5.23432568359375,0.009578058496117592,0.012051070109009743,0.01261166576296091
1772536309147373300,5.244373291015625,0.010926417075097561,-0.0025632926262915134,0.009669671766459942
1772536309157422600,5.254422607421875,0.014371482655405998,0.008224906399846077,0.010013218969106674
1772536309167470300,5.26447021484375,0.014036457054316998,0.022595856338739395,0.01744796521961689
1772536309177518600,5.2745185546875,0.015005581080913544,0.015114503912627697,0.018910840153694153
1772536309187567400,5.2845673828125,0.015752065926790237,0.006971622817218304,0.0158854890614748
1772536309197615600,5.29461572265625,0.012028433382511139,0.006322077941149473,0.015675632283091545
1772536309207664400,5.304664306640625,0.009847836568951607,0.008409730158746243,0.015989352017641068
1772536309217712600,5.314712646484375,0.009236907586455345,0.007712514605373144,0.02129783108830452
1772536309227760600,5.3247607421875,0.0020540961995720863,0.011521367356181145,0.026733342558145523
1772536309237808400,5.334808349609375,-0.001371527905575931,0.019830962643027306,0.027944017201662064
1772536309247857700,5.344857666015625,-0.007529022637754679,0.019095929339528084,0.022821692749857903
1772536309257905400,5.354905517578125,-0.013177854008972645,0.008448878303170204,0.01780722662806511
1772536309267954700,5.36495458984375,-0.009788980707526207,-0.0010982876410707831,0.010635600425302982
1772536309278002400,5.37500244140625,-0.010647318325936794,0.0014242585748434067,0.00472391489893198
1772536309288050700,5.38505078125,-0.008718390017747879,0.007296528667211533,0.0033065807074308395
1772536309298099500,5.395099365234375,-0.008416654542088509,0.014739264734089375,0.004518318921327591
1772536309308147500,5.4051474609375,-0.011979164555668831,0.020506607368588448,0.0012956279097124934
1772536309318195500,5.415195556640625,-0.020199278369545937,0.017222397029399872,-0.007879761047661304
1772536309328244500,5.425244384765625,-0.02533012442290783,0.004434429574757814,-0.016865000128746033
1772536309338292500,5.43529248046875,-0.029021797701716423,-0.010076070204377174,-0.02165096625685692
1772536309348340500,5.445340576171875,-0.0309283547103405,-0.006997988559305668,-0.022914903238415718
1772536309358389500,5.455389404296875,-0.03416356444358826,0.0023497070651501417,-0.020496485754847527
1772536309368437500,5.4654375,-0.036981720477342606,0.009493636898696423,-0.015590943396091461
1772536309378485500,5.475485595703125,-0.03864086791872978,0.007210508454591036,-0.010343184694647789
1772536309388534500,5.485534423828125,-0.03795590251684189,0.0028823392931371927,-0.007190534844994545
1772536309398582500,5.49558251953125,-0.03302106633782387,0.0075663067400455475,-0.008186024613678455
1772536309408630500,5.505630615234375,-0.02942340262234211,0.011712316423654556,-0.00746217742562294
1772536309418679600,5.515679443359375,-0.026615630835294724,0.024157000705599785,-0.0024567660875618458
1772536309428727600,5.5257275390625,-0.02677701972424984,0.031019434332847595,0.0054701329208910465
1772536309438776600,5.535776611328125,-0.02901593968272209,0.0259301345795393,0.017499631270766258
1772536309448824600,5.545824462890625,-0.028149612247943878,0.020686103031039238,0.021770276129245758
1772536309458872600,5.55587255859375,-0.02213379740715027,0.016462063416838646,0.026735207065939903
1772536309468921300,5.56592138671875,-0.022969497367739677,0.01878194324672222,0.027510453015565872
1772536309478969600,5.575969482421875,-0.011257980950176716,0.0007874967413954437,0.025606026872992516
1772536309489017600,5.586017578125,-0.014287859201431274,0.00754979532212019,0.032645296305418015
1772536309499066600,5.596066650390625,-0.011285943910479546,0.0124207166954875,0.03573988750576973
1772536309509114600,5.606114501953125,-0.006685599684715271,0.01088646985590458,0.03683631122112274
1772536309519162600,5.61616259765625,-0.004764128942042589,0.01804558001458645,0.03573988750576973
1772536309529211600,5.626211669921875,-0.0016085492679849267,0.024452878162264824,0.0348874107003212
1772536309539259400,5.63625927734375,-0.0010761833982542157,0.03171665221452713,0.03152143955230713
1772536309549308400,5.646308349609375,-0.0014229270163923502,0.02678367681801319,0.023516511544585228
1772536309559356400,5.6563564453125,-0.004918325692415237,0.017420269548892975,0.013558685779571533
1772536309569404700,5.66640478515625,-0.013380253687500954,0.008854211308062077,0.0049039446748793125
1772536309579453400,5.676453369140625,-0.014888135716319084,0.0008175904513336718,-0.004789162427186966
1772536309589501700,5.686501708984375,-0.015482286922633648,0.0030394657514989376,-0.007450725883245468
1772536309599549400,5.696549560546875,-0.01768685132265091,0.014214355498552322,-0.005617672111839056
1772536309609598700,5.7065986328125,-0.020228838548064232,0.01991298794746399,-0.002031192881986499
1772536309619646500,5.716646484375,-0.019895676523447037,0.019698603078722954,-0.0004814995336346328
1772536309629694500,5.726694580078125,-0.017647171393036842,0.01985626295208931,-0.0023790018167346716
1772536309639743500,5.736743408203125,-0.01549640204757452,0.02208692580461502,0.0010250506456941366
1772536309649791500,5.74679150390625,-0.016116119921207428,0.029561620205640793,-0.0036336169578135014
1772536309659839700,5.75683984375,-0.014929947443306446,0.03731541335582733,-0.0049558766186237335
1772536309669888500,5.766888427734375,-0.013285445049405098,0.037213947623968124,-0.008696019649505615
1772536309679936800,5.776936767578125,-0.009616142138838768,0.03280987963080406,-0.011754926294088364
1772536309689985500,5.786985595703125,-0.00941986683756113,0.024329042062163353,-0.01852388307452202
1772536309700033500,5.797033447265625,-0.004324707202613354,0.014222345314919949,-0.023622505366802216
1772536309710081500,5.80708154296875,-0.006454437039792538,0.008075503632426262,-0.02143019065260887
1772536309720130600,5.817130615234375,-0.0029790119733661413,0.0162988118827343,-0.013653494417667389
1772536309730178600,5.827178466796875,-0.002692455891519785,0.01763199083507061,-0.01338984165340662
1772536309740226600,5.8372265625,0.00043542683124542236,0.02418176829814911,-0.0006261091912165284
1772536309750275600,5.847275634765625,0.002435727044939995,0.02527180127799511,0.011063303798437119
1772536309760323600,5.857323486328125,-0.0014436995843425393,0.02515062689781189,0.015721971169114113
1772536309770371300,5.867371337890625,0.0010309095960110426,0.015963254496455193,0.01878407411277294
1772536309780420600,5.877420654296875,0.0030282805673778057,0.01477814745157957,0.01996758207678795
1772536309790468400,5.88746826171875,-0.001047421246767044,0.015246330760419369,0.018799787387251854
1772536309800516600,5.8975166015625,-0.0027321369852870703,0.011313640512526035,0.01629961095750332
1772536309810565400,5.9075654296875,-0.008431567810475826,0.006235259119421244,0.017530523240566254
1772536309820613600,5.917613525390625,-0.01507029589265585,0.00048655952559784055,0.009795638732612133
1772536309830662400,5.927662353515625,-0.019028285518288612,-0.008773517794907093,0.009874468669295311
1772536309840710700,5.937710693359375,-0.02039848268032074,-0.002168878447264433,0.01399011816829443
1772536309850758700,5.947758544921875,-0.01775742508471012,0.007360178045928478,0.023334616795182228
1772536309860807700,5.9578076171875,-0.024751951918005943,0.0026402578223496675,0.021950572729110718
1772536309870855700,5.967855712890625,-0.01991245523095131,-0.000290018244413659,0.018204037100076675
1772536309880903400,5.9779033203125,-0.018067684024572372,0.0070616379380226135,0.01762852817773819
1772536309890952700,5.98795263671875,-0.012582903727889061,0.011401524767279625,0.011551993899047375
1772536309901000400,5.99800048828125,-0.01002094242721796,0.012189820408821106,0.013081447221338749
1772536309911048700,6.008048583984375,-0.007119961082935333,0.011785020120441914,0.0054490938782691956
1772536309921097500,6.018097412109375,-0.013411945663392544,0.012005530297756195,0.004415520932525396
1772536309931145500,6.0281455078125,-0.02105868048965931,0.001751827308908105,-0.0007946872501634061
1772536309941194500,6.038194580078125,-0.02749420888721943,-0.00475534051656723,-0.007477091159671545
1772536309951242500,6.048242431640625,-0.03440191596746445,-0.0015219965716823936,-0.0089404983446002
1772536309961290500,6.05829052734375,-0.042269691824913025,0.007031810469925404,-0.00008655273268232122
1772536309971339500,6.068339599609375,-0.042263567447662354,0.015629293397068977,0.0029401297215372324
1772536309981387500,6.078387451171875,-0.040170855820178986,0.027513649314641953,-0.0024229439441114664
1772536309991436000,6.08843603515625,-0.03931092098355293,0.02803163416683674,-0.003846936160698533
1772536310001485000,6.098485107421875,-0.042148783802986145,0.02310798317193985,-0.006108758971095085
1772536310011533000,6.108532958984375,-0.03940892592072487,0.023987891152501106,-0.014312094077467918
1772536310021581000,6.1185810546875,-0.03993676230311394,0.0201614610850811,-0.02472159080207348
1772536310031630000,6.128630126953125,-0.03597744181752205,0.015016499906778336,-0.03153635561466217
1772536310041677800,6.138677734375,-0.027349598705768585,0.017402425408363342,-0.029503829777240753
1772536310051726000,6.14872607421875,-0.02622814103960991,0.017167001962661743,-0.02796958200633526
1772536310061774800,6.15877490234375,-0.021705828607082367,0.016234364360570908,-0.022294387221336365
1772536310071823000,6.168822998046875,-0.019454125314950943,0.027187945321202278,-0.008951417170464993
1772536310081872000,6.178871826171875,-0.019707923755049706,0.02497272752225399,-0.0019430422689765692
1772536310091920100,6.188920166015625,-0.014170680195093155,0.014126737602055073,-0.0009302421822212636
1772536310101968100,6.198968017578125,-0.010640393942594528,0.011095261201262474,0.0034432008396834135
1772536310112017200,6.20901708984375,-0.007049920037388802,0.007501325570046902,0.0028242822736501694
1772536310122065200,6.219065185546875,-0.0018969696247950196,0.005253884010016918,0.0048829056322574615
1772536310132113000,6.22911279296875,0.004743888974189758,0.005851763766258955,0.015628227964043617
1772536310142162200,6.239162109375,0.008739429526031017,0.012425510212779045,0.019693544134497643
1772536310152210000,6.2492099609375,0.013382384553551674,0.018554242327809334,0.028447354212403297
1772536310162258200,6.259258056640625,0.014007162302732468,0.022601716220378876,0.030254840850830078
1772536310172307000,6.269306884765625,0.017621604725718498,0.016097743064165115,0.02587021328508854
1772536310182355000,6.27935498046875,0.019896475598216057,0.007056844420731068,0.021441642194986343
1772536310192403200,6.2894033203125,0.01924826204776764,0.0046181874349713326,0.018385665491223335
1772536310202452000,6.299451904296875,0.014552311040461063,-0.0003552656853571534,0.016084693372249603
1772536310212500000,6.3095,0.011003116145730019,0.0007989483419805765,0.02040194347500801
1772536310222548000,6.3195478515625,0.009523730725049973,0.004789961501955986,0.019110310822725296
1772536310232597000,6.329596923828125,0.007098655682057142,0.002832271857187152,0.017850369215011597
1772536310242645000,6.33964501953125,0.01010802760720253,0.0006985471700318158,0.015676431357860565
1772536310252694000,6.349694091796875,0.0049510826356709,-0.0029699571896344423,0.011283546686172485
1772536310262742000,6.359741943359375,0.0027177559677511454,0.0004247741890139878,0.004287156742066145
1772536310272790000,6.3697900390625,-0.0005400890368036926,-0.0007635282818228006,-0.002668753731995821
1772536310282839000,6.379839111328125,-0.0035920715890824795,-0.0006985471700318158,-0.010031062178313732
1772536310292887000,6.389886962890625,-0.004335626028478146,-0.004904477391391993,-0.01236079540103674
1772536310302935000,6.39993505859375,-0.005979329347610474,-0.0018458369886502624,-0.01968049444258213
1772536310312984000,6.409984130859375,-0.012502475641667843,0.0023158849216997623,-0.013748569414019585
1772536310323032000,6.420031982421875,-0.019576098769903183,0.008106395602226257,-0.015596004202961922
1772536310333080000,6.430080078125,-0.02683720737695694,0.011607653461396694,-0.013279852457344532
1772536310343129000,6.440129150390625,-0.03373932093381882,0.012702212668955326,-0.0022245384752750397
1772536310353177000,6.450177001953125,-0.04071600362658501,0.01763492077589035,0.01164760161191225
1772536310363225000,6.46022509765625,-0.03904753550887108,0.022756177932024002,0.018637865781784058
1772536310373274000,6.470274169921875,-0.032774992287158966,0.0255783312022686,0.019522834569215775
1772536310383322000,6.480322021484375,-0.015965916216373444,0.011273693293333054,0.012115518562495708
1772536310393371100,6.49037109375,-0.01236479077488184,0.013802098110318184,0.02582573890686035
1772536310403419100,6.500419189453125,-0.014105699025094509,0.017670340836048126,0.023854998871684074
1772536310413467000,6.510466796875,-0.001987250754609704,0.004511395003646612,0.012631372548639774
1772536310423516200,6.52051611328125,0.004569185432046652,0.005569468718022108,0.008672317489981651
1772536310433564000,6.53056396484375,0.004882373381406069,0.004333495628088713,0.007785751484334469
1772536310443612200,6.540612060546875,0.00806058943271637,0.008747951127588749,0.004723649006336927
1772536310453661000,6.550660888671875,0.013845774345099926,0.007395331747829914,-0.001582716591656208
1772536310463709200,6.560709228515625,0.011331217363476753,0.01642371341586113,0.003626160090789199
1772536310473757000,6.5707568359375,0.007168164476752281,0.013512346893548965,-0.0005499427788890898
1772536310483806200,6.58080615234375,0.0022274679504334927,-0.0065529742278158665,-0.00884835235774517
1772536310493854000,6.59085400390625,0.0013579458463937044,-0.010661166161298752,-0.014481204561889172
1772536310503902000,6.60090185546875,-0.001591771375387907,-0.002965429797768593,-0.016211194917559624
1772536310513951000,6.610950927734375,0.003226952161639929,0.00558118661865592,-0.016325177624821663
1772536310523999000,6.6209990234375,0.005833121482282877,0.006638461723923683,-0.014737666584551334
1772536310534047200,6.631047119140625,-0.0003153182624373585,0.0017033577896654606,-0.01955372840166092
1772536310544096000,6.641095947265625,-0.002573412610217929,0.003796336008235812,-0.023368971422314644
1772536310554144300,6.651144287109375,-0.0020777983590960503,-0.00152306177187711,-0.03617345169186592
1772536310564193000,6.661193115234375,-0.003409911412745714,-0.007177751511335373,-0.03151717782020569
1772536310574241000,6.671240966796875,-0.004028031136840582,-0.009641974233090878,-0.026318157091736794
1772536310584289000,6.6812890625,-0.0023313311394304037,-0.002671150490641594,-0.023061376065015793
1772536310594338000,6.691338134765625,0.0010716560063883662,-0.0028929917607456446,-0.020834974944591522
1772536310604386000,6.701385986328125,0.007767375558614731,0.0033939324785023928,-0.01363431941717863
1772536310614434000,6.71143408203125,0.00875061471015215,0.00887817982584238,-0.00481206551194191
1772536310624483000,6.721483154296875,0.0014381069922819734,0.00881905760616064,0.004530036821961403
1772536310634531000,6.731531005859375,-0.001383512164466083,0.007459514308720827,0.007547398563474417
1772536310644578800,6.741578857421875,-0.0005755090969614685,0.016283364966511726,0.009302687831223011
1772536310654628000,6.751628173828125,-0.005423794034868479,0.011868909932672977,0.011157047003507614
1772536310664675800,6.76167578125,-0.00547386147081852,-0.0021611552219837904,0.005992112215608358
1772536310674724000,6.77172412109375,-0.00430127140134573,-0.008378304541110992,-0.0037523938808590174
1772536310684772900,6.78177294921875,-0.0024591628462076187,-0.015394669026136398,0.0005113269435241818
1772536310694821000,6.791821044921875,-0.005840045865625143,-0.008347677998244762,-0.003579821204766631
1772536310704870000,6.801869873046875,-0.00563977612182498,-0.004974518436938524,-0.0051779840141534805
1772536310714918100,6.811918212890625,0.0002031991898547858,-0.0027680895291268826,-0.003578489413484931
1772536310724966100,6.821966064453125,-0.0011675298446789384,0.00814847368746996,0.000046072687837295234
1772536310735015200,6.83201513671875,0.00023169501218944788,0.009534116834402084,-0.0044983453117311
1772536310745063200,6.842063232421875,-0.002930542454123497,0.006105563137680292,-0.00430020596832037
1772536310755111000,6.85211083984375,-0.005399559158831835,0.013232980854809284,0.00019654128118418157
1772536310765160200,6.86216015625,-0.010603109374642372,0.0187838077545166,-0.0001661812566453591
1772536310775208000,6.8722080078125,-0.012766661122441292,0.017781127244234085,-0.002415487077087164
1772536310785256200,6.882256103515625,-0.01587829925119877,0.016918795183300972,-0.005838980432599783
1772536310795305000,6.892304931640625,-0.018098043277859688,0.011442803777754307,-0.008870190940797329
1772536310805353000,6.90235302734375,-0.02099476382136345,0.0030778152868151665,-0.01715741492807865
1772536310815401000,6.91240087890625,-0.019716979935765266,0.0021078919526189566,-0.019340675324201584
1772536310825450000,6.922449951171875,-0.020897291600704193,0.014013553969562054,-0.018872223794460297
1772536310835498000,6.932498046875,-0.02665158361196518,0.013063071295619011,-0.01446922030299902
1772536310845546000,6.9425458984375,-0.023971112444996834,0.012241220101714134,-0.011380219832062721
1772536310855595000,6.952594970703125,-0.024102140218019485,0.006146309431642294,-0.012343751266598701
1772536310865643000,6.96264306640625,-0.022066153585910797,-0.0037939392495900393,-0.011203385889530182
1772536310875692000,6.972692138671875,-0.014596785418689251,-0.0032357405871152878,-0.009673666208982468
1772536310885740000,6.982739990234375,-0.010026535019278526,0.0051289820112288,-0.003936151973903179
1772536310895788000,6.9927880859375,-0.007441404741257429,0.010721353814005852,-0.0020996362436562777
1772536310905837000,7.002837158203125,-0.008295746520161629,0.000597879639826715,0.0007613977650180459
1772536310915885000,7.012885009765625,-0.003919640555977821,0.0013464941876009107,0.0011073424248024821
1772536310925933000,7.02293310546875,-0.005506884306669235,0.0016309198690578341,0.009922938421368599
1772536310935982000,7.032982177734375,-0.009030246175825596,0.00021411814668681473,0.007902930490672588
1772536310946030000,7.043030029296875,-0.0037878139410167933,-0.005299424286931753,0.007422496099025011
1772536310956078000,7.053078125,-0.0017483652336522937,0.005057342816144228,0.007988417521119118
1772536310966127000,7.063127197265625,-0.0017720673931762576,0.011183944530785084,0.014814365655183792
1772536310976175000,7.073175048828125,-0.002695385366678238,0.010698717087507248,0.013483851216733456
1772536310986223400,7.083223388671875,-0.0028160265646874905,0.0052083441987633705,0.008833439089357853
1772536310996272600,7.093272705078125,-0.0054970309138298035,0.0031997880432754755,0.008273109793663025
1772536311006320400,7.1033203125,-0.009762349538505077,0.008971923030912876,0.005308212712407112
1772536311016368600,7.11336865234375,-0.008490157313644886,0.011125621385872364,0.00418382603675127
1772536311026417400,7.12341748046875,-0.009661149233579636,0.0075194351375103,0.0016192019684240222
1772536311036465700,7.133465576171875,-0.00842437706887722,0.010034791193902493,-0.0021228056866675615
1772536311046514400,7.143514404296875,-0.008642756380140781,0.011945076286792755,-0.0033334787003695965
1772536311056562400,7.1535625,-0.009445966221392155,0.01193975005298853,-0.006622482556849718
1772536311066610700,7.163610595703125,-0.00914662703871727,0.010084858164191246,-0.013014867901802063
1772536311076659500,7.173659423828125,-0.007150587625801563,0.010669955052435398,-0.015047392807900906
1772536311086707700,7.183707763671875,-0.007751662749797106,0.007156978826969862,-0.023480558767914772
1772536311096755500,7.19375537109375,-0.007872570306062698,0.004680505488067865,-0.025014007464051247
1772536311106804700,7.2038046875,-0.008973254822194576,0.00504029868170619,-0.02401212602853775
1772536311116852500,7.2138525390625,-0.00740385428071022,0.009940781630575657,-0.0254539605230093
1772536311126900500,7.223900390625,-0.007419300265610218,0.012662531808018684,-0.021252823993563652
1772536311136949500,7.233949462890625,-0.010326939634978771,0.020808342844247818,-0.017549432814121246
1772536311146997500,7.24399755859375,-0.008317585103213787,0.01447161752730608,-0.01395736075937748
1772536311157045500,7.25404541015625,-0.009349825792014599,0.010516556911170483,-0.014117949642241001
1772536311167094500,7.264094482421875,-0.0008165251929312944,0.0123056685552001,-0.012316054664552212
1772536311177142500,7.274142578125,0.0056922403164207935,0.02257002331316471,-0.011207113973796368
1772536311187191600,7.284191650390625,0.0032402679789811373,0.02647128887474537,-0.0030240193009376526
1772536311197239600,7.294239501953125,-0.0006117281154729426,0.028630578890442848,-0.006434463430196047
1772536311207287600,7.30428759765625,-0.006505303550511599,0.02509496733546257,-0.006015548016875982
1772536311217336600,7.314336669921875,-0.009499229490756989,0.020676249638199806,-0.007802529260516167
1772536311227384600,7.324384521484375,-0.009155148640275002,0.018520686775445938,-0.008776979520916939
1772536311237432600,7.3344326171875,-0.008014783263206482,0.01709083653986454,-0.014591459184885025
1772536311247481600,7.344481689453125,-0.008197476156055927,0.016869261860847473,-0.011832690797746181
1772536311257529600,7.354529541015625,-0.009312009438872337,0.025607092306017876,-0.004857073072344065
1772536311267577600,7.36457763671875,-0.013971209526062012,0.033902306109666824,0.004188353195786476
1772536311277626600,7.374626708984375,-0.014309963211417198,0.03609834983944893,0.00279046013019979
1772536311287674400,7.38467431640625,-0.007162305526435375,0.03488714247941971,0.0028458540327847004
1772536311297722600,7.39472265625,-0.003093261504545808,0.03253663703799248,-0.002669020090252161
1772536311307771400,7.404771484375,-0.001449025934562087,0.02564357779920101,-0.008615858852863312
1772536311317819600,7.414819580078125,-0.003299922915175557,0.011265171691775322,-0.01655340939760208
1772536311327867400,7.424867431640625,-0.006610498297959566,0.0173193346709013,-0.013884922489523888
1772536311337916700,7.434916748046875,-0.012560267001390457,0.01210007257759571,-0.007681088987737894
1772536311347964400,7.44496435546875,-0.011365040205419064,0.015055648051202297,-0.005970540922135115
1772536311358012400,7.455012451171875,-0.006742591038346291,0.01992816850543022,-0.0026320021133869886
1772536311368061400,7.4650615234375,-0.002073537092655897,0.02787211164832115,0.0038008634001016617
1772536311378109400,7.475109375,-0.0017177389236167073,0.03327753022313118,0.004025368019938469
1772536311388158500,7.485158447265625,-0.00467651104554534,0.021381987258791924,0.009225988760590553
1772536311398206500,7.49520654296875,-0.0003009371866937727,0.018734272569417953,0.002947852946817875
1772536311408254700,7.505254638671875,-0.0012841762509196997,0.022306904196739197,-0.000291616132017225
1772536311418303500,7.515303466796875,-0.006420348770916462,0.017435183748602867,0.010016148909926414
1772536311428351700,7.525351806640625,-0.008286159485578537,0.016834108158946037,0.006508233025670052
1772536311438399500,7.5353994140625,-0.005770537536591291,0.017885789275169373,0.005922071170061827
1772536311448448800,7.54544873046875,-0.0062584285624325275,0.022538864985108376,0.008448878303170204
1772536311458496500,7.55549658203125,-0.009767675772309303,0.022904250770807266,0.013608752749860287
1772536311468544500,7.56554443359375,-0.011866246350109577,0.01685461401939392,0.013166934251785278
1772536311478593500,7.575593505859375,-0.00743261631578207,0.007648598402738571,0.003079146845266223
1772536311488641500,7.5856416015625,-0.003612311789765954,0.003569967346265912,-0.0005089300684630871
1772536311498689500,7.595689453125,-0.0033811493776738644,0.007964715361595154,0.007650995627045631
1772536311508738600,7.605738525390625,-0.010121077299118042,0.009493370540440083,0.004256796557456255
1772536311518786300,7.615786376953125,-0.011333614587783813,0.004968126770108938,0.00019494339358061552
1772536311528835600,7.625835693359375,-0.010071010328829288,0.007722634356468916,-0.004335093777626753
1772536311538883300,7.63588330078125,-0.009125054813921452,0.016572585329413414,-0.0009648632840253413
1772536311548931600,7.645931640625,-0.011184477247297764,0.014317953027784824,-0.003334543900564313
1772536311558980400,7.65598046875,-0.014854580163955688,0.005948170088231564,-0.011789015494287014
1772536311569028600,7.666028564453125,-0.013748835772275925,-0.0026517093647271395,-0.01685754396021366
1772536311579076600,7.67607666015625,-0.018033329397439957,0.00446931691840291,-0.010692325420677662
1772536311589125600,7.686125732421875,-0.025132516399025917,0.01142895594239235,-0.007614510133862495
1772536311599173600,7.696173583984375,-0.02599591389298439,0.0008247809601016343,-0.010750914923846722
1772536311609221400,7.706221435546875,-0.0182248093187809,0.0054152715019881725,-0.0064863949082791805
1772536311619270700,7.716270751953125,-0.018097510561347008,0.012436961755156517,0.006863232236355543
1772536311629318400,7.726318359375,-0.016927585005760193,0.014701714739203453,0.008195878006517887
1772536311639366700,7.73636669921875,-0.013342170976102352,0.006618488114327192,-0.0011922972043976188
1772536311649415400,7.74641552734375,-0.0033779535442590714,-0.005398493725806475,0.0032807481475174427
1772536311659463700,7.756463623046875,-0.002124669961631298,0.014901451766490936,0.022186528891324997
1772536311669511700,7.76651171875,-0.00583764910697937,0.020004067569971085,0.029350431635975838
1772536311679560400,7.776560546875,0.0007494135061278939,0.009018528275191784,0.023372966796159744
1772536311689608400,7.7866083984375,0.007217965554445982,0.00688959751278162,0.02363928221166134
1772536311699656400,7.796656494140625,0.01022520661354065,0.006057892460376024,0.021632058545947075
1772536311709705500,7.80670556640625,0.0073415362276136875,0.007894674316048622,0.02533438429236412
1772536311719753500,7.81675341796875,0.008434764109551907,0.012680641375482082,0.018613897264003754
1772536311729802500,7.826802490234375,0.009487777948379517,0.02123551443219185,0.014645255170762539
1772536311739850500,7.8368505859375,0.0075718993321061134,0.022354574874043465,0.016932111233472824
1772536311749898500,7.8468984375,0.0038477350026369095,0.02009142003953457,0.010026535019278526
1772536311759947500,7.856947509765625,0.0016021577175706625,0.017231451347470284,-0.0018967032665386796
1772536311769995500,7.86699560546875,0.006680805701762438,0.009504555724561214,0.00004713794987765141
1772536311780043500,7.87704345703125,0.0014112089993432164,0.01672358624637127,0.0052139367908239365
1772536311790092500,7.887092529296875,-0.0031425300985574722,0.01576751098036766,-0.0028069717809557915
1772536311800140500,7.897140625,-0.001085770782083273,0.013285977765917778,-0.013551495037972927
1772536311810188500,7.9071884765625,0.0005366269615478814,0.01543221902102232,-0.008541024290025234
1772536311820237600,7.917237548828125,-0.002582201035693288,0.015066035091876984,-0.004090615548193455
1772536311830285600,7.92728564453125,0.0018935075495392084,0.019826434552669525,-0.004530835896730423
1772536311840333600,7.93733349609375,0.0026695525739341974,0.025070998817682266,0.005948436446487904
1772536311850382600,7.947382568359375,0.007696801796555519,0.02947906218469143,0.0049039446748793125
1772536311860430600,7.9574306640625,0.0049377670511603355,0.029957633465528488,0.007765777874737978
1772536311870478600,7.967478515625,0.0007198524544946849,0.02876932919025421,0.00096113485051319
1772536311880527600,7.977527587890625,-0.0036815537605434656,0.021875737234950066,-0.005676261615008116
1772536311890575600,7.98757568359375,-0.0026730147656053305,0.013255351223051548,-0.017620006576180458
1772536311900623600,7.99762353515625,-0.00561048137024045,-0.0015164038632065058,-0.0292953047901392
1772536311910672400,8.00767236328125,-0.004299940075725317,-0.0041159153915941715,-0.024517593905329704
1772536311920720600,8.017720703125,-0.002682868391275406,-0.0018722022650763392,-0.026667829602956772
1772536311930769400,8.027769287109376,-0.0008689894457347691,0.008732505142688751,-0.019903667271137238
1772536311940817700,8.037817626953125,-0.0013126720441505313,0.013560550287365913,-0.014403173699975014
1772536311950865400,8.047865478515625,-0.00003435477628954686,0.015752332285046577,-0.006934605073183775
1772536311960914700,8.057914794921874,0.00025592977181077003,0.019205385819077492,-0.007487210910767317
1772536311970962400,8.06796240234375,0.001330249011516571,0.019286345690488815,-0.009332515299320221
1772536311981010400,8.078010498046876,-0.0015792545164003968,0.014149374328553677,-0.012229235842823982
1772536311991059000,8.088058837890625,-0.006455236114561558,0.009608418680727482,-0.01209581084549427
1772536312001107000,8.09810693359375,-0.012092881835997105,0.0038932752795517445,-0.015456720255315304
1772536312011155200,8.1081552734375,-0.01329663023352623,0.0031156321056187153,-0.01068060752004385
1772536312021204000,8.118203857421875,-0.015369102358818054,0.000010120012120751198,-0.005063734482973814
1772536312031252200,8.128252197265626,-0.01435257401317358,0.007891478948295116,0.003556119045242667
1772536312041300000,8.138300048828125,-0.013844975270330906,0.01720934733748436,0.002719353651627898
1772536312051349200,8.148349365234376,-0.0101362569257617,0.01775955595076084,0.005073055624961853
1772536312061397000,8.15839697265625,-0.01119273342192173,0.0159510038793087,0.005653890781104565
1772536312071445000,8.168445068359375,-0.010237457230687141,0.007193997036665678,0.00133850472047925
1772536312081494000,8.178493896484374,-0.012120312079787254,0.009317602030932903,-0.0023212111555039883
1772536312091542000,8.1885419921875,-0.011119762435555458,0.01817341148853302,-0.004157194402068853
1772536312101590300,8.19859033203125,-0.007378820329904556,0.02586621791124344,-0.005840844940394163
1772536312111639000,8.20863916015625,-0.011396464891731739,0.025116804987192154,-0.012428972870111465
1772536312121687300,8.218687255859376,-0.007988417521119118,0.01877768151462078,-0.018878882750868797
1772536312131736000,8.228736083984375,-0.008382831700146198,0.008263522759079933,-0.026004968211054802
1772536312141784000,8.2387841796875,-0.007364972028881311,0.007442203816026449,-0.030483873561024666
1772536312151832000,8.24883203125,-0.007553257513791323,0.004234426189213991,-0.02743775025010109
1772536312161881000,8.258881103515625,-0.006720220670104027,0.007223824504762888,-0.028975192457437515
1772536312171929000,8.26892919921875,-0.0070858728140592575,0.01133707631379366,-0.02515994757413864
1772536312181977000,8.27897705078125,-0.005274656694382429,0.01804584637284279,-0.013658287934958935
1772536312192026000,8.289026123046876,-0.007981494069099426,0.022059762850403786,-0.007268831599503756
1772536312202074000,8.29907421875,-0.002817624481394887,0.021077854558825493,-0.0019262643763795495
1772536312212122000,8.3091220703125,-0.0005070658517070115,0.021518608555197716,-0.0009504822082817554
1772536312222171100,8.319171142578124,0.0034618431236594915,0.018466891720891,-0.0021521004382520914
1772536312232219000,8.329218994140625,0.007810518611222506,0.014374145306646824,-0.0034432008396834135
1772536312242267100,8.33926708984375,0.007495999336242676,0.011768508702516556,-0.0008564725867472589
1772536312252316000,8.34931591796875,0.00509968725964427,0.01625087484717369,0.00427250936627388
1772536312262364200,8.3593642578125,0.0005749764968641102,0.01678430661559105,0.006733270362019539
1772536312272412200,8.369412109375,0.0019371833186596632,0.01810550130903721,0.004568119999021292
1772536312282461200,8.379461181640625,0.0032679650466889143,0.015545936301350594,0.003823500359430909
1772536312292509200,8.38950927734375,0.004828311037272215,0.01350622158497572,0.0019030949333682656
1772536312302558200,8.39955810546875,0.007833688519895077,0.007456318475306034,0.0008572715451009572
1772536312312606200,8.409606201171876,0.007226221263408661,0.010962902568280697,-0.00046046054922044277
1772536312322654000,8.419654052734375,0.004563859198242426,0.01641812175512314,0.0006673881434835494
1772536312332703200,8.429703125,0.006786266807466745,0.015798404812812805,0.004203000571578741
1772536312342751000,8.4397509765625,0.004129763692617416,0.021040836349129677,0.005791043862700462
1772536312352799200,8.44979931640625,0.005673065781593323,0.02135961689054966,0.005584648810327053
1772536312362848000,8.459847900390624,0.00447011599317193,0.018253039568662643,0.00580755528062582
1772536312372896300,8.469896240234375,0.005650162696838379,0.016164056956768036,0.004911668132990599
1772536312382944000,8.479944091796876,0.004098338540643454,0.013139770366251469,0.0009478190331719816
1772536312392993000,8.489992919921875,0.004668521229177713,0.005306880921125412,0.0011491540353745222
1772536312403041000,8.500041015625,0.0013366405619308352,0.005046157632023096,-0.00012916330888401717
1772536312413089000,8.510089111328124,-0.0017193368403241038,0.008376972749829292,-0.005553489550948143
1772536312423138000,8.520137939453125,-0.003976631909608841,0.01558268815279007,-0.007726629264652729
1772536312433186000,8.53018603515625,-0.004442418925464153,0.01537442859262228,-0.006374009884893894
1772536312443234000,8.540234130859375,-0.007573231123387814,0.009917079471051693,-0.009380718693137169
1772536312453283000,8.550282958984376,-0.006696784868836403,0.0018354506464675069,-0.008927182294428349
1772536312463331000,8.5603310546875,-0.005661347880959511,0.0024618261959403753,0.0010311759542673826
1772536312473379000,8.570379150390625,-0.00544376764446497,0.0073540532030165195,0.0017544905422255397
1772536312483428000,8.580427978515624,-0.006311425473541021,0.007131146267056465,0.0007672567153349519
1772536312493476000,8.59047607421875,-0.006572947837412357,0.011436146683990955,0.003052248852327466
1772536312503525000,8.600525146484374,-0.009127718396484852,0.006963367108255625,0.00043329631444066763
1772536312513573000,8.610572998046875,-0.010037187486886978,0.005531918257474899,-0.00621129060164094
1772536312523621000,8.62062109375,-0.0049460227601230145,-0.007714911364018917,-0.011078749783337116
1772536312533670100,8.630670166015625,-0.005328452680259943,-0.003245328087359667,-0.011963185854256153
1772536312543718100,8.64071826171875,-0.009098423644900322,0.0033989925868809223,-0.012167183682322502
1772536312553766000,8.650765869140624,-0.01446922030299902,0.008821188472211361,-0.012234562076628208
1772536312563815200,8.660815185546875,-0.01392753329128027,0.006750847212970257,-0.010217750445008278
1772536312573863000,8.67086279296875,-0.016118248924613,-0.0033787523861974478,-0.010803379118442535
1772536312583911200,8.6809111328125,-0.013792244717478752,-0.007631820626556873,-0.007616906892508268
1772536312593960000,8.6909599609375,-0.01817181333899498,-0.006050701718777418,-0.008577508851885796
1772536312604008200,8.70100830078125,-0.01858566887676716,-0.008109858259558678,-0.00851625669747591
1772536312614056200,8.71105615234375,-0.01333098579198122,-0.0038453382439911366,-0.0024799355305731297
1772536312624105000,8.72110498046875,-0.01392806600779295,0.005192098673433065,0.005667739547789097
1772536312634153200,8.7311533203125,-0.013747237622737885,0.013194099068641663,0.006353769451379776
1772536312644201000,8.741200927734376,-0.012321380898356438,0.010247843340039253,0.002263420494273305
1772536312654250200,8.751250244140625,-0.010691792704164982,0.006368417292833328,-0.0035177695099264383
1772536312664298000,8.761298095703125,-0.009571933187544346,0.006369215901941061,-0.0062424493953585625
1772536312674346000,8.771345947265624,-0.010308030992746353,0.00290444353595376,-0.015181349590420723
1772536312684395000,8.78139501953125,-0.008932508528232574,-0.0029292108956724405,-0.01606951467692852
1772536312694443000,8.791443115234374,-0.00785552617162466,-0.0030836742371320724,-0.01625300571322441
1772536312704491300,8.8014912109375,-0.005533782299607992,-0.004729241598397493,-0.01209980621933937
1772536312714540000,8.8115400390625,-0.0035001926589757204,-0.0072986590676009655,-0.00845766719430685
1772536312724588000,8.821588134765625,-0.003635214874520898,-0.05343899130821228,-0.02225656993687153
1772536312734636000,8.831635986328125,0.017641844227910042,-0.03628583624958992,-0.025899507105350494
1772536312744685000,8.84168505859375,0.01013705600053072,-0.0011616708943620324,-0.010889398865401745
1772536312754733000,8.851733154296875,0.0013225257862359285,0.01306200586259365,0.004233627114444971
1772536312764782000,8.861781982421874,0.006027532275766134,0.016948357224464417,0.01338930893689394
1772536312774830000,8.871830078125,0.005948436446487904,0.01763358898460865,0.019058646634221077
1772536312784878000,8.881878173828126,0.006103166379034519,0.022944463416934013,0.022833144292235374
1772536312794927000,8.891927001953125,0.006225671619176865,0.0166785791516304,0.018430139869451523
1772536312804975000,8.90197509765625,0.00797510240226984,0.004019775427877903,0.017018398270010948
1772536312815023000,8.912023193359374,0.003665042342618108,-0.00487331859767437,0.011723235249519348
1772536312825072000,8.922072021484375,0.004829110112041235,-0.009059274569153786,0.013938718475401402
1772536312835120000,8.9321201171875,0.0006554039428010583,0.004085022956132889,0.014640195295214653
1772536312845168000,8.942168212890625,0.0016580841038376093,0.015358982607722282,0.02160489372909069
1772536312855217000,8.952216796875,-0.00047697214176878333,0.017223196104168892,0.020067717880010605
1772536312865265200,8.96226513671875,-0.00030892668291926384,0.012301141396164894,0.014302239753305912
1772536312875313200,8.972313232421875,-0.004083158448338509,-0.0005597964627668262,0.0002580603177193552
1772536312885362200,8.982362060546874,-0.007286408916115761,-0.005963616538792849,-0.011357050389051437
1772536312895410200,8.99241015625,-0.011231881566345692,-0.006893592420965433,-0.017785122618079185
1772536312905458000,9.0024580078125,-0.008556736633181572,0.0023606258910149336,-0.013696637004613876
1772536312915507200,9.012507080078125,-0.009388175792992115,0.013703028671443462,-0.0017054883064702153
1772536312925555000,9.022554931640625,-0.01326813455671072,0.015798671171069145,0.00510021997615695
1772536312935603200,9.032603271484374,-0.009802030399441719,0.0112798186019063,0.009416138753294945
1772536312945652000,9.04265185546875,-0.008644887246191502,0.0101362569257617,0.01185213215649128
1772536312955700200,9.0527001953125,-0.012677179649472237,0.00839614775031805,0.013916614465415478
1772536312965748000,9.062748046875,-0.01215892843902111,0.0043678502552211285,0.014280135743319988
1772536312975797200,9.07279736328125,-0.008019843138754368,-0.00037230990710668266,0.010319748893380165
1772536312985845200,9.08284521484375,-0.005830724723637104,0.00039787625428289175,0.010133061558008194
1772536312995894300,9.092894287109376,0.0009057410643436015,0.001606418751180172,0.014813301153481007
1772536313005942000,9.10294189453125,0.00014274542627390474,0.004757737275213003,0.022048044949769974
1772536313015990300,9.112990234375,0.0004138552176300436,0.007266168482601643,0.022545255720615387
1772536313026039000,9.1230390625,-0.0036250948905944824,0.004751079250127077,0.026078738272190094
1772536313036087300,9.13308740234375,-0.00566986994817853,0.002895655110478401,0.02117559313774109
1772536313046135300,9.14313525390625,-0.002898051869124174,0.004576908424496651,0.017588581889867783
1772536313056184300,9.153184326171875,-0.0028543761000037193,0.006629140581935644,0.013186641968786716
1772536313066232300,9.163232421875,-0.004333761986345053,0.0036932716611772776,0.012095012702047825
1772536313076280000,9.173280029296874,-0.006826214492321014,0.008665925823152065,0.00839721318334341
1772536313086329300,9.183329345703125,-0.012379171326756477,0.008128234185278416,0.005227785091847181
1772536313096377000,9.193377197265624,-0.01607643812894821,0.008364723064005375,0.0013528858544304967
1772536313106425300,9.20342529296875,-0.01824318617582321,0.006370814051479101,-0.0020471718162298203
1772536313116474000,9.21347412109375,-0.021945778280496597,0.004406998865306377,-0.009603092446923256
1772536313126522400,9.2235224609375,-0.021092768758535385,-0.0009752495680004358,-0.013344300910830498
1772536313136570000,9.233570068359375,-0.01907382532954216,-0.002651176881045103,-0.01703198067843914
1772536313146619400,9.243619384765625,-0.01649029366672039,0.00044607947347685695,-0.01944267377257347
1772536313156667100,9.253667236328125,-0.010713363997638226,0.0031824775505810976,-0.01218635868281126
1772536313166715100,9.263715087890626,-0.008125570602715015,0.003234142903238535,-0.009007609449326992
1772536313176764200,9.27376416015625,-0.010237989947199821,0.005053347907960415,-0.0029342707712203264
1772536313186812200,9.283812255859376,-0.010296046733856201,0.006197974551469088,-0.0000250337143370416
1772536313196860400,9.2938603515625,-0.010753312148153782,0.007895207032561302,0.0036274916492402554
1772536313206909200,9.3039091796875,-0.008296811953186989,0.006472546607255936,0.007481884676963091
1772536313216957200,9.313957275390624,-0.004205131437629461,0.006842193193733692,0.0152561841532588
1772536313227006200,9.324006103515625,0.00013928332191426307,0.014652179554104805,0.01601252146065235
1772536313237054200,9.33405419921875,-0.0003379551344551146,0.014751781709492207,0.017605891451239586
1772536313247102200,9.344102294921875,-0.0025417208671569824,0.012147210538387299,0.01660747267305851
1772536313257150200,9.354150146484375,-0.005890379659831524,0.01059085875749588,0.011773302219808102
1772536313267199200,9.36419921875,-0.006590524688363075,-0.0012780509423464537,0.007785485126078129
1772536313277247200,9.374247314453125,-0.007507717236876488,-0.00708693778142333,-0.00001944107498275116
1772536313287296300,9.384296142578124,-0.008617988787591457,-0.010112554766237736,0.00032144354190677404
1772536313297344300,9.39434423828125,-0.010884072631597519,0.002767290687188506,0.0049460227601230145
1772536313307392000,9.40439208984375,-0.012441223487257957,0.009950901381671429,0.006341785658150911
1772536313317441300,9.414441162109375,-0.008905611000955105,0.008889631368219852,0.012093414552509785
1772536313327489000,9.424489013671876,-0.008335161954164505,0.0137802604585886,0.010605240240693092
1772536313337537300,9.434537353515625,-0.009052883833646774,0.01824345253407955,0.011928032152354717
1772536313347586000,9.4445859375,-0.009888051077723503,0.018159296363592148,0.008959139697253704
1772536313357634300,9.45463427734375,-0.008132761344313622,0.014505972154438496,0.00464668357744813
1772536313367682300,9.464682373046875,-0.012104866094887257,0.007847003638744354,-0.002894856035709381
1772536313377731300,9.4747314453125,-0.013918212614953518,0.00044128578156232834,-0.0111019192263484
1772536313387779300,9.484779296875,-0.014964834786951542,-0.0019387812353670597,-0.010291253216564655
1772536313397827000,9.4948271484375,-0.014697186648845673,0.003084739437326789,-0.009236108511686325
1772536313407876400,9.50487646484375,-0.014397847466170788,0.015171762555837631,-0.001050350721925497
1772536313417924000,9.514924072265625,-0.010977815836668015,0.027173830196261406,0.009868077002465725
1772536313427972400,9.524972412109374,-0.006253635045140982,0.04057778790593147,0.012854811735451221
1772536313438021000,9.535021240234375,-0.0041036647744476795,0.04053623974323273,0.005224056541919708
1772536313448069000,9.545069091796876,-0.004512992687523365,0.02768569067120552,-0.006611830089241266
1772536313458117000,9.5551171875,-0.003745736088603735,0.016981646418571472,-0.01053306832909584
1772536313468166100,9.565166259765626,-0.00538544449955225,0.01769351027905941,-0.013215404003858566
1772536313478214100,9.575214111328124,-0.005339105147868395,0.030964840203523636,-0.007798800710588694
1772536313488262100,9.58526220703125,-0.004057059530168772,0.04295412451028824,0.00036432043998502195
1772536313498311200,9.595311279296874,0.0011270497925579548,0.05672985687851906,0.030705448240041733
1772536313508359200,9.605359130859375,-0.006366286426782608,0.05253910645842552,0.04067898541688919
1772536313518407200,9.6154072265625,-0.0003462109307292849,0.03398486599326134,0.03934288024902344
1772536313528456200,9.625456298828125,0.0006356965750455856,0.012588229961693287,0.03364291414618492
1772536313538504200,9.635504150390625,-0.004511128645390272,0.0007555388147011399,0.02497885376214981
1772536313548552200,9.64555224609375,-0.009584450162947178,-0.005242698825895786,0.020725252106785774
1772536313558601200,9.655601318359375,-0.009436378255486488,-0.009664345532655716,0.018906844779849052
1772536313568649200,9.665649169921876,-0.006649913266301155,-0.008309861645102501,0.01690441556274891
1772536313578698200,9.6756982421875,-0.0036479979753494263,-0.004126567859202623,0.022997727617621422
1772536313588746200,9.685746337890626,0.0011446266435086727,-0.0006210491410456598,0.021162543445825577
1772536313598794200,9.695794189453125,0.0037795582320541143,-0.009194829501211643,0.020301276817917824
1772536313608843300,9.70584326171875,-0.0014777880860492587,-0.019344136118888855,0.012804478406906128
1772536313618891300,9.715891357421874,-0.008852081373333931,-0.022239524871110916,0.01822907105088234
1772536313628939300,9.725939208984375,-0.0039854203350842,-0.011439608410000801,0.014548582956194878
1772536313638988300,9.73598828125,-0.004747084807604551,-0.021770276129245758,0.006457100156694651
