time,seconds_elapsed,z,y,x
1772571210848066000,0.267066162109375,-0.06298637390136719,-0.0017404025420546532,-0.00025027990341186523
1772571210865900800,0.28490087890625,-0.06247901916503906,-0.002786336001008749,0.0006628036499023438
1772571210883735800,0.30273583984375,-0.05948638916015625,-0.00573419826105237,0.0009304285049438477
1772571210901570000,0.320570068359375,-0.05788612365722656,-0.0021049585193395615,-0.00034117698669433594
1772571210919405800,0.33840576171875,-0.054724693298339844,-0.0017306888476014137,0.0006909370422363281
1772571210937240300,0.356240234375,-0.05716133117675781,-0.0043776147067546844,0.0018261075019836426
1772571210955075800,0.374075927734375,-0.06565093994140625,-0.011713860556483269,-0.00906825065612793
1772571210972910300,0.391910400390625,-0.057030677795410156,-0.000017736107110977173,-0.008858799934387207
1772571210990746400,0.409746337890625,-0.05929279327392578,-0.0051993574015796185,-0.0048705339431762695
1772571211008580400,0.427580322265625,-0.05606365203857422,-0.000810893252491951,-0.004241228103637695
1772571211026415900,0.445415771484375,-0.05670452117919922,-0.0054236059077084064,-0.004296004772186279
1772571211044250400,0.46325048828125,-0.05972480773925781,-0.0033194911666214466,-0.0025371313095092773
1772571211062087400,0.48108740234375,-0.0579071044921875,-0.0000814925879240036,0.000021398067474365234
1772571211079919900,0.498919921875,-0.06104850769042969,0.00039348378777503967,0.0016086101531982422
1772571211097752600,0.516752685546875,-0.059243202209472656,-0.0010794736444950104,-0.002317667007446289
1772571211115593200,0.53459326171875,-0.06529426574707031,-0.007361819501966238,-0.007160604000091553
1772571211133426000,0.552426025390625,-0.06165122985839844,-0.0025658439844846725,-0.0069269537925720215
1772571211151260400,0.570260498046875,-0.0657968521118164,-0.010340766049921513,-0.0032425522804260254
1772571211169095700,0.588095703125,-0.06822013854980469,-0.004852717742323875,-0.0047980546951293945
1772571211186930700,0.6059306640625,-0.06096935272216797,-0.0027657123282551765,-0.0018042325973510742
1772571211204765200,0.62376513671875,-0.055805206298828125,-0.00061367591843009,-0.0020923614501953125
1772571211222600000,0.641599853515625,-0.058091163635253906,-0.007749595213681459,-0.0027480125427246094
1772571211240435500,0.659435546875,-0.0628652572631836,-0.00200616754591465,-0.00982201099395752
1772571211258269700,0.677269775390625,-0.057257652282714844,-0.0012953318655490875,-0.00379025936126709
1772571211276105000,0.69510498046875,-0.05754661560058594,0.002872413955628872,0.0025975704193115234
1772571211293940000,0.71293994140625,-0.0621490478515625,0.001050441525876522,-0.0058095455169677734
1772571211311775200,0.730775146484375,-0.05422401428222656,-0.006853039376437664,-0.001408398151397705
1772571211329609700,0.748609619140625,-0.05937671661376953,0.002597586251795292,0.0006416440010070801
1772571211347445500,0.766445556640625,-0.06485748291015625,-0.004941429942846298,0.0008219480514526367
1772571211365280000,0.784280029296875,-0.06096935272216797,-0.009972458705306053,-0.005132734775543213
1772571211383115300,0.802115234375,-0.05697441101074219,-0.0036337552592158318,-0.00415956974029541
1772571211400937000,0.81993701171875,-0.05571746826171875,-0.002669075969606638,-0.000003039836883544922
1772571211418784800,0.83778466796875,-0.057318687438964844,-0.004381924867630005,0.0006961822509765625
1772571211436607700,0.855607666015625,-0.05119514465332031,-0.001828606240451336,-0.006199538707733154
1772571211454455300,0.873455322265625,-0.05612659454345703,0.002562093548476696,-0.0024994611740112305
1772571211472283100,0.891283203125,-0.056865692138671875,-0.0019794562831521034,-0.003198087215423584
1772571211490125000,0.909125,-0.0574798583984375,-0.0057683284394443035,-0.001927196979522705
1772571211507959600,0.92695947265625,-0.054160118103027344,-0.014568150043487549,-0.00644761323928833
1772571211525795000,0.944795166015625,-0.052516937255859375,-0.008809922263026237,-0.004616379737854004
1772571211543629300,0.96262939453125,-0.05354022979736328,-0.008415807969868183,-0.005618155002593994
1772571211561464600,0.980464599609375,-0.056975364685058594,0.00155671127140522,-0.0038164854049682617
1772571211579299300,0.99829931640625,-0.05890369415283203,-0.0019518854096531868,-0.0036261677742004395
1772571211597134600,1.016134521484375,-0.05726814270019531,-0.0055054789409041405,-0.0036893486976623535
1772571211614969300,1.03396923828125,-0.05702781677246094,-0.005936633795499802,-0.005368471145629883
1772571211632802800,1.051802734375,-0.054218292236328125,-0.010739457793533802,-0.003316819667816162
1772571211650638000,1.06963818359375,-0.05478477478027344,-0.0024522021412849426,-0.010422825813293457
1772571211668477700,1.087477783203125,-0.05779457092285156,-0.006663610693067312,-0.0027086734771728516
1772571211686309000,1.10530908203125,-0.050128936767578125,-0.004205272998660803,-0.005104124546051025
1772571211704144100,1.12314404296875,-0.05823230743408203,-0.008652079850435257,-0.006539702415466309
1772571211721978600,1.140978515625,-0.054755210876464844,-0.006570134777575731,0.004866957664489746
1772571211739814100,1.158814208984375,-0.051941871643066406,-0.003374136984348297,-0.0020384788513183594
1772571211757648400,1.1766484375,-0.06141948699951172,-0.0038836332969367504,-0.0025896430015563965
1772571211775484200,1.194484130859375,-0.052971839904785156,-0.003397422842681408,-0.008657336235046387
1772571211793319000,1.21231884765625,-0.054592132568359375,0.001246631145477295,-0.004302620887756348
1772571211811154400,1.230154541015625,-0.051133155822753906,0.0009185494855046272,-0.0037856698036193848
1772571211828989000,1.247989013671875,-0.045561790466308594,-0.004041439853608608,-0.006489217281341553
1772571211846824400,1.265824462890625,-0.04977130889892578,-0.002844017930328846,-0.0028963088989257812
1772571211864658400,1.283658447265625,-0.054617881774902344,-0.004542999435216188,-0.0029113292694091797
1772571211882494200,1.301494140625,-0.061199188232421875,-0.007029467727988958,-0.004049062728881836
1772571211900318000,1.31931787109375,-0.06219196319580078,-0.0021794671192765236,-0.007187485694885254
1772571211918163700,1.337163818359375,-0.05536460876464844,-0.004341327119618654,-0.0016901493072509766
1772571211935990300,1.354990234375,-0.053206443786621094,-0.003981867805123329,0.001621544361114502
1772571211953833700,1.372833740234375,-0.05986309051513672,-0.002873328048735857,-0.003098726272583008
1772571211971673300,1.39067333984375,-0.04982948303222656,0.00032407045364379883,-0.005482077598571777
1772571211989504300,1.408504150390625,-0.05350685119628906,-0.0009579984471201897,-0.005252361297607422
1772571212007338500,1.42633837890625,-0.049625396728515625,-0.009742612019181252,-0.005066096782684326
1772571212025173800,1.444173828125,-0.05054283142089844,-0.0013151559978723526,-0.0006518363952636719
1772571212043008500,1.462008544921875,-0.0466156005859375,-0.002360848244279623,-0.0036339759826660156
1772571212060843800,1.47984375,-0.05734729766845703,-0.0030187563970685005,-0.010518550872802734
1772571212078677800,1.497677734375,-0.047623634338378906,-0.0072161611169576645,-0.0014380812644958496
1772571212096513500,1.515513427734375,-0.04757976531982422,-0.01208935771137476,-0.0010908246040344238
1772571212114348000,1.53334814453125,-0.052002906799316406,-0.002803598530590534,0.0015732645988464355
1772571212132181500,1.551181396484375,-0.050868988037109375,0.001329958438873291,-0.002775847911834717
1772571212150020400,1.569020263671875,-0.050713539123535156,0.004722753539681435,-0.00010532140731811523
1772571212167854000,1.58685400390625,-0.055393218994140625,-0.003424603957682848,-0.002754509449005127
1772571212185687600,1.6046875,-0.053173065185546875,-0.0017164875753223896,-0.0032358765602111816
1772571212203523000,1.622523193359375,-0.052191734313964844,-0.00461927754804492,-0.00030684471130371094
1772571212221357600,1.640357666015625,-0.053328514099121094,-0.0021137380972504616,-0.004972517490386963
1772571212239193000,1.658193115234375,-0.05350303649902344,-0.002946409396827221,-0.0038445591926574707
1772571212257027300,1.67602734375,-0.04539775848388672,0.002227894961833954,-0.006754100322723389
1772571212274863000,1.693863037109375,-0.05231189727783203,-0.0010824054479599,-0.005106210708618164
1772571212292697900,1.71169775390625,-0.052237510681152344,-0.0039785876870155334,-0.004424571990966797
1772571212310533400,1.729533447265625,-0.04754447937011719,-0.0020935535430908203,-0.0012233853340148926
1772571212328367900,1.747367919921875,-0.046192169189453125,-0.001836450770497322,0.0003921389579772949
1772571212346203000,1.765202880859375,-0.045981407165527344,0.0021820925176143646,-0.002408444881439209
1772571212364037600,1.78303759765625,-0.04694652557373047,-0.0005711792036890984,-0.0028061866760253906
1772571212381873200,1.800873046875,-0.046749114990234375,-0.0018204618245363235,-0.009277522563934326
1772571212399712300,1.818712158203125,-0.047041893005371094,-0.004872116260230541,-0.006760597229003906
1772571212417541600,1.836541748046875,-0.04751873016357422,-0.006710480898618698,-0.0069612860679626465
1772571212435379000,1.85437890625,-0.04388618469238281,-0.005833856761455536,-0.00044983625411987305
1772571212453213000,1.872212890625,-0.04855155944824219,-0.007933703251183033,-0.0020883679389953613
1772571212471047400,1.89004736328125,-0.048104286193847656,-0.0017282338812947273,-0.000847935676574707
1772571212488883000,1.907883056640625,-0.04626178741455078,-0.003812143113464117,-0.0022368431091308594
1772571212506717200,1.92571728515625,-0.04776191711425781,-0.0033804774284362793,-0.002933323383331299
1772571212524553000,1.943552978515625,-0.047997474670410156,-0.00026275869458913803,-0.00582808256149292
1772571212542387000,1.961386962890625,-0.051726341247558594,-0.006274103187024593,-0.0035437941551208496
1772571212560222200,1.97922216796875,-0.047806739807128906,-0.010562746785581112,-0.002761662006378174
1772571212578056700,1.997056640625,-0.05320167541503906,-0.005331066902726889,0.00036919116973876953
1772571212595892200,2.014892333984375,-0.04996013641357422,0.0008447803556919098,-0.0060689449310302734
1772571212613727700,2.032727783203125,-0.04835033416748047,-0.008442126214504242,-0.005582213401794434
1772571212631559400,2.050559326171875,-0.047440528869628906,0.003168306313455105,-0.0028900504112243652
1772571212649400600,2.068400634765625,-0.04681682586669922,-0.0031788838095963,-0.006491303443908691
1772571212667232500,2.086232421875,-0.04494476318359375,-0.004596153739839792,-0.002837955951690674
1772571212685066800,2.104066650390625,-0.04874706268310547,-0.006157963536679745,-0.001847982406616211
1772571212702902300,2.12190234375,-0.047036170959472656,-0.0034707635641098022,-0.0041692256927490234
1772571212720736800,2.13973681640625,-0.0519866943359375,-0.007629397325217724,-0.007932066917419434
1772571212738572000,2.157572021484375,-0.04916858673095703,-0.004289892502129078,-0.0036730170249938965
1772571212756406500,2.175406494140625,-0.0441741943359375,-0.0018942644819617271,-0.0004152059555053711
1772571212774229800,2.193229736328125,-0.04747581481933594,-0.005618260707706213,-0.005852222442626953
1772571212792076800,2.211076904296875,-0.04327106475830078,0.0020300839096307755,-0.006567239761352539
1772571212809912600,2.22891259765625,-0.046212196350097656,-0.002160189673304558,0.002653181552886963
1772571212827746600,2.24674658203125,-0.04438591003417969,-0.008909127674996853,-0.0010786652565002441
1772571212845582000,2.26458203125,-0.049813270568847656,-0.008716626092791557,-0.001358330249786377
1772571212863416600,2.28241650390625,-0.05062389373779297,-0.006974930875003338,-0.004496455192565918
1772571212881251800,2.300251953125,-0.056595802307128906,-0.0049346862360835075,0.0008715391159057617
1772571212899086600,2.318086669921875,-0.045806884765625,-0.009406795725226402,-0.0040740966796875
1772571212916922000,2.335922119140625,-0.04775524139404297,-0.005218639504164457,0.0011484026908874512
1772571212934756600,2.353756591796875,-0.049178123474121094,-0.0033276090398430824,0.0000011920928955078125
1772571212952592000,2.371591796875,-0.047607421875,-0.010171045549213886,-0.004234611988067627
1772571212970426600,2.389426513671875,-0.04801464080810547,-0.007082449737936258,-0.0025112032890319824
1772571212988262100,2.40726220703125,-0.04043865203857422,-0.005566499661654234,0.001095890998840332
1772571213006096100,2.42509619140625,-0.04694938659667969,-0.0014433171600103378,0.0002695918083190918
1772571213023932000,2.442931884765625,-0.04793548583984375,0.0004333173856139183,-0.0021063685417175293
1772571213041766400,2.460766357421875,-0.04401874542236328,-0.0005107307806611061,0.0015050172805786133
1772571213059601700,2.4786015625,-0.043938636779785156,-0.00699966587126255,-0.003378629684448242
1772571213077436200,2.496436279296875,-0.04343891143798828,-0.0046305288560688496,0.0017507672309875488
1772571213095272200,2.514272216796875,-0.039290428161621094,-0.013541433960199356,-0.0005922913551330566
1772571213113106400,2.5321064453125,-0.045645713806152344,-0.0009452169761061668,-0.0009950995445251465
1772571213130942000,2.54994189453125,-0.037837982177734375,-0.006089669652283192,0.00012308359146118164
1772571213148776400,2.5677763671875,-0.04478645324707031,-0.005798791069537401,-0.0018488764762878418
1772571213166612000,2.585612060546875,-0.04064369201660156,-0.003976969979703426,-0.003867924213409424
1772571213184446000,2.603446044921875,-0.04813671112060547,-0.0014935610815882683,-0.0012850761413574219
1772571213202268000,2.621267822265625,-0.04813194274902344,-0.0039423429407179356,-0.0020502805709838867
1772571213220116000,2.639115966796875,-0.05511665344238281,-0.005599009804427624,-0.002184450626373291
1772571213237940000,2.65693994140625,-0.04738426208496094,-0.011590521782636642,-0.0024893879890441895
1772571213255786200,2.6747861328125,-0.04686164855957031,-0.007816714234650135,0.0014910101890563965
1772571213273613300,2.69261328125,-0.05019092559814453,-0.00202237069606781,-0.002031564712524414
1772571213291459300,2.710459228515625,-0.04549217224121094,-0.006573661230504513,0.004351317882537842
1772571213309288700,2.728288818359375,-0.043651580810546875,-0.006115363445132971,-0.0015183091163635254
1772571213327129000,2.746129150390625,-0.047435760498046875,0.001134570688009262,0.004583477973937988
1772571213344961500,2.76396142578125,-0.05206775665283203,-0.0102692861109972,-0.0003688931465148926
1772571213362796300,2.78179638671875,-0.04984855651855469,-0.0009276093915104866,0.001890420913696289
1772571213380631600,2.799631591796875,-0.04722309112548828,-0.005262202583253384,0.0019806623458862305
1772571213398466000,2.817466064453125,-0.04503917694091797,-0.009854489006102085,-0.0038909316062927246
1772571213416301600,2.835301513671875,-0.046509742736816406,-0.0057655684649944305,-0.00452113151550293
1772571213434133000,2.853133056640625,-0.04837226867675781,-0.004141520243138075,-0.00029599666595458984
1772571213451974700,2.870974609375,-0.047041893005371094,-0.0038925819098949432,-0.003463149070739746
1772571213469806000,2.88880615234375,-0.04976177215576172,-0.008087432011961937,0.0018344521522521973
1772571213487641300,2.906641357421875,-0.04317951202392578,-0.0066456603817641735,-0.0015507936477661133
1772571213505475600,2.9244755859375,-0.04153156280517578,-0.009116274304687977,-0.002118349075317383
1772571213523311000,2.94231103515625,-0.049408912658691406,-0.0047195530496537685,-0.006867468357086182
1772571213541145600,2.9601455078125,-0.04541492462158203,-0.004141303710639477,-0.0014988183975219727
1772571213558981000,2.977981201171875,-0.04367542266845703,-0.006060881074517965,-0.001776278018951416
1772571213576815400,2.9958154296875,-0.049747467041015625,-0.0023299679160118103,-0.0036380887031555176
1772571213594651400,3.0136513671875,-0.04546928405761719,-0.005783524364233017,-0.0003135800361633301
1772571213612486100,3.031486083984375,-0.047097206115722656,-0.01037683617323637,-0.004491865634918213
1772571213630321700,3.04932177734375,-0.04394340515136719,0.0029260218143463135,-0.0060707926750183105
1772571213648156200,3.06715625,-0.050445556640625,-0.0026680314913392067,0.0017042756080627441
1772571213665991400,3.084991455078125,-0.04443359375,-0.005602122750133276,0.0015696287155151367
1772571213683825700,3.10282568359375,-0.05164146423339844,-0.003118610940873623,0.0014447569847106934
1772571213701643000,3.12064306640625,-0.05386066436767578,-0.010924393311142921,-0.0016610026359558105
1772571213719495700,3.13849560546875,-0.054203033447265625,-0.006423858925700188,-0.0049408674240112305
1772571213737331200,3.156331298828125,-0.04905223846435547,-0.006323686335235834,-0.0054686665534973145
1772571213755166200,3.174166259765625,-0.05055999755859375,-0.004550600424408913,-0.005350768566131592
1772571213773001200,3.192001220703125,-0.04559898376464844,-0.0054970597848296165,-0.0022464990615844727
1772571213790836200,3.209836181640625,-0.043709754943847656,-0.002450745552778244,-0.0017743706703186035
1772571213808671500,3.22767138671875,-0.04456901550292969,-0.002620871178805828,0.001350700855255127
1772571213826506000,3.245506103515625,-0.04176044464111328,-0.003132282756268978,-0.001356363296508789
1772571213844341500,3.263341552734375,-0.05123424530029297,-0.004496758803725243,-0.001966118812561035
1772571213862161200,3.2811611328125,-0.04456329345703125,-0.003613809123635292,-0.0017247796058654785
1772571213880011000,3.299010986328125,-0.044696807861328125,-0.003220953978598118,0.0024611353874206543
1772571213897843000,3.316843017578125,-0.04876899719238281,-0.00619084294885397,0.0018038153648376465
1772571213915684600,3.3346845703125,-0.040129661560058594,-0.00394243560731411,-0.001115262508392334
1772571213933512700,3.3525126953125,-0.048099517822265625,-0.0036901752464473248,-0.00013643503189086914
1772571213951355000,3.37035498046875,-0.041184425354003906,-0.0038609090261161327,0.004106342792510986
1772571213969183200,3.388183349609375,-0.03834724426269531,0.0019693132489919662,0.00238192081451416
1772571213987023600,3.406023681640625,-0.039711952209472656,0.00006424076855182648,-0.002438962459564209
1772571214004855600,3.42385546875,-0.04802989959716797,-0.0001615835353732109,0.000686943531036377
1772571214022691300,3.44169140625,-0.043442726135253906,-0.006183227989822626,0.0030001401901245117
1772571214040525600,3.459525634765625,-0.046314239501953125,-0.0013027237728238106,0.003211379051208496
1772571214058361300,3.477361328125,-0.04318428039550781,-0.006533319596201181,-0.000661015510559082
1772571214076195600,3.495195556640625,-0.04337310791015625,-0.007157421670854092,-0.0028083324432373047
1772571214094031600,3.513031494140625,-0.039839744567871094,-0.009618088603019714,0.006973564624786377
1772571214111866000,3.5308662109375,-0.04808807373046875,-0.007666752673685551,-0.0023837685585021973
1772571214129701600,3.54870166015625,-0.04755878448486328,-0.008409081026911736,0.0003942251205444336
1772571214147536000,3.566535888671875,-0.044048309326171875,-0.008581415750086308,-0.0035437941551208496
1772571214165358800,3.58435888671875,-0.04758930206298828,-0.01464539673179388,0.0012497305870056152
1772571214183206000,3.602205810546875,-0.04293632507324219,-0.013947011902928352,0.0010185837745666504
1772571214201041200,3.620041259765625,-0.047423362731933594,-0.011413514614105225,-0.0009485483169555664
1772571214218876200,3.637876220703125,-0.04810047149658203,-0.009198470041155815,-0.001777350902557373
1772571214236711400,3.65571142578125,-0.04640674591064453,-0.006381033919751644,-0.0056288838386535645
1772571214254546000,3.6735458984375,-0.0461578369140625,-0.005288722924888134,0.003815591335296631
1772571214272381400,3.69138134765625,-0.05309867858886719,-0.0022084107622504234,-0.0018688440322875977
1772571214290216000,3.7092158203125,-0.04715728759765625,-0.006398759316653013,0.00009649991989135742
1772571214308051700,3.7270517578125,-0.04920387268066406,-0.01131193432956934,-0.0003610849380493164
1772571214325886200,3.74488623046875,-0.050660133361816406,-0.010174942202866077,-0.0020654797554016113
1772571214343721500,3.762721435546875,-0.04274272918701172,-0.0056306710466742516,0.0021312832832336426
1772571214361555700,3.7805556640625,-0.046753883361816406,-0.00844242051243782,-0.0017574429512023926
1772571214379391200,3.79839111328125,-0.04800891876220703,-0.009301393292844296,0.0005448460578918457
1772571214397224200,3.81622412109375,-0.04527091979980469,-0.005271635949611664,0.0026159286499023438
1772571214415063300,3.834063232421875,-0.04598808288574219,-0.004191992804408073,0.0010352730751037598
1772571214432894000,3.85189404296875,-0.05015277862548828,-0.004520989954471588,-0.0022234320640563965
1772571214450733800,3.86973388671875,-0.04964256286621094,-0.008577325381338596,0.0019463300704956055
1772571214468566000,3.88756591796875,-0.053646087646484375,-0.0023276694118976593,-0.0029467344284057617
1772571214486401300,3.9054013671875,-0.04612541198730469,-0.00418099295347929,0.0003172159194946289
1772571214504235800,3.92323583984375,-0.0496978759765625,-0.007997434586286545,0.0008022785186767578
1772571214522071600,3.941071533203125,-0.04958534240722656,-0.001877032220363617,-0.0009709596633911133
1772571214539905800,3.95890576171875,-0.04616546630859375,-0.0027637816965579987,-0.002213597297668457
1772571214557741300,3.9767412109375,-0.04498767852783203,-0.004032060969620943,0.0014653801918029785
1772571214575576000,3.994576171875,-0.051796913146972656,-0.008122441358864307,-0.003156423568725586
1772571214593411600,4.01241162109375,-0.046980857849121094,-0.00362294539809227,0.003170609474182129
1772571214611246000,4.03024609375,-0.04625225067138672,-0.008131924085319042,-0.0005974173545837402
1772571214629081900,4.048081787109375,-0.05084800720214844,-0.005886439699679613,0.0005567073822021484
1772571214646916400,4.065916259765625,-0.051544189453125,-0.003275252878665924,-0.00040584802627563477
1772571214664751600,4.083751708984375,-0.05392646789550781,-0.0081754419952631,0.0024141669273376465
1772571214682586400,4.10158642578125,-0.049584388732910156,-0.004897656850516796,-0.0035073161125183105
1772571214700422000,4.119421875,-0.04551982879638672,-0.005039636977016926,-0.0014032721519470215
1772571214718255900,4.137255859375,-0.054816246032714844,-0.0031148167327046394,0.0007289648056030273
1772571214736092000,4.155091796875,-0.05330085754394531,-0.006797037087380886,0.006927192211151123
1772571214753926400,4.172926513671875,-0.04544353485107422,-0.010122265666723251,0.005079507827758789
1772571214771762200,4.19076220703125,-0.05189228057861328,-0.004747643135488033,0.0025432705879211426
1772571214789596700,4.2085966796875,-0.05058574676513672,-0.003884966019541025,0.0013857483863830566
1772571214807431700,4.226431640625,-0.04616260528564453,-0.007336446549743414,0.006355762481689453
1772571214825266400,4.244266357421875,-0.046149253845214844,-0.003041347488760948,0.006123065948486328
1772571214843101700,4.262101806640625,-0.05605602264404297,-0.0035323132760822773,0.007831335067749023
1772571214860936200,4.279936279296875,-0.05577659606933594,-0.0034921574406325817,0.004175305366516113
1772571214878771700,4.297771728515625,-0.054607391357421875,-0.009496478363871574,-0.0020416975021362305
1772571214896606500,4.3156064453125,-0.05849266052246094,-0.0015092818066477776,0.002225041389465332
1772571214914442000,4.33344189453125,-0.048686981201171875,0.0007655154913663864,0.0018216967582702637
1772571214932276500,4.3512763671875,-0.051756858825683594,-0.0016447659581899643,0.01173555850982666
1772571214950112000,4.369112060546875,-0.055792808532714844,-0.008031670935451984,0.007354378700256348
1772571214967946500,4.386946533203125,-0.055754661560058594,0.0009255753830075264,-0.002572357654571533
1772571214985781800,4.40478173828125,-0.05231189727783203,-0.00005256757140159607,0.0013360381126403809
1772571215003599400,4.422599365234375,-0.054045677185058594,-0.003004787489771843,-0.003148972988128662
1772571215021451800,4.44045166015625,-0.057244300842285156,-0.0004944885149598122,-0.0036069750785827637
1772571215039274200,4.458274169921875,-0.05887126922607422,-0.010021214373409748,-0.0006257891654968262
1772571215057127400,4.47612744140625,-0.05619239807128906,-0.002157575450837612,-0.003126978874206543
1772571215074963000,4.493962890625,-0.05171966552734375,-0.007958387024700642,0.00043952465057373047
1772571215092792600,4.51179248046875,-0.0627450942993164,-0.0007075471803545952,0.004010498523712158
1772571215110626800,4.529626708984375,-0.05157470703125,-0.007667746860533953,0.0015473365783691406
1772571215128462300,4.54746240234375,-0.053946495056152344,-0.00465763732790947,0.007011890411376953
1772571215146296800,4.565296875,-0.05836009979248047,0.001794145442545414,0.003657400608062744
1772571215164132400,4.58313232421875,-0.04912090301513672,-0.0052619390189647675,0.0025588274002075195
1772571215181964500,4.600964599609375,-0.04950523376464844,-0.006406714208424091,0.001184225082397461
1772571215199802000,4.618802001953125,-0.054744720458984375,-0.005476299673318863,0.004709720611572266
1772571215217634600,4.636634521484375,-0.0573272705078125,-0.00462961895391345,-0.0010511279106140137
1772571215235473400,4.654473388671875,-0.050739288330078125,-0.0074290931224823,-0.0035527944564819336
1772571215253308700,4.67230859375,-0.057861328125,-0.00535488361492753,-0.004012703895568848
1772571215271139300,4.690139404296875,-0.05956459045410156,-0.0003082491457462311,-0.002720355987548828
1772571215288979700,4.707979736328125,-0.06094646453857422,-0.0030201836489140987,0.0017972588539123535
1772571215306812200,4.725812255859375,-0.054164886474609375,-0.004430348053574562,0.00011646747589111328
1772571215324646700,4.743646728515625,-0.050220489501953125,-0.002672974020242691,-0.0011730790138244629
1772571215342482400,4.761482421875,-0.05368518829345703,-0.007307619322091341,-0.003189384937286377
1772571215360316700,4.779316650390625,-0.06119251251220703,-0.0032290061935782433,-0.000593721866607666
1772571215378152200,4.797152099609375,-0.05711936950683594,-0.009492846205830574,-0.00443875789642334
1772571215395987000,4.814987060546875,-0.061705589294433594,-0.004127885680645704,-0.0038241147994995117
1772571215413822700,4.83282275390625,-0.05540943145751953,-0.0026718773879110813,0.0020284652709960938
1772571215431657000,4.850656982421875,-0.05330467224121094,-0.005367392208427191,0.006736934185028076
1772571215449492700,4.86849267578125,-0.05232810974121094,-0.0046381959691643715,-0.0008214712142944336
1772571215467327200,4.8863271484375,-0.05803203582763672,-0.006698682438582182,-0.00012427568435668945
1772571215485167600,4.904167724609375,-0.05482673645019531,-0.0017340341582894325,-0.00372391939163208
1772571215502997000,4.9219970703125,-0.05321025848388672,-0.0021472983062267303,-0.002379119396209717
1772571215520832500,4.93983251953125,-0.05184173583984375,-0.007077509071677923,-0.0008096694946289062
1772571215538654500,4.957654541015625,-0.060894012451171875,-0.008825978264212608,0.0005533695220947266
1772571215556502800,4.975502685546875,-0.05347728729248047,-0.003216500859707594,-0.0006216168403625488
1772571215574324500,4.993324462890625,-0.05234813690185547,-0.012179438956081867,0.0020247697830200195
1772571215592172800,5.0111728515625,-0.05283164978027344,-0.005163279827684164,-0.0015866756439208984
1772571215610007300,5.02900732421875,-0.05696678161621094,-0.001128538977354765,-0.003243744373321533
1772571215627842600,5.046842529296875,-0.05401420593261719,0.003410409204661846,-0.00016736984252929688
1772571215645677300,5.06467724609375,-0.0512847900390625,-0.00007219798862934113,-0.0009590387344360352
1772571215663512600,5.0825126953125,-0.060782432556152344,-0.003339787945151329,-0.004004359245300293
1772571215681343700,5.10034375,-0.058157920837402344,-0.003806775901466608,-0.0038341879844665527
1772571215699183400,5.118183349609375,-0.05483436584472656,-0.0038982676342129707,0.002499818801879883
1772571215717019000,5.136018798828125,-0.051423072814941406,0.0008362689986824989,0.0037499070167541504
1772571215734852400,5.153852294921875,-0.049777984619140625,-0.0019234642386436462,-0.0011152029037475586
1772571215752688600,5.171688720703125,-0.06108379364013672,-0.003439042717218399,0.0036584138870239258
1772571215770523000,5.18952294921875,-0.05532550811767578,-0.0036335638724267483,0.0003997683525085449
1772571215788357000,5.207357177734375,-0.057376861572265625,-0.004859356675297022,-0.00008749961853027344
1772571215806192600,5.225192626953125,-0.057686805725097656,-0.005041646771132946,-0.0019759535789489746
1772571215824027100,5.243027099609375,-0.06471443176269531,-0.002145003527402878,-0.00525510311126709
1772571215841862700,5.260862548828125,-0.05701446533203125,-0.005662115290760994,-0.0008955597877502441
1772571215859697200,5.278697265625,-0.055840492248535156,-0.00506542157381773,0.0007456541061401367
1772571215877532700,5.29653271484375,-0.05452537536621094,-0.005140861961990595,-0.00015014410018920898
1772571215895367400,5.314367431640625,-0.06017494201660156,-0.00513494573533535,-0.0002557039260864258
1772571215913202700,5.33220263671875,-0.05631542205810547,-0.001996180508285761,0.002562999725341797
1772571215931037400,5.350037353515625,-0.0575103759765625,-0.0020935279317200184,-0.004110753536224365
1772571215948873000,5.367873046875,-0.058831214904785156,-0.006239060778170824,-0.003931701183319092
1772571215966707700,5.385707763671875,-0.05675792694091797,-0.0052328347228467464,0.0008255243301391602
1772571215984542700,5.403542724609375,-0.054656028747558594,0.0021821018308401108,0.0019987821578979492
1772571216002370300,5.421370361328125,-0.05839252471923828,-0.003720656968653202,0.0038264989852905273
1772571216020213200,5.439213134765625,-0.058940887451171875,0.0025143586099147797,0.0026875734329223633
1772571216038035000,5.457034912109375,-0.05495166778564453,0.0034199804067611694,-0.0046578049659729
1772571216055883300,5.47488330078125,-0.05548667907714844,0.0011032610200345516,0.00008606910705566406
1772571216073717500,5.492717529296875,-0.06026458740234375,-0.0038716341368854046,-0.0012180209159851074
1772571216091553500,5.510553466796875,-0.0592041015625,-0.004795214161276817,0.0038384199142456055
1772571216109387300,5.52838720703125,-0.05791282653808594,-0.0031285197474062443,-0.0004655122756958008
1772571216127223000,5.54622314453125,-0.05707263946533203,-0.002340228296816349,-0.0010561347007751465
1772571216145057500,5.5640576171875,-0.060527801513671875,0.0002473844215273857,-0.00032269954681396484
1772571216162893000,5.58189306640625,-0.05634021759033203,0.001650379505008459,0.0031921863555908203
1772571216180734700,5.599734619140625,-0.05343341827392578,-0.004775586538016796,-0.0014497637748718262
1772571216198559700,5.617559814453125,-0.058836936950683594,-0.002156986389309168,-0.006936311721801758
1772571216216400600,5.635400634765625,-0.054961204528808594,-0.0024119773879647255,0.0013063549995422363
1772571216234230800,5.653230712890625,-0.05843162536621094,0.000031797681003808975,0.0006935000419616699
1772571216252070000,5.67106982421875,-0.06188201904296875,-0.003183230757713318,0.002412557601928711
1772571216269903400,5.6889033203125,-0.0612640380859375,-0.006647781003266573,-0.010227680206298828
1772571216287737000,5.706737060546875,-0.05533599853515625,-0.009422840550541878,-0.0060329437255859375
1772571216305572600,5.724572509765625,-0.05736732482910156,0.00519311660900712,-0.005347788333892822
1772571216323407400,5.742407470703125,-0.061720848083496094,0.003175079822540283,-0.003218531608581543
1772571216341243000,5.760242919921875,-0.059456825256347656,-0.0021515577100217342,-0.0051544904708862305
1772571216359077400,5.778077392578125,-0.05618000030517578,-0.0023347646929323673,-0.004487097263336182
1772571216376912600,5.79591259765625,-0.05747032165527344,-0.0018034595996141434,0.0014585256576538086
1772571216394747600,5.81374755859375,-0.06287765502929688,0.001145271584391594,-0.002593398094177246
1772571216412583200,5.831583251953125,-0.05328941345214844,-0.004355776123702526,0.0006826519966125488
1772571216430417700,5.849417724609375,-0.05231666564941406,-0.0009585986845195293,0.0010094046592712402
1772571216448253200,5.867253173828125,-0.056237220764160156,-0.0004890523850917816,0.006353557109832764
1772571216466087400,5.88508740234375,-0.0644683837890625,-0.0015596677549183369,-0.0038105249404907227
1772571216483923200,5.902923095703125,-0.052857398986816406,-0.0034045111387968063,-0.0028330087661743164
1772571216501758000,5.920758056640625,-0.05694103240966797,-0.0018157274462282658,0.004164516925811768
1772571216519592700,5.9385927734375,-0.055767059326171875,-0.004512949846684933,-0.0007287263870239258
1772571216537427200,5.95642724609375,-0.06436347961425781,-0.006107899360358715,-0.0014219880104064941
1772571216555263500,5.974263427734375,-0.06274890899658203,-0.006293081678450108,-0.0060991644859313965
1772571216573097700,5.99209765625,-0.05664825439453125,-0.0023262896575033665,-0.0033836960792541504
1772571216590933000,6.00993310546875,-0.05686473846435547,-0.0005417503416538239,0.0011314153671264648
1772571216608767200,6.027767333984375,-0.05461406707763672,-0.000015121884644031525,-0.0023807883262634277
1772571216626603000,6.04560302734375,-0.05831336975097656,0.0018511158414185047,0.0007655024528503418
1772571216644437200,6.063437255859375,-0.05823230743408203,-0.0025857770815491676,-0.0038107633590698242
1772571216662273000,6.08127294921875,-0.06001091003417969,0.002419570926576853,-0.005077838897705078
1772571216680107300,6.099107177734375,-0.05800914764404297,-0.002490776125341654,0.0006424784660339355
1772571216697943300,6.116943359375,-0.06063365936279297,-0.004446763079613447,-0.0013474822044372559
1772571216715777500,6.134777587890625,-0.061031341552734375,-0.00868344958871603,-0.0034162402153015137
1772571216733613000,6.152613037109375,-0.05817413330078125,-0.003982278984040022,-0.004784345626831055
1772571216751447600,6.170447509765625,-0.058876991271972656,-0.004481635056436062,-0.0009697079658508301
1772571216769283300,6.188283447265625,-0.05200386047363281,-0.004654864780604839,0.0015274882316589355
1772571216787117300,6.206117431640625,-0.05501079559326172,-0.0018043164163827896,-0.0012773871421813965
1772571216804952800,6.223952880859375,-0.05432891845703125,-0.0042393626645207405,-0.0016903281211853027
1772571216822787000,6.241787109375,-0.061206817626953125,-0.006299387197941542,0.003361046314239502
1772571216840621000,6.25962109375,-0.05754852294921875,-0.001934664323925972,0.0020450949668884277
1772571216858445000,6.277445068359375,-0.059912681579589844,-0.0011196318082511425,0.0028685927391052246
1772571216876277200,6.29527734375,-0.05914115905761719,-0.000004381407052278519,-0.0009218454360961914
1772571216894130700,6.313130615234375,-0.06600093841552734,-0.0038282740861177444,-0.0027837157249450684
1772571216911963000,6.330962890625,-0.060050010681152344,-0.005335475318133831,-0.0019864439964294434
1772571216929797400,6.34879736328125,-0.06208515167236328,-0.002736478578299284,0.0001169443130493164
1772571216947633000,6.3666328125,-0.061255455017089844,-0.0023422734811902046,0.002701401710510254
1772571216965467400,6.38446728515625,-0.05706024169921875,-0.001364859752357006,-0.002240300178527832
1772571216983302700,6.402302734375,-0.051072120666503906,-0.004017683677375317,-0.0017331838607788086
1772571217001137200,6.42013720703125,-0.053742408752441406,-0.005426166579127312,-0.002747654914855957
1772571217018972700,6.43797265625,-0.05529308319091797,-0.0006536282598972321,0.0013111233711242676
1772571217036807000,6.455806884765625,-0.06365394592285156,-0.0011117463000118732,0.0002219080924987793
1772571217054643500,6.4736435546875,-0.06151580810546875,0.0000030086375772953033,0.00312042236328125
1772571217072477700,6.491477783203125,-0.0663766860961914,-0.0007205973379313946,0.0003980398178100586
1772571217090312700,6.509312744140625,-0.06012916564941406,-0.003814335446804762,0.0029384493827819824
1772571217108147200,6.527147216796875,-0.05853557586669922,-0.004350543953478336,-0.0054361820220947266
1772571217125982500,6.544982421875,-0.06072998046875,-0.0045483410358428955,0.000929415225982666
1772571217143817000,6.56281689453125,-0.056354522705078125,-0.0073411716148257256,-0.006162703037261963
1772571217161652500,6.580652587890625,-0.06267833709716797,-0.0006679436191916466,-0.004312038421630859
1772571217179487200,6.5984873046875,-0.06070232391357422,0.0019802632741630077,-0.005966901779174805
1772571217197322800,6.61632275390625,-0.059905052185058594,0.0005295411683619022,-0.004123806953430176
1772571217215157200,6.6341572265625,-0.058017730712890625,-0.00467408262193203,-0.0017023086547851562
1772571217232992800,6.65199267578125,-0.05885791778564453,-0.004372192546725273,-0.0021882057189941406
1772571217250827300,6.6698271484375,-0.05785560607910156,0.0015539680607616901,-0.0026129484176635742
1772571217268662800,6.687662841796875,-0.06582355499267578,-0.0035755643621087074,-0.0004711151123046875
1772571217286496800,6.705496826171875,-0.0577545166015625,-0.0002930453047156334,-0.0026735663414001465
1772571217304320500,6.723320556640625,-0.059937477111816406,-0.0006798352114856243,0.0009337663650512695
1772571217322166800,6.741166748046875,-0.06204700469970703,0.0009458032436668873,0.0013425946235656738
1772571217339996700,6.75899658203125,-0.060596466064453125,-0.0009741280227899551,-0.0023599863052368164
1772571217357837000,6.776837158203125,-0.06179618835449219,-0.004273479338735342,-0.0006837844848632812
1772571217375665400,6.79466552734375,-0.057135581970214844,-0.0007849419489502907,-0.004640817642211914
1772571217393504000,6.81250390625,-0.053872108459472656,-0.002336958423256874,-0.0037493109703063965
1772571217411346000,6.830345947265625,-0.054146766662597656,-0.004507276229560375,-0.00337982177734375
1772571217429176800,6.8481767578125,-0.06117534637451172,-0.002072669565677643,-0.0062323808670043945
1772571217447012600,6.8660126953125,-0.055896759033203125,-0.00461867731064558,-0.002696096897125244
1772571217464846800,6.883846923828125,-0.061438560485839844,-0.006259300280362368,-0.0020869970321655273
1772571217482682400,6.901682373046875,-0.06115150451660156,-0.0012672017328441143,-0.0029204487800598145
1772571217500514300,6.919514404296875,-0.06518268585205078,-0.0035594534128904343,-0.0005366802215576172
1772571217518350800,6.937350830078125,-0.06400871276855469,-0.006821928545832634,-0.005350351333618164
1772571217536188000,6.95518798828125,-0.061557769775390625,-0.00500743743032217,-0.0048863887786865234
1772571217554025700,6.973025634765625,-0.061186790466308594,-0.007214345969259739,-0.0030316710472106934
1772571217571854300,6.990854248046875,-0.058829307556152344,-0.001121792010962963,-0.0004399418830871582
1772571217589694700,7.00869482421875,-0.06139945983886719,-0.0034939683973789215,-0.005866944789886475
1772571217607526400,7.0265263671875,-0.05593109130859375,-0.004152272827923298,-0.0016460418701171875
1772571217625362000,7.04436181640625,-0.05508899688720703,-0.004157534800469875,0.002807140350341797
1772571217643196400,7.062196533203125,-0.05255413055419922,-0.001325465738773346,0.0007247328758239746
1772571217661031700,7.08003173828125,-0.06093406677246094,-0.004853727295994759,-0.0015488862991333008
1772571217678866400,7.097866455078125,-0.056357383728027344,-0.004181642550975084,0.0033777356147766113
1772571217696702200,7.1157021484375,-0.056804656982421875,-0.002963434439152479,0.0018920302391052246
1772571217714536700,7.13353662109375,-0.057514190673828125,-0.010012193582952023,-0.005607306957244873
1772571217732372200,7.151372314453125,-0.05890369415283203,-0.0032962760888040066,-0.000055909156799316406
1772571217750206700,7.169206787109375,-0.06251239776611328,-0.00798267312347889,-0.0023604631423950195
1772571217768042200,7.187042236328125,-0.06304168701171875,-0.00396482739597559,-0.0030360817909240723
1772571217785876500,7.20487646484375,-0.060706138610839844,-0.006847737357020378,-0.005539953708648682
1772571217803713500,7.222713623046875,-0.060349464416503906,0.0013296669349074364,-0.003034055233001709
1772571217821546500,7.24054638671875,-0.05916309356689453,0.003904897253960371,-0.003235936164855957
1772571217839369200,7.258369140625,-0.060126304626464844,-0.0045721763744950294,-0.0007304549217224121
1772571217857216300,7.27621630859375,-0.05571556091308594,-0.000450904481112957,-0.0006057620048522949
1772571217875052000,7.294052001953125,-0.04984569549560547,-0.0033157248981297016,-0.0035952329635620117
1772571217892886500,7.311886474609375,-0.06115245819091797,-0.003731349017471075,-0.0027365684509277344
1772571217910721800,7.3297216796875,-0.051812171936035156,-0.0038678813725709915,-0.009648382663726807
1772571217928556500,7.347556640625,-0.054968833923339844,0.0002126004546880722,0.0015133023262023926
1772571217946392000,7.36539208984375,-0.05658531188964844,-0.0032023671083152294,-0.00847470760345459
1772571217964226300,7.383226318359375,-0.059266090393066406,-0.0017410623840987682,-0.009966671466827393
1772571217982050800,7.40105078125,-0.06309700012207031,-0.0026547941379249096,-0.0029897689819335938
1772571217999892500,7.418892578125,-0.06821918487548828,0.003143331967294216,-0.008633553981781006
1772571218017731300,7.4367314453125,-0.06398391723632812,-0.0071102771908044815,-0.00309598445892334
1772571218035570000,7.45456982421875,-0.05748176574707031,-0.006591354962438345,-0.004259943962097168
1772571218053401900,7.47240185546875,-0.06767654418945312,-0.009382875636219978,-0.0026660561561584473
1772571218071236000,7.490236083984375,-0.06415367126464844,-0.002624879125505686,-0.005523502826690674
