time,seconds_elapsed,z,y,x
1772572718847665200,0.1296650390625,-0.28603076934814453,0.1386423110961914,0.1081821620464325
1772572718865511700,0.14751171875,-0.30504608154296875,0.13293933868408203,0.10072684288024902
1772572718883342300,0.16534228515625,-0.17207813262939453,-0.021663188934326172,0.0628896951675415
1772572718901183000,0.183182861328125,-0.0916128158569336,-0.13933992385864258,0.018848568201065063
1772572718919018200,0.201018310546875,-0.13098812103271484,-0.20078682899475098,-0.005656719207763672
1772572718936854000,0.21885400390625,-0.3860893249511719,-0.04586911201477051,-0.011304706335067749
1772572718954690000,0.23668994140625,-0.4932680130004883,0.06126976013183594,0.1431649923324585
1772572718972525600,0.254525634765625,-0.29819202423095703,0.04857754707336426,0.2296271026134491
1772572718990360800,0.27236083984375,0.016106605529785156,0.051054954528808594,0.23856571316719055
1772572719008196400,0.2901962890625,0.13298320770263672,-0.014928817749023438,0.3003329932689667
1772572719026032000,0.3080322265625,-0.0735015869140625,-0.04534626007080078,0.21299833059310913
1772572719043867600,0.32586767578125,-0.3446340560913086,-0.05214047431945801,0.13697588443756104
1772572719061702100,0.3437021484375,-0.19028949737548828,-0.09320497512817383,0.18515443801879883
1772572719079538400,0.361538330078125,-0.05708789825439453,0.016344070434570312,0.25101161003112793
1772572719097376000,0.3793759765625,-0.19127845764160156,0.030268073081970215,0.24493306875228882
1772572719115210000,0.3972099609375,-0.38341331481933594,0.07924854755401611,0.19568151235580444
1772572719133045500,0.41504541015625,-0.23051738739013672,0.09599852561950684,0.20281410217285156
1772572719150881300,0.43288134765625,-0.06412696838378906,0.043705105781555176,0.19251714646816254
1772572719168716500,0.450716552734375,-0.01589679718017578,-0.005232572555541992,0.1098836213350296
1772572719186552300,0.46855224609375,-0.11646652221679688,0.043047189712524414,0.09595687687397003
1772572719204388000,0.48638818359375,-0.13622474670410156,0.1294475793838501,0.13830414414405823
1772572719222224100,0.50422412109375,-0.17253875732421875,0.24306821823120117,0.27295011281967163
1772572719240059400,0.522059326171875,-0.14551067352294922,0.22918522357940674,0.4414951801300049
1772572719257895000,0.53989501953125,0.1550121307373047,0.20354390144348145,0.49925410747528076
1772572719275730700,0.557730712890625,0.19157028198242188,0.1731102466583252,0.5022488832473755
1772572719293566500,0.57556640625,0.03027820587158203,0.24240612983703613,0.40261176228523254
1772572719311402200,0.59340234375,-0.17252445220947266,0.04894709587097168,0.08710692822933197
1772572719329237800,0.61123779296875,-0.10179901123046875,-0.17792940139770508,-0.1475890874862671
1772572719347069200,0.629069091796875,0.05227088928222656,-0.30561161041259766,-0.2213800847530365
1772572719364908800,0.64690869140625,0.1873798370361328,-0.384411096572876,-0.16203492879867554
1772572719382742300,0.6647421875,0.1438436508178711,-0.357227087020874,-0.06018299609422684
1772572719400582100,0.68258203125,0.08920860290527344,-0.11426258087158203,0.1088750883936882
1772572719418415400,0.700415283203125,0.08301162719726562,0.033095479011535645,0.22301281988620758
1772572719436251400,0.71825146484375,0.17172718048095703,-0.013106703758239746,0.1613512933254242
1772572719454086700,0.736086669921875,0.3435964584350586,-0.14957678318023682,0.03145955502986908
1772572719471922700,0.753922607421875,0.17717552185058594,-0.1419510841369629,-0.04554693028330803
1772572719489747200,0.771747314453125,0.037407875061035156,-0.02993297576904297,-0.06023484468460083
1772572719507581200,0.789581298828125,0.08751583099365234,0.00025177001953125,-0.03418514505028725
1772572719525431000,0.80743115234375,-0.07349586486816406,0.010714530944824219,-0.07321657240390778
1772572719543252000,0.825251953125,-0.23761463165283203,0.08417510986328125,-0.0667024478316307
1772572719561101000,0.84310107421875,-0.04016399383544922,0.050284504890441895,-0.020117290318012238
1772572719578935800,0.860935791015625,0.022805213928222656,-0.004595756530761719,0.01844927668571472
1772572719596771600,0.878771484375,-0.11782550811767578,0.04317975044250488,0.06941850483417511
1772572719614607000,0.896607177734375,-0.17577838897705078,0.01554727554321289,0.09917597472667694
1772572719632443000,0.91444287109375,-0.15279483795166016,-0.007764458656311035,0.09776794910430908
1772572719650278100,0.932278076171875,-0.07158660888671875,-0.06236112117767334,0.12188319116830826
1772572719668114000,0.950114013671875,0.04179573059082031,-0.15667641162872314,0.09878282994031906
1772572719685949400,0.967949462890625,0.002956390380859375,-0.1988072395324707,0.08128034323453903
1772572719703785500,0.985785400390625,0.008841514587402344,-0.1244882345199585,0.1583804041147232
1772572719721621000,1.00362109375,-0.07412147521972656,-0.07203757762908936,0.19637516140937805
1772572719739456500,1.02145654296875,-0.02274608612060547,-0.0921701192855835,0.17526081204414368
1772572719757292000,1.0392919921875,0.16431045532226562,-0.1926356554031372,0.09080973267555237
1772572719775127800,1.0571279296875,0.31328392028808594,-0.24595212936401367,0.05875889211893082
1772572719792963600,1.074963623046875,0.0776529312133789,-0.09094274044036865,0.11704163998365402
1772572719810799400,1.09279931640625,-0.06116008758544922,0.08555102348327637,0.21276503801345825
1772572719828635000,1.110634765625,-0.0005645751953125,0.19019126892089844,0.21064621210098267
1772572719846470100,1.12847021484375,0.08224678039550781,0.14723312854766846,0.2541603446006775
1772572719864306000,1.146305908203125,0.04929924011230469,0.05138194561004639,0.2429993748664856
1772572719882141200,1.16414111328125,0.06579113006591797,-0.006602644920349121,0.15297634899616241
1772572719899977000,1.18197705078125,0.3831968307495117,-0.03022289276123047,0.09960106760263443
1772572719917812500,1.1998125,0.20336151123046875,-0.08527958393096924,0.21815738081932068
1772572719935648800,1.217648681640625,-0.006214141845703125,-0.03834736347198486,0.2545006275177002
1772572719953483800,1.23548388671875,-0.17912578582763672,0.04987621307373047,0.35446450114250183
1772572719971319600,1.253319580078125,-0.2530946731567383,0.08772027492523193,0.20099660754203796
1772572719989154800,1.27115478515625,-0.32018470764160156,0.04508841037750244,0.0945391058921814
1772572720006990000,1.288989990234375,-0.10057544708251953,-0.11887478828430176,0.08168631792068481
1772572720024827400,1.306827392578125,0.03684520721435547,-0.15588665008544922,0.013142377138137817
1772572720042661400,1.324661376953125,-0.17937946319580078,-0.10214018821716309,-0.019026607275009155
1772572720060498200,1.342498291015625,-0.43618202209472656,-0.05037736892700195,-0.06354835629463196
1772572720078333000,1.3603330078125,-0.519688606262207,0.0005757808685302734,-0.07849416136741638
1772572720096168700,1.378168701171875,-0.5591983795166016,0.05806088447570801,0.0517699271440506
1772572720114004500,1.39600439453125,-0.5319585800170898,0.11428213119506836,0.17586961388587952
1772572720131840000,1.413840087890625,-0.30959606170654297,0.1058189868927002,0.2129625678062439
1772572720149665500,1.43166552734375,-0.01979541778564453,0.07267618179321289,0.283871591091156
1772572720167511000,1.449510986328125,-0.022686004638671875,-0.021138787269592285,0.21324755251407623
1772572720185334300,1.467334228515625,-0.024749755859375,-0.11391448974609375,0.10545927286148071
1772572720203182600,1.4851826171875,0.10797309875488281,-0.17317843437194824,0.09902489185333252
1772572720221018400,1.503018310546875,-0.0070362091064453125,-0.158829927444458,0.06722559034824371
1772572720238853600,1.520853515625,-0.058434486389160156,-0.03027927875518799,0.08628305047750473
1772572720256689400,1.538689453125,-0.02879047393798828,0.027530193328857422,0.15627621114253998
1772572720274525200,1.556525146484375,-0.07826614379882812,0.033453941345214844,0.13178330659866333
1772572720292361000,1.57436083984375,-0.027690887451171875,-0.00400388240814209,0.07789726555347443
1772572720310196500,1.592196533203125,-0.18265819549560547,0.02671945095062256,0.08110568672418594
1772572720328031700,1.61003173828125,-0.1875753402709961,0.005314350128173828,0.06734879314899445
1772572720345867500,1.627867431640625,0.006435394287109375,0.003233671188354492,0.1007448136806488
1772572720363703000,1.645703125,0.09308815002441406,-0.02388155460357666,0.14128902554512024
1772572720381538800,1.663538818359375,0.03409862518310547,-0.06415164470672607,0.11815070360898972
1772572720399374000,1.6813740234375,-0.04834270477294922,-0.07749950885772705,0.1137864887714386
1772572720417210000,1.699210205078125,0.17058467864990234,-0.08845436573028564,0.23711247742176056
1772572720435045600,1.717045654296875,0.1503162384033203,-0.10211586952209473,0.23756735026836395
1772572720452881000,1.734880859375,-0.053684234619140625,-0.11400508880615234,0.09630097448825836
1772572720470716700,1.752716552734375,-0.1278514862060547,-0.08148062229156494,0.056950293481349945
1772572720488552400,1.770552490234375,-0.012872695922851562,-0.12542080879211426,0.0667426735162735
1772572720506388200,1.78838818359375,-0.05275917053222656,-0.21477746963500977,-0.0282299667596817
1772572720524224000,1.80622412109375,-0.1428232192993164,-0.2361084222793579,-0.12399906665086746
1772572720542059500,1.8240595703125,-0.06330204010009766,-0.13701629638671875,-0.024909771978855133
1772572720559894500,1.84189453125,-0.03313732147216797,-0.0347057580947876,0.08207724988460541
1772572720577730300,1.859730224609375,-0.18155384063720703,-0.052261948585510254,-0.010027848184108734
1772572720595566000,1.877566162109375,-0.1449575424194336,-0.08430051803588867,-0.05876411497592926
1772572720613389300,1.895389404296875,0.07743453979492188,-0.03547048568725586,0.08499833196401596
1772572720631237400,1.9132373046875,0.10943984985351562,0.08026111125946045,0.17813754081726074
1772572720649060600,1.931060546875,0.12363147735595703,0.12425446510314941,0.22634075582027435
1772572720666908400,1.948908447265625,0.06317901611328125,0.11165642738342285,0.2383425086736679
1772572720684726300,1.966726318359375,0.08870315551757812,0.0418018102645874,0.18474450707435608
1772572720702580200,1.984580322265625,0.1393747329711914,-0.021463394165039062,0.17457148432731628
1772572720720415200,2.002415283203125,0.01987934112548828,0.01784360408782959,0.20176571607589722
1772572720738251000,2.0202509765625,-0.0037508010864257812,0.06968379020690918,0.17645026743412018
1772572720756087000,2.038087158203125,0.04922771453857422,-0.08043563365936279,0.21254047751426697
1772572720773922600,2.055922607421875,0.036632537841796875,-0.16664743423461914,0.18610069155693054
1772572720791758300,2.07375830078125,-0.007961273193359375,-0.12316370010375977,0.1779363602399826
1772572720809593600,2.091593505859375,-0.047493934631347656,0.007064938545227051,0.25772565603256226
1772572720827429400,2.109429443359375,-0.0950784683227539,0.02322852611541748,0.28313758969306946
1772572720845265000,2.127264892578125,-0.22042083740234375,-0.046562910079956055,0.19729560613632202
1772572720863100700,2.1451005859375,-0.3610515594482422,-0.10739445686340332,0.037989482283592224
1772572720880934700,2.1629345703125,-0.2556295394897461,-0.1391000747680664,0.0008432194590568542
1772572720898773000,2.18077294921875,-0.10410690307617188,-0.0430988073348999,0.13213124871253967
1772572720916607200,2.198607177734375,-0.029359817504882812,-0.0014033317565917969,0.18863530457019806
1772572720934443000,2.216443115234375,-0.12495040893554688,-0.03402066230773926,0.12983465194702148
1772572720952278800,2.23427880859375,-0.2657909393310547,-0.06936967372894287,0.03074522316455841
1772572720970114000,2.252114013671875,-0.1387929916381836,-0.08854925632476807,0.04848787188529968
1772572720987949800,2.26994970703125,0.07241153717041016,-0.11204934120178223,0.07664492726325989
1772572721005785600,2.28778564453125,0.08492851257324219,-0.0784912109375,0.11688359081745148
1772572721023608600,2.305608642578125,-0.016486167907714844,0.04036450386047363,0.17877966165542603
1772572721041456600,2.32345654296875,0.13199901580810547,0.09223711490631104,0.262073278427124
1772572721059292400,2.34129248046875,0.17606258392333984,-0.04591679573059082,0.17708510160446167
1772572721077124400,2.359124267578125,0.0023937225341796875,-0.13311147689819336,0.011845201253890991
1772572721094963700,2.376963623046875,-0.046802520751953125,-0.06413531303405762,0.029201462864875793
1772572721112799200,2.39479931640625,-0.09351444244384766,0.09276115894317627,0.16648553311824799
1772572721130635000,2.412635009765625,-0.16232776641845703,0.13954198360443115,0.1746831238269806
1772572721148470500,2.430470458984375,0.047715187072753906,0.0389103889465332,0.12676329910755157
1772572721166306300,2.448306396484375,0.38885021209716797,-0.00742650032043457,0.25728434324264526
1772572721184141800,2.466141845703125,0.16162872314453125,-0.013839483261108398,0.16402670741081238
1772572721201977300,2.483977294921875,-0.08756446838378906,-0.02174842357635498,0.033759430050849915
1772572721251024600,2.533024658203125,0.0037889480590820312,-0.03280901908874512,0.20070773363113403
1772572721268859600,2.550859619140625,-0.12122631072998047,-0.02429962158203125,0.14445918798446655
1772572721286685400,2.568685546875,-0.1959247589111328,-0.08482861518859863,0.08790384232997894
1772572721304532000,2.586531982421875,-0.16596603393554688,-0.0837486982345581,0.1023583710193634
1772572721322367000,2.604366943359375,-0.1436786651611328,-0.025916337966918945,0.1603260338306427
1772572721340202200,2.6222021484375,-0.1559600830078125,-0.033446311950683594,0.12416984140872955
1772572721358038300,2.640038330078125,-0.14031410217285156,-0.04575967788696289,0.13088151812553406
1772572721375873800,2.657873779296875,-0.06212043762207031,0.003995418548583984,0.22461867332458496
1772572721393711000,2.675711181640625,-0.08946704864501953,0.012530207633972168,0.20902866125106812
1772572721411543600,2.69354345703125,-0.10505104064941406,-0.03568089008331299,0.16179516911506653
1772572721429376300,2.711376220703125,-0.10301589965820312,-0.0636751651763916,0.13046258687973022
1772572721447213800,2.7292138671875,-0.04356670379638672,-0.0624692440032959,0.1605270355939865
1772572721465055000,2.747054931640625,0.005953788757324219,0.004657268524169922,0.25813430547714233
1772572721482875400,2.76487548828125,-0.20893287658691406,0.03576695919036865,0.19374477863311768
1772572721500716800,2.782716796875,-0.15079784393310547,-0.06650269031524658,0.07062184810638428
1772572721518549000,2.800549072265625,-0.046779632568359375,-0.08092260360717773,0.08871258795261383
1772572721536394500,2.81839453125,0.06601715087890625,-0.012346625328063965,0.1803860068321228
1772572721554229800,2.836229736328125,0.0641937255859375,0.03136909008026123,0.19893383979797363
1772572721572065500,2.8540654296875,0.01702880859375,0.010954737663269043,0.1501772403717041
1772572721589901000,2.871901123046875,0.022462844848632812,-0.02655196189880371,0.07847639918327332
1772572721607732700,2.889732666015625,-0.00691986083984375,-0.032932400703430176,0.0891411155462265
1772572721625559800,2.907559814453125,-0.14334869384765625,-0.05445396900177002,0.058534443378448486
1772572721643408400,2.925408447265625,-0.17642593383789062,-0.028698086738586426,0.049414172768592834
1772572721661239800,2.94323974609375,-0.1611194610595703,0.004041075706481934,0.11704689264297485
1772572721679083800,2.961083740234375,-0.22840213775634766,-0.04432332515716553,0.05040809512138367
1772572721696915000,2.9789150390625,-0.1427755355834961,-0.05995333194732666,0.024944573640823364
1772572721714738400,2.996738525390625,-0.11168098449707031,0.035388946533203125,0.18775856494903564
1772572721732586500,3.01458642578125,0.05589580535888672,0.01708519458770752,0.1953052282333374
1772572721750422300,3.03242236328125,0.0900125503540039,-0.09623730182647705,0.127421572804451
1772572721768257500,3.050257568359375,0.05957603454589844,-0.15201830863952637,0.05566975474357605
1772572721786093600,3.068093505859375,0.015194892883300781,-0.12530303001403809,0.07362399995326996
1772572721803929000,3.08592919921875,-0.05365753173828125,-0.016406774520874023,0.11024533212184906
1772572721821764600,3.1037646484375,-0.019385337829589844,0.062302231788635254,0.19659049808979034
1772572721839599900,3.121599853515625,-0.05261802673339844,0.128709077835083,0.25574246048927307
1772572721857436000,3.139435791015625,-0.12962818145751953,0.07947468757629395,0.1494213342666626
1772572721875271700,3.157271728515625,-0.08933067321777344,-0.016694307327270508,0.06644055247306824
1772572721893107500,3.175107421875,0.030660629272460938,-0.03194618225097656,0.09597599506378174
1772572721910942200,3.192942138671875,0.11582660675048828,0.0009324550628662109,0.16121427714824677
1772572721928778800,3.21077880859375,-0.05486106872558594,0.0456620454788208,0.16280728578567505
1772572721946614300,3.2286142578125,-0.1524505615234375,0.05763602256774902,0.13419698178768158
1772572721964449800,3.24644970703125,0.019802093505859375,0.05158340930938721,0.2226306051015854
1772572721982284800,3.264284912109375,0.0036001205444335938,0.048964500427246094,0.24464468657970428
1772572722000120600,3.28212060546875,-0.2277841567993164,-0.004004836082458496,0.1297745257616043
1772572722017942800,3.29994287109375,-0.3887958526611328,-0.08747231960296631,0.053237080574035645
1772572722035783200,3.317783203125,-0.3562765121459961,0.020120620727539062,0.0969925969839096
1772572722053630500,3.33563037109375,-0.10042095184326172,0.05044078826904297,0.1770109087228775
1772572722071463700,3.353463623046875,0.034386634826660156,-0.019046306610107422,0.13365274667739868
1772572722089300500,3.371300537109375,0.1449728012084961,-0.07672035694122314,0.10338851809501648
1772572722107135200,3.38913525390625,0.29161739349365234,-0.15033483505249023,0.10187497735023499
1772572722124966700,3.406966552734375,0.20942211151123047,-0.13308775424957275,0.07355892658233643
1772572722142809900,3.424809814453125,0.12385749816894531,-0.08534479141235352,0.044593364000320435
1772572722160641500,3.4426416015625,0.037796974182128906,-0.017949461936950684,0.08512941002845764
1772572722178477800,3.460477783203125,-0.016663551330566406,0.03592729568481445,0.10372215509414673
1772572722196313000,3.47831298828125,-0.02826213836669922,0.01456904411315918,0.10202203691005707
1772572722214148900,3.49614892578125,-0.051177024841308594,-0.04368031024932861,0.06846264004707336
1772572722231984400,3.513984375,-0.07251548767089844,-0.08700573444366455,0.05677372217178345
1772572722249820200,3.531820068359375,-0.21189594268798828,-0.023000478744506836,0.08760809898376465
1772572722267655400,3.549655517578125,-0.17733097076416016,0.07994353771209717,0.21185937523841858
1772572722285491200,3.5674912109375,-0.13367938995361328,0.05774223804473877,0.22160005569458008
1772572722303324000,3.585323974609375,-0.21944236755371094,-0.03626406192779541,0.12871012091636658
1772572722321165600,3.60316552734375,-0.2664194107055664,-0.07081210613250732,0.07754147052764893
1772572722338997800,3.620997802734375,-0.23115062713623047,-0.07174420356750488,0.07887223362922668
1772572722356833800,3.638833740234375,-0.07962989807128906,-0.058858394622802734,0.0713295042514801
1772572722374669300,3.65666943359375,0.07806205749511719,-0.08163690567016602,0.09551447629928589
1772572722392505300,3.67450537109375,0.1502370834350586,-0.019387006759643555,0.1490268111228943
1772572722410340400,3.69234033203125,0.12363529205322266,0.045006513595581055,0.17383074760437012
1772572722428176600,3.7101767578125,0.1112222671508789,-0.012377262115478516,0.13831526041030884
1772572722446012200,3.72801220703125,0.1663837432861328,-0.0715569257736206,0.08865177631378174
1772572722463848200,3.74584814453125,0.123260498046875,-0.07147216796875,0.07934945821762085
1772572722481673200,3.763673095703125,-0.001552581787109375,-0.010745525360107422,0.10109907388687134
1772572722499518700,3.781518798828125,-0.0540618896484375,0.0268552303314209,0.12812259793281555
1772572722517342000,3.799342041015625,-0.12918949127197266,0.037821292877197266,0.1298300325870514
1772572722535190500,3.8171904296875,-0.015655517578125,-0.051253557205200195,0.10611644387245178
1772572722553023200,3.835023193359375,-0.106903076171875,-0.06733715534210205,0.0929778516292572
1772572722570861600,3.852861572265625,-0.27031993865966797,-0.005831122398376465,0.09743157029151917
1772572722588694500,3.870694580078125,-0.29056358337402344,0.06299781799316406,0.1290421336889267
1772572722606533400,3.888533447265625,-0.060675621032714844,0.021813631057739258,0.16413122415542603
1772572722624368400,3.906368408203125,0.06845855712890625,-0.04742240905761719,0.16492831707000732
1772572722642204200,3.9242041015625,0.008703231811523438,-0.03242063522338867,0.17193815112113953
1772572722660039700,3.942039794921875,0.006470680236816406,-0.0017752647399902344,0.19430279731750488
1772572722677875700,3.959875732421875,-0.019913673400878906,-0.0036581754684448242,0.187871053814888
1772572722695711000,3.9777109375,-0.15137958526611328,-0.018082618713378906,0.15033318102359772
1772572722713546800,3.995546630859375,-0.23427200317382812,-0.012614250183105469,0.1275164783000946
1772572722731382000,4.013382080078125,-0.11471271514892578,0.023621201515197754,0.14500068128108978
1772572722749218600,4.031218505859375,0.09436702728271484,-0.008873820304870605,0.2050030380487442
1772572722767052000,4.049052001953125,0.004322052001953125,-0.06376397609710693,0.11892417073249817
1772572722784888300,4.066888427734375,-0.06486034393310547,-0.0909574031829834,0.0634397566318512
1772572722802728000,4.08472802734375,0.028900146484375,-0.10799872875213623,0.08389078080654144
1772572722820560600,4.102560546875,-0.009710311889648438,-0.03660726547241211,0.12222012877464294
1772572722838395600,4.120395751953125,0.03325080871582031,-0.053246378898620605,0.13680095970630646
1772572722856231700,4.138231689453125,-0.10447025299072266,-0.021477222442626953,0.12013742327690125
1772572722874067200,4.156067138671875,-0.1694488525390625,0.00045990943908691406,0.0852934718132019
1772572722891903200,4.1739033203125,0.0657968521118164,-0.007356405258178711,0.16422292590141296
1772572722909738200,4.19173828125,-0.015964508056640625,0.04740786552429199,0.1783299744129181
1772572722927574500,4.209574462890625,-0.07780647277832031,-0.004648923873901367,0.11097164452075958
1772572722945410300,4.227410400390625,-0.038135528564453125,-0.07648861408233643,0.05757291615009308
1772572722963241500,4.245241455078125,-0.0760049819946289,-0.08512043952941895,0.048876240849494934
1772572722981082400,4.263082275390625,-0.16587257385253906,-0.06155037879943848,0.04452204704284668
1772572722998919700,4.280919677734375,-0.13974380493164062,-0.05551648139953613,0.07428483664989471
1772572723016735700,4.29873583984375,-0.18047809600830078,-0.019793391227722168,0.12748242914676666
1772572723034588400,4.31658837890625,-0.14122772216796875,-0.03734767436981201,0.15624824166297913
1772572723052414500,4.33441455078125,-0.03473377227783203,-0.08729279041290283,0.14898967742919922
1772572723070259200,4.35225927734375,0.04282569885253906,-0.09752559661865234,0.12130540609359741
1772572723088094200,4.37009423828125,0.023303985595703125,-0.11535191535949707,0.17849180102348328
1772572723105931000,4.387930908203125,-0.15063095092773438,-0.048838257789611816,0.15074142813682556
1772572723123766000,4.40576611328125,-0.2034320831298828,-0.04816997051239014,0.1484437882900238
1772572723141601800,4.423601806640625,-0.0765829086303711,-0.003830552101135254,0.21969038248062134
1772572723159439600,4.441439697265625,-0.010450363159179688,0.007103681564331055,0.2491166889667511
1772572723177273600,4.459273681640625,-0.10423469543457031,0.0496976375579834,0.2168358564376831
1772572723195108600,4.477108642578125,-0.059342384338378906,0.07214391231536865,0.212072491645813
1772572723212941600,4.494941650390625,0.1662759780883789,0.027408242225646973,0.20524778962135315
1772572723230784300,4.5127841796875,0.13673782348632812,-0.05165421962738037,0.10259619355201721
1772572723248615000,4.530614990234375,0.032036781311035156,-0.06765389442443848,0.028197288513183594
1772572723266451500,4.548451416015625,-0.07138538360595703,-0.032550692558288574,0.009092181921005249
1772572723284284000,4.566283935546875,-0.06842327117919922,-0.05909073352813721,-0.0044799745082855225
1772572723302125800,4.584125732421875,-0.07216835021972656,-0.17422640323638916,-0.10013148188591003
1772572723319958300,4.601958251953125,-0.13410472869873047,-0.216882586479187,-0.13324037194252014
1772572723337793500,4.61979345703125,-0.19141864776611328,-0.15234589576721191,-0.08646845817565918
1772572723355629300,4.63762939453125,0.03078746795654297,-0.08288991451263428,0.07491865754127502
1772572723373464800,4.65546484375,0.17057514190673828,-0.04007291793823242,0.18476718664169312
1772572723391300900,4.67330078125,0.02045726776123047,-0.057805776596069336,0.12536686658859253
1772572723409136600,4.69113671875,-0.06545257568359375,-0.08844053745269775,0.05611306428909302
1772572723426972200,4.70897216796875,-0.02043628692626953,-0.07781624794006348,0.11152902245521545
1772572723444807700,4.7268076171875,0.06887531280517578,-0.09620797634124756,0.1130029559135437
1772572723462643500,4.7446435546875,0.0882711410522461,-0.11706078052520752,0.10714280605316162
1772572723480464600,4.762464599609375,-0.045513153076171875,-0.07143259048461914,0.12111836671829224
1772572723498307800,4.780307861328125,-0.14583396911621094,0.01396799087524414,0.16412556171417236
1772572723516140500,4.798140625,-0.14232349395751953,0.060022950172424316,0.19788140058517456
1772572723533986000,4.815986083984375,0.017086029052734375,0.06902635097503662,0.26070332527160645
1772572723551821000,4.833821044921875,0.04615497589111328,0.04119312763214111,0.2519055902957916
1772572723569657000,4.851656982421875,-0.0880270004272461,0.015177607536315918,0.19965574145317078
1772572723587492900,4.869492919921875,-0.20783042907714844,0.033009886741638184,0.18437287211418152
1772572723605328400,4.887328369140625,-0.2067394256591797,0.07948541641235352,0.23781082034111023
1772572723623164000,4.905163818359375,-0.20139122009277344,0.03965926170349121,0.21229740977287292
1772572723640999400,4.92299951171875,-0.04027271270751953,-0.07974684238433838,0.18594810366630554
1772572723658835000,4.9408349609375,0.03302288055419922,-0.07902288436889648,0.22371238470077515
1772572723676671200,4.958671142578125,-0.06324005126953125,-0.02256464958190918,0.2446337342262268
1772572723694505700,4.976505615234375,-0.14455413818359375,-0.02154541015625,0.18489700555801392
1772572723712340700,4.9943408203125,-0.13471603393554688,-0.11494660377502441,0.0660032331943512
1772572723730179000,5.012178955078125,0.019985198974609375,-0.1980140209197998,0.0504586398601532
1772572723748011500,5.030011474609375,0.08054351806640625,-0.1322946548461914,0.11516273021697998
1772572723765850600,5.0478505859375,0.03399372100830078,-0.05356895923614502,0.1579069197177887
1772572723783684600,5.0656845703125,0.05953693389892578,-0.07154679298400879,0.12959957122802734
1772572723801512000,5.083511962890625,0.07630538940429688,-0.125990629196167,0.0679151713848114
1772572723819354400,5.101354248046875,-0.07126426696777344,-0.09745538234710693,0.05732947587966919
1772572723837191000,5.11919091796875,-0.1502695083618164,-0.018384456634521484,0.10631099343299866
1772572723855026700,5.137026611328125,-0.07386589050292969,-0.003802061080932617,0.1656821370124817
1772572723872862500,5.154862548828125,-0.055145263671875,-0.02341020107269287,0.17776018381118774
1772572723890684700,5.1726845703125,-0.07717514038085938,-0.07242655754089355,0.1332552134990692
1772572723908534000,5.190533935546875,0.0022487640380859375,-0.14355337619781494,0.10513296723365784
1772572723926369300,5.208369384765625,-0.03807640075683594,-0.10250318050384521,0.11688679456710815
1772572723944205000,5.226205078125,-0.1267538070678711,-0.036637306213378906,0.13800570368766785
1772572723962040800,5.244040771484375,-0.052437782287597656,-0.03481423854827881,0.166422039270401
1772572723979875800,5.261875732421875,-0.02228069305419922,-0.04202163219451904,0.15161898732185364
1772572723997712000,5.2797119140625,0.033161163330078125,-0.07484924793243408,0.1316559910774231
1772572724015547400,5.29754736328125,-0.003551483154296875,-0.08759510517120361,0.09052428603172302
1772572724033383700,5.3153837890625,-0.050121307373046875,-0.020928263664245605,0.12818074226379395
1772572724051218400,5.333218505859375,-0.00152587890625,0.04054296016693115,0.21371454000473022
1772572724069054200,5.35105419921875,0.06338977813720703,-0.00886678695678711,0.15297627449035645
1772572724086890000,5.368889892578125,0.09983253479003906,-0.10729455947875977,0.11934763193130493
1772572724104726300,5.386726318359375,-0.07643985748291016,-0.07288265228271484,0.08960124850273132
1772572724122560500,5.404560546875,-0.3329010009765625,0.028302669525146484,0.14497461915016174
1772572724140396500,5.422396484375,-0.2719449996948242,-0.0013935565948486328,0.15250319242477417
1772572724158232300,5.440232421875,-0.06540489196777344,-0.09050309658050537,0.16017058491706848
1772572724176067800,5.45806787109375,0.017322540283203125,-0.10605931282043457,0.1956343948841095
1772572724193903400,5.4759033203125,-0.05815601348876953,-0.06237483024597168,0.217146098613739
1772572724211739000,5.49373876953125,-0.19882678985595703,-0.05454587936401367,0.17458683252334595
1772572724229574400,5.511574462890625,-0.2549152374267578,-0.05857419967651367,0.14392796158790588
1772572724247410400,5.529410400390625,-0.21875858306884766,-0.06433141231536865,0.10826373100280762
1772572724265245700,5.54724560546875,-0.006913185119628906,-0.11123037338256836,0.09769794344902039
1772572724283081500,5.56508154296875,0.013108253479003906,-0.08877241611480713,0.10138306021690369
1772572724300917000,5.5829169921875,-0.11257362365722656,0.015586495399475098,0.13643783330917358
1772572724318750000,5.60075,-0.035373687744140625,0.059433579444885254,0.1900937855243683
1772572724336588000,5.618588134765625,0.007587432861328125,0.01526343822479248,0.15699034929275513
1772572724354418700,5.636418701171875,-0.06032276153564453,-0.038514018058776855,0.05711093544960022
1772572724372259300,5.65425927734375,-0.11093902587890625,-0.027151107788085938,0.03356334567070007
1772572724390088400,5.67208837890625,-0.08784675598144531,0.017551660537719727,0.10258299112319946
1772572724407918000,5.68991796875,-0.14154052734375,0.03730738162994385,0.11973604559898376
1772572724425758500,5.707758544921875,-0.09865570068359375,0.009897589683532715,0.11411148309707642
1772572724443602000,5.725601806640625,-0.060932159423828125,-0.0428924560546875,0.12095358967781067
1772572724461437700,5.743437744140625,-0.07728195190429688,-0.060436129570007324,0.06431913375854492
1772572724479273000,5.76127294921875,0.03441333770751953,-0.09849941730499268,0.10087326169013977
1772572724497109000,5.77910888671875,0.08974456787109375,-0.09072399139404297,0.16703268885612488
1772572724514943000,5.79694287109375,-0.06667709350585938,-0.041447997093200684,0.12976747751235962
1772572724532781300,5.81478125,-0.08722686767578125,-0.025016069412231445,0.12891212105751038
1772572724550615000,5.832614990234375,-0.03782844543457031,-0.025075793266296387,0.13459157943725586
1772572724568448300,5.8504482421875,-0.07410240173339844,0.0031391382217407227,0.15158003568649292
1772572724586287900,5.868287841796875,-0.06899547576904297,0.04944431781768799,0.19233137369155884
1772572724604124200,5.886124267578125,-0.1862783432006836,0.03934061527252197,0.12018722295761108
1772572724621957600,5.90395751953125,-0.31633949279785156,0.03522765636444092,0.03534281253814697
1772572724639793200,5.921793212890625,-0.272125244140625,0.08045482635498047,0.057666897773742676
1772572724657629000,5.93962890625,-0.07087039947509766,0.10315120220184326,0.13105744123458862
1772572724675464700,5.957464599609375,0.14987468719482422,0.08496415615081787,0.13067209720611572
1772572724693300000,5.975300048828125,0.30878543853759766,0.038658738136291504,0.12751969695091248
1772572724711135700,5.9931357421875,0.4353504180908203,-0.009891271591186523,0.14444440603256226
1772572724728971800,6.0109716796875,0.35153961181640625,-0.041459083557128906,0.14282816648483276
1772572724746807000,6.02880712890625,0.0733041763305664,-0.11550486087799072,0.06445068120956421
1772572724764642300,6.046642333984375,-0.09210681915283203,-0.10557985305786133,0.08741256594657898
1772572724782478000,6.06447802734375,-0.267730712890625,-0.02728259563446045,0.10292619466781616
1772572724800313300,6.082313232421875,-0.2219686508178711,-0.012575268745422363,0.1461128294467926
1772572724818136600,6.100136474609375,-0.08465576171875,-0.07819890975952148,0.1665153205394745
1772572724835984600,6.117984619140625,-0.012556076049804688,-0.15777528285980225,0.13537096977233887
1772572724853814300,6.135814208984375,-0.1262664794921875,-0.20999181270599365,0.06155630946159363
1772572724871655700,6.15365576171875,-0.30654335021972656,-0.1693720817565918,0.0474734902381897
1772572724889484800,6.17148486328125,-0.4001607894897461,-0.03064894676208496,0.1018369197845459
1772572724907327000,6.189326904296875,-0.2863292694091797,0.07282483577728271,0.18926748633384705
1772572724925162500,6.20716259765625,-0.02552509307861328,0.013014674186706543,0.20491090416908264
1772572724942998500,6.22499853515625,0.1441783905029297,-0.1060413122177124,0.12732037901878357
1772572724960834000,6.242833984375,0.08070182800292969,-0.1116715669631958,0.09438586235046387
1772572724978669300,6.26066943359375,0.04681968688964844,-0.050076842308044434,0.14563751220703125
1772572724996505000,6.278505126953125,-0.02892589569091797,-0.012165427207946777,0.14769908785820007
1772572725014337800,6.296337890625,-0.12514114379882812,-0.0396575927734375,0.08358380198478699
1772572725032179500,6.314179443359375,-0.0769205093383789,-0.08302748203277588,0.09405991435050964
1772572725050007000,6.332007080078125,-0.12539005279541016,-0.05167186260223389,0.12221911549568176
1772572725067851800,6.349851806640625,-0.12005615234375,0.002399921417236328,0.17568638920783997
1772572725085681700,6.367681640625,-0.1013641357421875,0.028089284896850586,0.2173936665058136
1772572725103519700,6.385519775390625,-0.16033935546875,0.047528624534606934,0.1964346468448639
1772572725121353700,6.403353759765625,-0.0807180404663086,-0.03020477294921875,0.15561836957931519
1772572725139189500,6.421189453125,-0.18730735778808594,-0.0005805492401123047,0.14220714569091797
1772572725157025000,6.43902490234375,-0.22227764129638672,0.08778703212738037,0.2051268219947815
1772572725174859800,6.45685986328125,-0.1222524642944336,0.11141729354858398,0.2667265236377716
1772572725192697000,6.474697021484375,-0.04670524597167969,0.10961747169494629,0.24911057949066162
1772572725210531800,6.49253173828125,0.02664947509765625,0.059712767601013184,0.23260223865509033
1772572725228354000,6.51035400390625,0.013853073120117188,0.04516029357910156,0.20231634378433228
1772572725246206200,6.528206298828125,-0.12744426727294922,0.039896488189697266,0.1433131992816925
1772572725264038700,6.54603857421875,-0.09921550750732422,-0.019565820693969727,0.046859920024871826
1772572725281874000,6.5638740234375,-0.0805826187133789,-0.10232019424438477,0.03134274482727051
1772572725299709400,6.58170947265625,-0.15239810943603516,-0.07508862018585205,0.03772798180580139
1772572725317545500,6.59954541015625,-0.29993438720703125,-0.028509974479675293,0.03320929408073425
1772572725335380700,6.617380615234375,-0.29026126861572266,-0.00024247169494628906,0.06254065036773682
1772572725353216500,6.635216552734375,-0.19180774688720703,-0.10706889629364014,-0.037895143032073975
1772572725371051800,6.6530517578125,-0.07077217102050781,-0.18810641765594482,-0.029174447059631348
1772572725388888000,6.67088818359375,0.0504608154296875,-0.14641106128692627,0.05924674868583679
1772572725406723000,6.68872314453125,0.1829385757446289,-0.04224514961242676,0.17592236399650574
1772572725424558600,6.70655859375,0.2517204284667969,-0.0019565820693969727,0.1863076090812683
1772572725442394000,6.72439404296875,0.19849586486816406,-0.0360637903213501,0.1254010796546936
1772572725460230100,6.742230224609375,-0.02659893035888672,-0.007642149925231934,0.036935895681381226
1772572725478063000,6.76006298828125,-0.053450584411621094,0.0072470903396606445,0.01779252290725708
1772572725495888000,6.777887939453125,0.023093223571777344,-0.004194498062133789,0.025682002305984497
1772572725513726000,6.795725830078125,0.0768899917602539,-0.042267680168151855,0.0433020293712616
1772572725531574500,6.813574462890625,0.055731773376464844,-0.01956939697265625,0.07623663544654846
1772572725549402000,6.831402099609375,-0.06030082702636719,-0.02362823486328125,0.06579264998435974
1772572725567243300,6.8492431640625,-0.14149761199951172,-0.0512772798538208,0.0462927520275116
1772572725585078800,6.867078857421875,-0.15181922912597656,-0.10527276992797852,0.015014022588729858
1772572725602914600,6.88491455078125,-0.009797096252441406,-0.17507529258728027,0.07291698455810547
1772572725620749300,6.902749267578125,-0.04611968994140625,-0.12163305282592773,0.14176419377326965
1772572725638585000,6.920585205078125,-0.2405414581298828,-0.03739476203918457,0.1708773970603943
1772572725656420600,6.938420654296875,-0.23844623565673828,-0.023335576057434082,0.18245941400527954
1772572725674256600,6.956256591796875,-0.07314300537109375,-0.060196638107299805,0.18754848837852478
1772572725692091400,6.97409130859375,-0.030762672424316406,-0.0422745943069458,0.20503470301628113
1772572725709927400,6.991927490234375,-0.1189584732055664,-0.0025606155395507812,0.196409672498703
1772572725727763200,7.00976318359375,-0.23651599884033203,0.03794074058532715,0.1661805808544159
1772572725745599000,7.027598876953125,-0.06946754455566406,-0.004718780517578125,0.14061757922172546
1772572725763434000,7.04543408203125,0.17873668670654297,-0.12387800216674805,0.15608936548233032
1772572725781267500,7.063267333984375,0.1489543914794922,-0.1129610538482666,0.16837835311889648
1772572725799107600,7.081107666015625,-0.010040283203125,-0.04238104820251465,0.18071892857551575
1772572725816941000,7.098941162109375,-0.14443492889404297,-0.002400636672973633,0.2017037272453308
1772572725834776000,7.116776123046875,-0.20194053649902344,0.009467840194702148,0.2129737138748169
1772572725852611800,7.13461181640625,-0.23430728912353516,-0.0015261173248291016,0.19325944781303406
1772572725870447400,7.152447265625,-0.10474300384521484,-0.050118088722229004,0.16907721757888794
1772572725888283400,7.170283447265625,0.005648612976074219,-0.06291735172271729,0.1905791163444519
1772572725906118400,7.188118408203125,-0.010533332824707031,-0.04684603214263916,0.1663098931312561
1772572725923954000,7.205953857421875,0.03217315673828125,-0.002321481704711914,0.16138264536857605
1772572725941789200,7.2237890625,0.1171865463256836,-0.01903057098388672,0.17162734270095825
1772572725959625200,7.241625244140625,0.01227569580078125,-0.018038630485534668,0.10392755270004272
1772572725977460200,7.259460205078125,-0.19355392456054688,0.020926594734191895,0.055141448974609375
1772572725995296000,7.2772958984375,-0.2586641311645508,0.036466002464294434,0.008024513721466064
1772572726013132000,7.295132080078125,-0.11056900024414062,-0.015356898307800293,0.013721883296966553
1772572726030967600,7.312967529296875,0.0256195068359375,-0.08583605289459229,0.028966575860977173
1772572726048802600,7.330802490234375,-0.03276252746582031,-0.10628247261047363,0.02913004159927368
1772572726066638300,7.348638427734375,-0.08651256561279297,-0.058881163597106934,0.06705084443092346
1772572726084473600,7.3664736328125,0.014842987060546875,-0.06419229507446289,0.14964568614959717
1772572726102309600,7.3843095703125,0.12250614166259766,-0.0940319299697876,0.19906949996948242
1772572726120132000,7.402132080078125,0.07439994812011719,-0.11420905590057373,0.1862664520740509
1772572726137980400,7.41998046875,-0.1577014923095703,-0.0175400972366333,0.1877196729183197
1772572726155803400,7.437803466796875,-0.2365579605102539,0.04322993755340576,0.19690322875976562
1772572726173652200,7.45565234375,-0.1347055435180664,0.030460119247436523,0.19223225116729736
1772572726191474400,7.473474365234375,0.05756092071533203,-0.05029106140136719,0.14336559176445007
1772572726209319200,7.491319091796875,0.07577133178710938,-0.05951571464538574,0.11700817942619324
1772572726227158300,7.509158203125,-0.03625011444091797,-0.021765828132629395,0.10930532217025757
1772572726244991000,7.526990966796875,-0.17554569244384766,0.0407867431640625,0.12329080700874329
1772572726262832000,7.54483203125,-0.2481098175048828,0.07561898231506348,0.11126813292503357
1772572726280664600,7.56266455078125,-0.18401050567626953,0.02993178367614746,0.08310708403587341
1772572726298500600,7.58050048828125,-0.028661727905273438,-0.018824338912963867,0.0832299292087555
1772572726316336000,7.598336181640625,0.20520877838134766,-0.08930516242980957,0.13262489438056946
1772572726334171100,7.616171142578125,0.2043914794921875,-0.10822689533233643,0.15068858861923218
1772572726352007000,7.6340068359375,-0.006978034973144531,-0.10136091709136963,0.10431033372879028
1772572726369837600,7.651837646484375,-0.18475341796875,-0.058556199073791504,0.08391597867012024
1772572726387680500,7.669680419921875,-0.19333267211914062,-0.029738903045654297,0.09540325403213501
1772572726405515300,7.687515380859375,-0.08427810668945312,-0.018244624137878418,0.12425410747528076
1772572726423349000,7.705348876953125,-0.04976940155029297,-0.0758519172668457,0.13140422105789185
1772572726441184300,7.723184326171875,0.0012884140014648438,-0.06627273559570312,0.14739128947257996
1772572726459020300,7.741020263671875,0.029717445373535156,-0.027164459228515625,0.16081127524375916
1772572726476854800,7.758854736328125,0.03333282470703125,-0.07896161079406738,0.1163700520992279
1772572726494691000,7.776691162109375,-0.09908199310302734,-0.11626064777374268,0.03559413552284241
1772572726512526300,7.7945263671875,-0.15349197387695312,-0.03180110454559326,0.08011814951896667
1772572726530362400,7.8123623046875,-0.044559478759765625,0.0027507543563842773,0.14099842309951782
1772572726548197400,7.830197265625,0.017314910888671875,-0.007504820823669434,0.15165814757347107
1772572726566033200,7.848033203125,0.0895395278930664,-0.0759965181350708,0.13039419054985046
1772572726583869000,7.865868896484375,0.055428504943847656,-0.0965108871459961,0.10320237278938293
1772572726601692000,7.88369189453125,-0.008301734924316406,-0.08913493156433105,0.12257349491119385
1772572726619532800,7.90153271484375,-0.07520389556884766,-0.04206264019012451,0.12793007493019104
1772572726637375200,7.919375244140625,-0.11587238311767578,-0.03941237926483154,0.11958232522010803
1772572726655210800,7.937210693359375,-0.11720657348632812,-0.05448198318481445,0.11024591326713562
1772572726673046800,7.955046875,-0.12728500366210938,-0.06797277927398682,0.1256323754787445
1772572726690881300,7.97288134765625,-0.2005758285522461,-0.08838307857513428,0.09311923384666443
1772572726708717600,7.990717529296875,-0.22424983978271484,-0.09648573398590088,0.08533662557601929
1772572726726553000,8.008552978515626,-0.16578197479248047,-0.06767487525939941,0.1463261842727661
1772572726744388900,8.026388916015625,-0.22060680389404297,-0.03377532958984375,0.1585465967655182
1772572726762223400,8.044223388671876,-0.23503875732421875,0.002252817153930664,0.16641557216644287
1772572726780059400,8.062059326171875,-0.06739997863769531,-0.03347170352935791,0.18161541223526
1772572726797893600,8.0798935546875,0.06611442565917969,-0.02685725688934326,0.193649023771286
1772572726815731700,8.097731689453125,0.1530742645263672,0.021013498306274414,0.21679913997650146
1772572726833566000,8.11556591796875,0.29659557342529297,0.023605704307556152,0.25568249821662903
1772572726851400400,8.133400390625,0.19340896606445312,-0.01727581024169922,0.15226389467716217
1772572726869237800,8.15123779296875,-0.2245779037475586,-0.021655678749084473,-0.014210864901542664
1772572726887073000,8.169072998046875,0.00682830810546875,-0.010458588600158691,0.08267085254192352
1772572726904906500,8.186906494140626,0.0922698974609375,-0.001889944076538086,0.1185545027256012
1772572726922744000,8.204744140625,-0.057974815368652344,0.04164683818817139,0.14035490155220032
1772572726940578600,8.22257861328125,-0.1465778350830078,0.016562223434448242,0.0889984667301178
1772572726958414600,8.24041455078125,-0.14853572845458984,0.059296607971191406,0.07043313980102539
1772572726976249600,8.25824951171875,-0.33493995666503906,-0.003777742385864258,-0.009919866919517517
