time,seconds_elapsed,z,y,x
1772572718816390700,0.098390625,0.014508049935102463,-0.04841107130050659,0.07223481684923172
1772572718834290200,0.116290283203125,0.010995574295520782,0.11942415684461594,0.06704246252775192
1772572718852136200,0.13413623046875,-0.001832595793530345,0.14905111491680145,0.004123340360820293
1772572718869971500,0.151971435546875,-0.018478672951459885,0.0685696229338646,-0.022449297830462456
1772572718887807000,0.169806884765625,-0.026419922709465027,-0.016798794269561768,-0.007177666760981083
1772572718905643000,0.18764306640625,-0.012828170321881771,-0.00366519158706069,-0.032528575509786606
1772572718923478300,0.205478271484375,0.029016099870204926,0.10002918541431427,-0.07696902006864548
1772572718941314300,0.223314208984375,0.07513642311096191,0.09529497474431992,-0.09926560521125793
1772572718959149600,0.241149658203125,0.07635815441608429,-0.03878994286060333,-0.12263119965791702
1772572718976985000,0.258985107421875,0.0503963828086853,-0.1014036312699318,-0.1336267739534378
1772572718994820600,0.276820556640625,0.051770828664302826,-0.07147123664617538,-0.11774427443742752
1772572719012655900,0.29465576171875,0.03420845419168472,-0.01191187184303999,-0.06750060617923737
1772572719030492700,0.31249267578125,0.015882495790719986,-0.007635815534740686,-0.021380282938480377
1772572719048327700,0.33032763671875,0.016035212203860283,-0.05192354694008827,-0.060322944074869156
1772572719066152700,0.348152587890625,0.021838432177901268,0.01771509274840355,-0.12599095702171326
1772572719083986400,0.365986328125,0.014202617108821869,0.12034045159816742,-0.1638645976781845
1772572719101834500,0.38383447265625,-0.005497787147760391,0.17104226350784302,-0.19379699230194092
1772572719119670000,0.401669921875,-0.021380282938480377,0.14782938361167908,-0.22113321721553802
1772572719137505500,0.419505615234375,-0.043218716979026794,0.07895433157682419,-0.21212296187877655
1772572719155341300,0.43734130859375,-0.05543602257966995,0.032070424407720566,-0.16951510310173035
1772572719173177000,0.455177001953125,-0.0503963828086853,0.03130684420466423,-0.14798210561275482
1772572719191012900,0.473012939453125,-0.035582900047302246,0.022602014243602753,-0.1408044397830963
1772572719208848000,0.490847900390625,-0.03894266113638878,-0.032528575509786606,-0.12950342893600464
1772572719226684000,0.508683837890625,-0.07422012835741043,-0.030543262138962746,-0.1560760736465454
1772572719244519400,0.52651953125,-0.13057245314121246,0.07406741380691528,-0.26450464129447937
1772572719262355200,0.544355224609375,-0.18646661937236786,0.2687807083129883,-0.3465133011341095
1772572719280189000,0.56218896484375,-0.24617868661880493,0.35811975598335266,-0.3533855378627777
1772572719298027500,0.580027587890625,-0.3124575614929199,0.3433062732219696,-0.3075706362724304
1772572719315861500,0.597861572265625,-0.3058907687664032,0.21700987219810486,-0.2814561724662781
1772572719333697300,0.615697265625,-0.23747386038303375,0.11362093687057495,-0.23273965716362
1772572719351532800,0.63353271484375,-0.14966198801994324,-0.023976460099220276,-0.14263702929019928
1772572719369368600,0.65136865234375,-0.07498370856046677,-0.12140946835279465,-0.032528575509786606
1772572719387187000,0.66918701171875,-0.022449297830462456,-0.168751522898674,0.036041051149368286
1772572719405039900,0.687039794921875,-0.020616702735424042,-0.18356500566005707,0.06963863968849182
1772572719422875600,0.704875732421875,-0.0555887371301651,-0.1849394589662552,0.051770828664302826
1772572719440711200,0.722711181640625,-0.07635815441608429,-0.11621711403131485,0.0007635815418325365
1772572719458546400,0.74054638671875,-0.060322944074869156,0.012828170321881771,-0.026114489883184433
1772572719476381200,0.758381103515625,-0.031001411378383636,0.07941248267889023,-0.029474247246980667
1772572719494205200,0.776205078125,-0.014049900695681572,0.03940080851316452,-0.010537425056099892
1772572719512041200,0.794041259765625,-0.010079276748001575,-0.01160643994808197,0.057879481464624405
1772572719529890600,0.811890625,0.001527163083665073,-0.06612616032361984,0.1108720451593399
1772572719547716600,0.829716552734375,0.005803219974040985,-0.12599095702171326,0.09682214260101318
1772572719565560300,0.847560302734375,0.014966198243200779,-0.06933320313692093,0.04948008432984352
1772572719583396600,0.865396728515625,0.024129176512360573,0.02168571576476097,0.03390302136540413
1772572719601231600,0.883231689453125,0.02076941914856434,0.022907447069883347,0.022449297830462456
1772572719619067400,0.9010673828125,0.013439035043120384,0.010079276748001575,0.013286318629980087
1772572719636902700,0.918902587890625,0.005955935921519995,-0.0024434609804302454,0.01038470957428217
1772572719654738700,0.93673876953125,-0.0024434609804302454,-0.021380282938480377,0.015882495790719986
1772572719672574500,0.954574462890625,0.00366519158706069,0.015118914656341076,0.005803219974040985
1772572719690409700,0.97240966796875,0.02474004216492176,0.07773260027170181,-0.0029016099870204926
1772572719708244200,0.990244140625,0.03726277872920036,0.09483683109283447,0.02168571576476097
1772572719726080000,1.008080078125,0.029474247246980667,0.05757404863834381,0.05513058975338936
1772572719743917300,1.025917236328125,0.025045474991202354,0.05497787147760391,0.0832303911447525
1772572719761753600,1.043753662109375,0.04856378585100174,0.09453139454126358,0.1137736514210701
1772572719779587600,1.061587646484375,0.08307767659425735,0.19746218621730804,0.1586722433567047
1772572719797423000,1.079423095703125,0.08918632566928864,0.20341812074184418,0.15882496535778046
1772572719815259000,1.0972587890625,0.06414084881544113,0.18035796284675598,0.1111774742603302
1772572719833094700,1.1150947265625,0.04077525436878204,0.1368338167667389,0.07757988572120667
1772572719850930000,1.132929931640625,0.005650503560900688,0.0913243517279625,0.11530081182718277
1772572719868765400,1.150765380859375,-0.020005837082862854,0.044745877385139465,0.15622878074645996
1772572719886601200,1.168601318359375,-0.01664607785642147,0.05146539583802223,0.16814066469669342
1772572719904437000,1.18643701171875,0.01817324012517929,0.156686931848526,0.19089539349079132
1772572719922272500,1.2042724609375,0.03084869496524334,0.23869559168815613,0.2028072625398636
1772572719940108000,1.22210791015625,0.027488935738801956,0.2822197377681732,0.1875356286764145
1772572719957943600,1.239943603515625,-0.0003054326225537807,0.2776382565498352,0.17180584371089935
1772572719975779600,1.257779541015625,-0.02321287989616394,0.21181751787662506,0.16462817788124084
1772572719993615400,1.275615478515625,-0.02229658141732216,0.07116580009460449,0.1635591685771942
1772572720011443500,1.293443359375,-0.02932153269648552,-0.06948592513799667,0.21013765037059784
1772572720029286100,1.3112861328125,-0.005039638374000788,-0.11621711403131485,0.27122417092323303
1772572720047118000,1.3291181640625,0.016951510682702065,-0.11957687139511108,0.242513507604599
1772572720064957700,1.346957763671875,0.039248090237379074,-0.0705549344420433,0.11407908797264099
1772572720082792400,1.36479248046875,0.07528914511203766,0.008857546374201775,-0.032070424407720566
1772572720100629500,1.38262939453125,0.07941248267889023,0.04917465150356293,-0.14385876059532166
1772572720118464300,1.40046435546875,0.054367005825042725,0.030543262138962746,-0.19165897369384766
1772572720136300000,1.418300048828125,0.02779436856508255,-0.015577063895761967,-0.1748601794242859
1772572720154135800,1.4361357421875,-0.011453723534941673,-0.08994990587234497,-0.06688974797725677
1772572720171971600,1.4539716796875,-0.04444044828414917,-0.17073683440685272,0.01771509274840355
1772572720189806600,1.471806640625,-0.03649919852614403,-0.18325957655906677,0.029168816283345222
1772572720207642400,1.489642333984375,-0.01466076634824276,-0.1495092660188675,0.035124752670526505
1772572720225478400,1.507478515625,0.0074830991216003895,-0.1359175145626068,0.020463986322283745
1772572720243313000,1.52531298828125,0.013591751456260681,-0.1394299864768982,0.0012217304902151227
1772572720261150500,1.543150390625,0.004734205547720194,-0.1498146951198578,-0.0039706239476799965
1772572720278985000,1.56098486328125,-0.010690141469240189,-0.18280142545700073,0.00045814894838258624
1772572720296820500,1.578820556640625,-0.005192354787141085,-0.21151208877563477,0.02535090781748295
1772572720314656000,1.596656005859375,-0.009468411095440388,-0.25671613216400146,0.04245513305068016
1772572720332491800,1.61449169921875,-0.008704829961061478,-0.2977968156337738,0.026419922709465027
1772572720350327600,1.63232763671875,-0.0009162978967651725,-0.22678372263908386,-0.01160643994808197
1772572720368162800,1.650162841796875,0.0032070425804704428,-0.10842858254909515,-0.060475658625364304
1772572720385998600,1.66799853515625,0.0064140851609408855,-0.03573561832308769,-0.09040805697441101
1772572720403834600,1.685834716796875,0.011759156361222267,-0.02886338345706463,-0.08399397134780884
1772572720421670400,1.70367041015625,0.0024434609804302454,-0.01160643994808197,-0.029932396486401558
1772572720439505400,1.72150537109375,-0.02168571576476097,0.007635815534740686,0.02076941914856434
1772572720457341200,1.739341064453125,-0.021074850112199783,-0.001832595793530345,0.02382374368607998
1772572720475176700,1.7571767578125,-0.020922135561704636,-0.006108652334660292,0.005345070734620094
1772572720493012700,1.7750126953125,-0.023976460099220276,0.01664607785642147,0.001679879380390048
1772572720510848300,1.79284814453125,-0.01542434748262167,0.0455094613134861,-0.0006108652451075613
1772572720528683800,1.810683837890625,0.016951510682702065,0.051770828664302826,-0.02672535367310047
1772572720546519600,1.82851953125,0.039095375686883926,0.054367005825042725,-0.037110064178705215
1772572720564355000,1.84635498046875,0.02932153269648552,0.04337143152952194,-0.02229658141732216
1772572720582190600,1.864190673828125,0.03451388701796532,-0.003512475173920393,-0.02519819140434265
1772572720600026400,1.8820263671875,0.06352998316287994,-0.059864792972803116,-0.03481931984424591
1772572720617861600,1.899861572265625,0.06918048858642578,-0.07590000331401825,-0.0007635815418325365
1772572720635697200,1.917697265625,0.05772676691412926,-0.07254024595022202,0.008857546374201775
1772572720653532700,1.93553271484375,0.04138612002134323,-0.016493361443281174,-0.012522737495601177
1772572720671368400,1.953368408203125,0.023976460099220276,0.009162978269159794,-0.02779436856508255
1772572720689204500,1.97120458984375,0.017562376335263252,-0.007788531947880983,-0.025961773470044136
1772572720707039700,1.989039794921875,0.022143865004181862,-0.00015271631127689034,0.005803219974040985
1772572720724875500,2.00687548828125,0.018325956538319588,-0.01970040425658226,0.02535090781748295
1772572720742710800,2.024710693359375,0.01542434748262167,-0.008704829961061478,0.010690141469240189
1772572720760547300,2.04254736328125,0.019394971430301666,0.028099801391363144,-0.0013744467869400978
1772572720778382000,2.060382080078125,0.021380282938480377,0.038179077208042145,0.008704829961061478
1772572720796217900,2.0782177734375,0.026419922709465027,0.0328340083360672,0.027030786499381065
1772572720814053600,2.0960537109375,0.006261368747800589,0.018020525574684143,0.05421429127454758
1772572720831889200,2.11388916015625,-0.02474004216492176,0.021074850112199783,0.06368270516395569
1772572720849724700,2.131724609375,-0.041233405470848083,0.043218716979026794,0.03955352306365967
1772572720867560400,2.149560546875,-0.025961773470044136,0.025961773470044136,-0.00733038317412138
1772572720885384000,2.167384033203125,0.003817907767370343,0,-0.03649919852614403
1772572720903232000,2.18523193359375,0.004734205547720194,-0.04138612002134323,-0.01878410577774048
1772572720921067300,2.2030673828125,-0.016798794269561768,-0.05054909735918045,0.0003054326225537807
1772572720938902800,2.22090283203125,-0.022907447069883347,-0.021074850112199783,-0.013744467869400978
1772572720956738800,2.23873876953125,-0.012064588256180286,-0.030695978552103043,-0.053297992795705795
1772572720974574300,2.25657421875,0.0003054326225537807,-0.059406645596027374,-0.07177666574716568
1772572720992410000,2.27441015625,0.012217304669320583,-0.0607810914516449,-0.05146539583802223
1772572721010245400,2.292245361328125,0.01664607785642147,-0.047800205647945404,-0.027488935738801956
1772572721028081000,2.310080810546875,0.008857546374201775,-0.020005837082862854,-0.04535674303770065
1772572721045916700,2.327916748046875,-0.018936822190880775,0.023518312722444534,-0.04688390716910362
1772572721063752400,2.34575244140625,-0.02672535367310047,0.04535674303770065,-0.014049900695681572
1772572721081588000,2.363587890625,-0.00015271631127689034,0.02122756652534008,0.0039706239476799965
1772572721099423500,2.381423583984375,0.02687807008624077,0.02519819140434265,-0.0009162978967651725
1772572721117258800,2.3992587890625,0.015118914656341076,0.04077525436878204,-0.020922135561704636
1772572721135094800,2.4170947265625,-0.004581489134579897,0.030237829312682152,-0.038179077208042145
1772572721152930600,2.4349306640625,-0.005039638374000788,0.001832595793530345,-0.021532999351620674
1772572721170766000,2.45276611328125,-0.026114489883184433,0.00366519158706069,0.07192938029766083
1772572721188601600,2.4706015625,-0.035124752670526505,0.0022907445672899485,0.1085812970995903
1772572721206437600,2.488437744140625,-0.020616702735424042,0.029626963660120964,0.0529925599694252
1772572721233100300,2.515100341796875,0.013897184282541275,0.08185594528913498,-0.002138028386980295
1772572721251024600,2.533024658203125,0.012675453908741474,0.09178250283002853,0.022143865004181862
1772572721268859600,2.550859619140625,0.00015271631127689034,0.0780380368232727,0.018020525574684143
1772572721286685400,2.568685546875,0.005955935921519995,0.08261952549219131,-0.010231993161141872
1772572721304532000,2.586531982421875,0.019089538604021072,0.06505715101957321,-0.012828170321881771
1772572721322367000,2.604366943359375,0.014202617108821869,-0.008399397134780884,0.020922135561704636
1772572721340202200,2.6222021484375,0.010537425056099892,-0.05910121276974678,0.029626963660120964
1772572721358038300,2.640038330078125,0.019547687843441963,-0.03726277872920036,-0.0064140851609408855
1772572721375873800,2.657873779296875,0.012980886735022068,0.0029016099870204926,-0.019089538604021072
1772572721393711000,2.675711181640625,-0.0019853119738399982,-0.020922135561704636,-0.00733038317412138
1772572721411543600,2.69354345703125,-0.0029016099870204926,-0.047800205647945404,-0.001527163083665073
1772572721429376300,2.711376220703125,-0.001527163083665073,-0.0377209298312664,-0.01542434748262167
1772572721447213800,2.7292138671875,0.005192354787141085,-0.003512475173920393,-0.033139441162347794
1772572721465055000,2.747054931640625,-0.005955935921519995,0.03573561832308769,-0.011453723534941673
1772572721482875400,2.76487548828125,-0.03344487398862839,-0.023060163483023643,0.003054326167330146
1772572721500716800,2.782716796875,-0.021074850112199783,-0.04841107130050659,-0.021380282938480377
1772572721518549000,2.800549072265625,0.005803219974040985,-0.040622539818286896,-0.042760565876960754
1772572721536394500,2.81839453125,0.0022907445672899485,-0.05146539583802223,-0.010079276748001575
1772572721554229800,2.836229736328125,-0.016493361443281174,-0.08414668589830399,0.01191187184303999
1772572721572065500,2.8540654296875,-0.024129176512360573,-0.04214970022439957,-0.0012217304902151227
1772572721589901000,2.871901123046875,-0.009468411095440388,0.0029016099870204926,-0.030085112899541855
1772572721607732700,2.889732666015625,-0.00427605677396059,0.014049900695681572,-0.02076941914856434
1772572721625559800,2.907559814453125,0.0010690141934901476,-0.024129176512360573,0.006872233934700489
1772572721643408400,2.925408447265625,0.008399397134780884,-0.05360342562198639,0.0025961773935705423
1772572721661239800,2.94323974609375,-0.0019853119738399982,-0.05849034711718559,-0.007177666760981083
1772572721679083800,2.961083740234375,-0.006108652334660292,-0.04596760869026184,-0.03405573591589928
1772572721696915000,2.9789150390625,0.017562376335263252,-0.0027488935738801956,-0.07925976812839508
1772572721714738400,2.996738525390625,0.011301007121801376,0.038026362657547,-0.10995574295520782
1772572721732586500,3.01458642578125,-0.01191187184303999,0.05757404863834381,-0.11499538272619247
1772572721750422300,3.03242236328125,-0.009010262787342072,0.047189339995384216,-0.0708603709936142
1772572721768257500,3.050257568359375,0.0074830991216003895,-0.023976460099220276,-0.0039706239476799965
1772572721786093600,3.068093505859375,0.027183502912521362,-0.0734565481543541,0.05161811411380768
1772572721803929000,3.08592919921875,0.027641652151942253,-0.08475755155086517,0.05711590126156807
1772572721821764600,3.1037646484375,0.017867809161543846,-0.04001167416572571,0.02076941914856434
1772572721839599900,3.121599853515625,-0.009468411095440388,0.00427605677396059,-0.0029016099870204926
1772572721857436000,3.139435791015625,-0.025961773470044136,-0.01237002108246088,-0.034666601568460464
1772572721875271700,3.157271728515625,-0.010079276748001575,-0.009010262787342072,-0.059864792972803116
1772572721893107500,3.175107421875,0.012064588256180286,0.0007635815418325365,-0.06490442901849747
1772572721910942200,3.192942138671875,0.01710422709584236,0.018325956538319588,-0.032528575509786606
1772572721928778800,3.21077880859375,0.00855211354792118,0.0024434609804302454,0.0039706239476799965
1772572721946614300,3.2286142578125,0.007024950347840786,-0.044135015457868576,-0.0013744467869400978
1772572721964449800,3.24644970703125,-0.001679879380390048,-0.021532999351620674,-0.005192354787141085
1772572721982284800,3.264284912109375,-0.02122756652534008,0.039706241339445114,0.00366519158706069
1772572722000120600,3.28212060546875,-0.02015855349600315,0.0429132841527462,-0.0006108652451075613
1772572722017942800,3.29994287109375,0.005497787147760391,0.00809396430850029,-0.013133603148162365
1772572722035783200,3.317783203125,0.014813481830060482,-0.07467827945947647,-0.023518312722444534
1772572722053630500,3.33563037109375,-0.009010262787342072,-0.126143679022789,-0.01572977937757969
1772572722071463700,3.353463623046875,-0.022602014243602753,-0.11560624837875366,-0.01710422709584236
1772572722089300500,3.371300537109375,-0.021838432177901268,-0.07681630551815033,-0.039095375686883926
1772572722107135200,3.38913525390625,-0.013133603148162365,-0.024129176512360573,-0.035582900047302246
1772572722124966700,3.406966552734375,-0.0009162978967651725,0.003817907767370343,0.0007635815418325365
1772572722142809900,3.424809814453125,0.010231993161141872,-0.010842857882380486,0.013439035043120384
1772572722160641500,3.4426416015625,0.012522737495601177,0.007788531947880983,0.003359758760780096
1772572722178477800,3.460477783203125,0.001832595793530345,0.02321287989616394,-0.006872233934700489
1772572722196313000,3.47831298828125,-0.0064140851609408855,0.0006108652451075613,0.005039638374000788
1772572722214148900,3.49614892578125,-0.005803219974040985,-0.014202617108821869,0.01160643994808197
1772572722231984400,3.513984375,0.013133603148162365,0.038179077208042145,-0.010079276748001575
1772572722249820200,3.531820068359375,0.027641652151942253,0.04612032696604729,-0.030543262138962746
1772572722267655400,3.549655517578125,0.005039638374000788,-0.030695978552103043,0.012675453908741474
1772572722285491200,3.5674912109375,-0.027947084978222847,-0.0835358202457428,0.058948494493961334
1772572722303324000,3.585323974609375,-0.03329215571284294,-0.06673702597618103,0.04108068719506264
1772572722321165600,3.60316552734375,-0.016798794269561768,-0.014966198243200779,-0.020463986322283745
1772572722338997800,3.620997802734375,0.0007635815418325365,0.02229658141732216,-0.07819075137376785
1772572722356833800,3.638833740234375,0.016340645030140877,0.015882495790719986,-0.09498954564332962
1772572722374669300,3.65666943359375,0.02871066704392433,0.02076941914856434,-0.096211276948452
1772572722392505300,3.67450537109375,0.02626720629632473,0.047189339995384216,-0.07147123664617538
1772572722410340400,3.69234033203125,0.005650503560900688,-0.008704829961061478,-0.01970040425658226
1772572722428176600,3.7101767578125,-0.008246680721640587,-0.06001751124858856,0.02076941914856434
1772572722446012200,3.72801220703125,-0.00045814894838258624,-0.026114489883184433,0.02168571576476097
1772572722463848200,3.74584814453125,0.017562376335263252,0.039095375686883926,0.001527163083665073
1772572722481673200,3.763673095703125,0.019394971430301666,0.05665775015950203,-0.008704829961061478
1772572722499518700,3.781518798828125,0.00931569468230009,0.036041051149368286,0.008246680721640587
1772572722517342000,3.799342041015625,-0.004581489134579897,0.0013744467869400978,0.019547687843441963
1772572722535190500,3.8171904296875,-0.0025961773935705423,0.011759156361222267,-0.003512475173920393
1772572722553023200,3.835023193359375,0.010537425056099892,0.09834930300712585,-0.029168816283345222
1772572722570861600,3.852861572265625,0.017562376335263252,0.062460970133543015,-0.032070424407720566
1772572722588694500,3.870694580078125,0.005955935921519995,-0.03420845419168472,-0.00427605677396059
1772572722606533400,3.888533447265625,-0.005650503560900688,-0.09926560521125793,0.02275473065674305
1772572722624368400,3.906368408203125,-0.00366519158706069,-0.0607810914516449,0.03420845419168472
1772572722642204200,3.9242041015625,-0.00045814894838258624,-0.023365596309304237,0.018020525574684143
1772572722660039700,3.942039794921875,-0.003054326167330146,0.021838432177901268,-0.006108652334660292
1772572722677875700,3.959875732421875,-0.006261368747800589,0.06627888232469559,-0.024129176512360573
1772572722695711000,3.9777109375,-0.006108652334660292,0.07910704612731934,-0.03848451003432274
1772572722713546800,3.995546630859375,-0.0019853119738399982,0.053297992795705795,-0.04764748737215996
1772572722731382000,4.013382080078125,-0.008246680721640587,-0.01191187184303999,-0.03222314268350601
1772572722749218600,4.031218505859375,-0.026572637259960175,-0.036041051149368286,0.013744467869400978
1772572722767052000,4.049052001953125,-0.03145955875515938,-0.02779436856508255,0.025045474991202354
1772572722784888300,4.066888427734375,-0.01572977937757969,0.005955935921519995,-0.017867809161543846
1772572722802728000,4.08472802734375,0.001527163083665073,0.05100724846124649,-0.052228979766368866
1772572722820560600,4.102560546875,0.00366519158706069,0.05161811411380768,-0.03130684420466423
1772572722838395600,4.120395751953125,0.0003054326225537807,0.008399397134780884,0.0003054326225537807
1772572722856231700,4.138231689453125,0.0003054326225537807,0.017409659922122955,0.02076941914856434
1772572722874067200,4.156067138671875,0.0039706239476799965,-0.026572637259960175,-0.00809396430850029
1772572722891903200,4.1739033203125,0.0013744467869400978,-0.008399397134780884,-0.0039706239476799965
1772572722909738200,4.19173828125,-0.014508049935102463,0.004886921960860491,0.0074830991216003895
1772572722927574500,4.209574462890625,-0.020311269909143448,-0.007635815534740686,-0.005803219974040985
1772572722945410300,4.227410400390625,-0.005803219974040985,0.0009162978967651725,-0.010231993161141872
1772572722963241500,4.245241455078125,0.004123340360820293,-0.0029016099870204926,0.009773843921720982
1772572722981082400,4.263082275390625,0.011759156361222267,-0.05604688450694084,0.022907447069883347
1772572722998919700,4.280919677734375,0.011301007121801376,-0.0705549344420433,0.015577063895761967
1772572723016735700,4.29873583984375,0.00809396430850029,-0.04214970022439957,-0.012522737495601177
1772572723034588400,4.31658837890625,-0.0012217304902151227,-0.04917465150356293,-0.03848451003432274
1772572723052414500,4.33441455078125,0.002138028386980295,-0.01970040425658226,-0.030695978552103043
1772572723070259200,4.35225927734375,0.005497787147760391,-0.050243668258190155,-0.02687807008624077
1772572723088094200,4.37009423828125,0.00855211354792118,-0.009162978269159794,0.005345070734620094
1772572723105931000,4.387930908203125,0.01160643994808197,-0.020616702735424042,0.004886921960860491
1772572723123766000,4.40576611328125,0.019853120669722557,-0.06505715101957321,-0.010690141469240189
1772572723141601800,4.423601806640625,0.017409659922122955,-0.0988074541091919,-0.00045814894838258624
1772572723159439600,4.441439697265625,0.005345070734620094,-0.11514809727668762,0.02779436856508255
1772572723177273600,4.459273681640625,0.00015271631127689034,-0.1033889427781105,0.02229658141732216
1772572723195108600,4.477108642578125,-0.010079276748001575,-0.09315694868564606,-0.032070424407720566
1772572723212941600,4.494941650390625,-0.013286318629980087,-0.01664607785642147,-0.05726861581206322
1772572723230784300,4.5127841796875,-0.013439035043120384,0.023060163483023643,-0.04917465150356293
1772572723248615000,4.530614990234375,-0.0019853119738399982,0.022602014243602753,-0.023976460099220276
1772572723266451500,4.548451416015625,0.0027488935738801956,0.0032070425804704428,-0.019547687843441963
1772572723284284000,4.566283935546875,-0.0019853119738399982,0,-0.021991148591041565
1772572723302125800,4.584125732421875,0.01038470957428217,-0.0009162978967651725,-0.01572977937757969
1772572723319958300,4.601958251953125,0.038637228310108185,-0.004123340360820293,-0.010690141469240189
1772572723337793500,4.61979345703125,0.06200282275676727,-0.04535674303770065,-0.015271631069481373
1772572723355629300,4.63762939453125,0.06261368840932846,-0.07452555745840073,-0.004734205547720194
1772572723373464800,4.65546484375,0.04077525436878204,-0.041233405470848083,0.026419922709465027
1772572723391300900,4.67330078125,0.027641652151942253,-0.023518312722444534,0.0328340083360672
1772572723409136600,4.69113671875,0.037110064178705215,-0.007024950347840786,-0.008857546374201775
1772572723426972200,4.70897216796875,0.044287730008363724,0.03940080851316452,-0.04612032696604729
1772572723444807700,4.7268076171875,0.05009094998240471,0.05390885844826698,-0.04581489413976669
1772572723462643500,4.7446435546875,0.06017022579908371,0.04749477282166481,-0.008857546374201775
1772572723480464600,4.762464599609375,0.06734789162874222,0.0064140851609408855,0.022907447069883347
1772572723498307800,4.780307861328125,0.07009678333997726,-0.020616702735424042,0.029626963660120964
1772572723516140500,4.798140625,0.061391957104206085,-0.052381694316864014,0.02015855349600315
1772572723533986000,4.815986083984375,0.0455094613134861,-0.05253441259264946,0.01725694350898266
1772572723551821000,4.833821044921875,0.033139441162347794,-0.004886921960860491,0.012064588256180286
1772572723569657000,4.851656982421875,0.03084869496524334,0.029168816283345222,0.0009162978967651725
1772572723587492900,4.869492919921875,0.02977968007326126,0.010537425056099892,0.00366519158706069
1772572723605328400,4.887328369140625,0.010995574295520782,-0.045204028487205505,0.032681290060281754
1772572723623164000,4.905163818359375,-0.00809396430850029,-0.09605856239795685,0.04612032696604729
1772572723640999400,4.92299951171875,0.003359758760780096,-0.07528914511203766,0.01771509274840355
1772572723658835000,4.9408349609375,0.003054326167330146,0.018478672951459885,0.004123340360820293
1772572723676671200,4.958671142578125,-0.010690141469240189,0.05192354694008827,-0.008857546374201775
1772572723694505700,4.976505615234375,-0.02871066704392433,0.04657847434282303,-0.020463986322283745
1772572723712340700,4.9943408203125,-0.021838432177901268,0.017867809161543846,-0.03649919852614403
1772572723730179000,5.012178955078125,-0.0012217304902151227,0.010231993161141872,-0.029626963660120964
1772572723748011500,5.030011474609375,0.006261368747800589,0.010231993161141872,0.005497787147760391
1772572723765850600,5.0478505859375,-0.007941247895359993,-0.014966198243200779,0.020463986322283745
1772572723783684600,5.0656845703125,-0.014049900695681572,-0.012675453908741474,0.009621127508580685
1772572723801512000,5.083511962890625,-0.0022907445672899485,0.0328340083360672,0.003512475173920393
1772572723819354400,5.101354248046875,0.015882495790719986,0.03985895588994026,0.0010690141934901476
1772572723837191000,5.11919091796875,0.014355333521962166,-0.007941247895359993,0.006108652334660292
1772572723855026700,5.137026611328125,0.001679879380390048,-0.02367102913558483,0.018020525574684143
1772572723872862500,5.154862548828125,-0.01191187184303999,-0.001832595793530345,0.015882495790719986
1772572723890684700,5.1726845703125,-0.014508049935102463,0.015882495790719986,0.003054326167330146
1772572723908534000,5.190533935546875,-0.0010690141934901476,0.026572637259960175,-0.0064140851609408855
1772572723926369300,5.208369384765625,0.008704829961061478,0.038179077208042145,0.011453723534941673
1772572723944205000,5.226205078125,0.005803219974040985,-0.004734205547720194,0.02229658141732216
1772572723962040800,5.244040771484375,-0.0012217304902151227,-0.025503624230623245,0.032681290060281754
1772572723979875800,5.261875732421875,-0.007788531947880983,-0.01924225501716137,0.03344487398862839
1772572723997712000,5.2797119140625,-0.006719517521560192,0.00855211354792118,0.020616702735424042
1772572724015547400,5.29754736328125,0.005650503560900688,0.04245513305068016,-0.001527163083665073
1772572724033383700,5.3153837890625,0.012217304669320583,0.03940080851316452,-0.007024950347840786
1772572724051218400,5.333218505859375,-0.007024950347840786,0.01038470957428217,0.022602014243602753
1772572724069054200,5.35105419921875,-0.021074850112199783,-0.026114489883184433,0.057879481464624405
1772572724086890000,5.368889892578125,-0.011301007121801376,-0.005955935921519995,0.07727445662021637
1772572724104726300,5.386726318359375,0.0013744467869400978,0.023060163483023643,0.07742717117071152
1772572724122560500,5.404560546875,-0.003359758760780096,-0.02015855349600315,0.06230825558304787
1772572724140396500,5.422396484375,-0.013286318629980087,-0.07024950534105301,0.022449297830462456
1772572724158232300,5.440232421875,-0.004428773187100887,-0.02779436856508255,0.0039706239476799965
1772572724176067800,5.45806787109375,-0.0006108652451075613,0.019394971430301666,0.003054326167330146
1772572724193903400,5.4759033203125,-0.01725694350898266,0.05390885844826698,0.01160643994808197
1772572724211739000,5.49373876953125,-0.02519819140434265,0.061391957104206085,-0.0039706239476799965
1772572724229574400,5.511574462890625,-0.021991148591041565,0.05772676691412926,-0.02626720629632473
1772572724247410400,5.529410400390625,-0.016340645030140877,0.015882495790719986,-0.0354301854968071
1772572724265245700,5.54724560546875,-0.004123340360820293,-0.0013744467869400978,-0.026114489883184433
1772572724283081500,5.56508154296875,0.006261368747800589,0.027488935738801956,-0.013591751456260681
1772572724300917000,5.5829169921875,0.005497787147760391,0.01924225501716137,-0.020463986322283745
1772572724318750000,5.60075,-0.005650503560900688,0.016493361443281174,-0.03237585723400116
1772572724336588000,5.618588134765625,-0.015271631069481373,0.053297992795705795,-0.027947084978222847
1772572724354418700,5.636418701171875,-0.004428773187100887,0.04612032696604729,-0.01191187184303999
1772572724372259300,5.65425927734375,0.00733038317412138,0.010995574295520782,0.00733038317412138
1772572724390088400,5.67208837890625,0.003817907767370343,0.0032070425804704428,0.013133603148162365
1772572724407918000,5.68991796875,-0.005803219974040985,0.02015855349600315,-0.001527163083665073
1772572724425758500,5.707758544921875,-0.010690141469240189,0.03191770985722542,-0.021838432177901268
1772572724443602000,5.725601806640625,-0.01114829070866108,0.05345070734620094,-0.02871066704392433
1772572724461437700,5.743437744140625,-0.0013744467869400978,0.057879481464624405,-0.04505131021142006
1772572724479273000,5.76127294921875,0.009010262787342072,0.04245513305068016,-0.04749477282166481
1772572724497109000,5.77910888671875,0.009010262787342072,0.052839845418930054,0.006108652334660292
1772572724514943000,5.79694287109375,0.0065668015740811825,0.006719517521560192,0.0328340083360672
1772572724532781300,5.81478125,0.005650503560900688,-0.025045474991202354,0.029932396486401558
1772572724550615000,5.832614990234375,0.005650503560900688,0.001832595793530345,0.012980886735022068
1772572724568448300,5.8504482421875,0.007024950347840786,0.01771509274840355,-0.0065668015740811825
1772572724586287900,5.868287841796875,-0.00366519158706069,0.031001411378383636,-0.004123340360820293
1772572724604124200,5.886124267578125,-0.010231993161141872,0.020005837082862854,0.003817907767370343
1772572724621957600,5.90395751953125,-0.003359758760780096,-0.00855211354792118,-0.0006108652451075613
1772572724639793200,5.921793212890625,-0.00015271631127689034,-0.02076941914856434,-0.032528575509786606
1772572724657629000,5.93962890625,-0.014202617108821869,0.04001167416572571,-0.09560041129589081
1772572724675464700,5.957464599609375,-0.014355333521962166,0.10690141469240189,-0.12308934330940247
1772572724693300000,5.975300048828125,-0.01878410577774048,0.08368854224681854,-0.08918632566928864
1772572724711135700,5.9931357421875,-0.017867809161543846,0.060322944074869156,-0.020616702735424042
1772572724728971800,6.0109716796875,-0.019853120669722557,0.03481931984424591,0.06673702597618103
1772572724746807000,6.02880712890625,-0.006261368747800589,-0.004734205547720194,0.11056660860776901
1772572724764642300,6.046642333984375,0.010995574295520782,0.001527163083665073,0.10125091671943665
1772572724782478000,6.06447802734375,0.015577063895761967,0.016035212203860283,0.05375614017248154
1772572724800313300,6.082313232421875,0.008246680721640587,-0.008399397134780884,0.02687807008624077
1772572724818136600,6.100136474609375,-0.005955935921519995,-0.03481931984424591,0.04596760869026184
1772572724835984600,6.117984619140625,-0.006261368747800589,-0.022907447069883347,0.07254024595022202
1772572724853814300,6.135814208984375,0.013591751456260681,-0.017409659922122955,0.0757472887635231
1772572724871655700,6.15365576171875,0.03741549700498581,-0.005803219974040985,0.042760565876960754
1772572724889484800,6.17148486328125,0.04795292019844055,0.02015855349600315,-0.02229658141732216
1772572724907327000,6.189326904296875,0.02733621932566166,0.014202617108821869,-0.05955936014652252
1772572724925162500,6.20716259765625,-0.0006108652451075613,-0.003512475173920393,-0.058184914290905
1772572724942998500,6.22499853515625,-0.001679879380390048,0.02519819140434265,-0.03176499158143997
1772572724960834000,6.242833984375,0.00809396430850029,0.023518312722444534,-0.004123340360820293
1772572724978669300,6.26066943359375,0.002138028386980295,0.0027488935738801956,0.03145955875515938
1772572724996505000,6.278505126953125,-0.009162978269159794,-0.016035212203860283,0.05955936014652252
1772572725014337800,6.296337890625,-0.008704829961061478,-0.052381694316864014,0.060475658625364304
1772572725032179500,6.314179443359375,-0.00015271631127689034,-0.0555887371301651,0.05543602257966995
1772572725050007000,6.332007080078125,0.0074830991216003895,-0.03497203439474106,0.03573561832308769
1772572725067851800,6.349851806640625,0.006719517521560192,-0.010079276748001575,0.008857546374201775
1772572725085681700,6.367681640625,-0.0032070425804704428,0.007941247895359993,0.011759156361222267
1772572725103519700,6.385519775390625,-0.013897184282541275,-0.027488935738801956,0.02367102913558483
1772572725121353700,6.403353759765625,-0.00931569468230009,-0.051770828664302826,0.03985895588994026
1772572725139189500,6.421189453125,0.0039706239476799965,-0.058337632566690445,0.04535674303770065
1772572725157025000,6.43902490234375,0.0007635815418325365,-0.08491026610136032,0.028099801391363144
1772572725174859800,6.45685986328125,-0.020005837082862854,-0.07101308554410934,0.013286318629980087
1772572725192697000,6.474697021484375,-0.037110064178705215,-0.05115996301174164,-0.012217304669320583
1772572725210531800,6.49253173828125,-0.04459316283464432,-0.015271631069481373,-0.02519819140434265
1772572725228354000,6.51035400390625,-0.05207626149058342,0.01237002108246088,-0.014049900695681572
1772572725246206200,6.528206298828125,-0.06780604273080826,-0.009926560334861279,0.00931569468230009
1772572725264038700,6.54603857421875,-0.06979135423898697,-0.030237829312682152,0.005192354787141085
1772572725281874000,6.5638740234375,-0.05543602257966995,-0.027030786499381065,0.010995574295520782
1772572725299709400,6.58170947265625,-0.0455094613134861,-0.02932153269648552,0.021532999351620674
1772572725317545500,6.59954541015625,-0.044287730008363724,-0.062460970133543015,0.00427605677396059
1772572725335380700,6.617380615234375,-0.043218716979026794,-0.08216137439012527,-0.016798794269561768
1772572725353216500,6.635216552734375,-0.028405234217643738,-0.10720685124397278,-0.023518312722444534
1772572725371051800,6.6530517578125,0,-0.1368338167667389,-0.0003054326225537807
1772572725388888000,6.67088818359375,0.015271631069481373,-0.13958270847797394,0.028099801391363144
1772572725406723000,6.68872314453125,0.005345070734620094,-0.07727445662021637,0.02076941914856434
1772572725424558600,6.70655859375,-0.017562376335263252,-0.00427605677396059,-0.00855211354792118
1772572725442394000,6.72439404296875,-0.01924225501716137,0.08949175477027893,-0.019394971430301666
1772572725460230100,6.742230224609375,-0.013133603148162365,0.10293079167604446,-0.039706241339445114
1772572725478063000,6.76006298828125,-0.0029016099870204926,0.06811147183179855,-0.0429132841527462
1772572725495888000,6.777887939453125,0.0003054326225537807,0.048716504126787186,-0.015882495790719986
1772572725513726000,6.795725830078125,-0.0006108652451075613,0.025503624230623245,0.01924225501716137
1772572725531574500,6.813574462890625,-0.0022907445672899485,0.038026362657547,0.032070424407720566
1772572725549402000,6.831402099609375,-0.004428773187100887,0.047800205647945404,0.027488935738801956
1772572725567243300,6.8492431640625,-0.001679879380390048,0.032681290060281754,0.029932396486401558
1772572725585078800,6.867078857421875,0.005192354787141085,-0.007024950347840786,0.028099801391363144
1772572725602914600,6.88491455078125,0.02626720629632473,0.023060163483023643,0.014049900695681572
1772572725620749300,6.902749267578125,0.0403171069920063,0.06673702597618103,0.013439035043120384
1772572725638585000,6.920585205078125,0.03344487398862839,0.01863138936460018,0.02932153269648552
1772572725656420600,6.938420654296875,0.023060163483023643,-0.036193765699863434,0.03237585723400116
1772572725674256600,6.956256591796875,0.02015855349600315,-0.018020525574684143,0.011759156361222267
1772572725692091400,6.97409130859375,0.023365596309304237,0.03649919852614403,-0.009621127508580685
1772572725709927400,6.991927490234375,0.021991148591041565,0.05192354694008827,-0.019089538604021072
1772572725727763200,7.00976318359375,0.01466076634824276,0.009926560334861279,-0.016951510682702065
1772572725745599000,7.027598876953125,0.007024950347840786,-0.058337632566690445,-0.005039638374000788
1772572725763434000,7.04543408203125,0.014813481830060482,-0.043218716979026794,0.021838432177901268
1772572725781267500,7.063267333984375,0.023060163483023643,0.010842857882380486,0.03329215571284294
1772572725799107600,7.081107666015625,0.02229658141732216,0.03726277872920036,0.01878410577774048
1772572725816941000,7.098941162109375,0.014049900695681572,0.04382958263158798,0.0007635815418325365
1772572725834776000,7.116776123046875,0.004581489134579897,0.019394971430301666,-0.005497787147760391
1772572725852611800,7.13461181640625,-0.009621127508580685,-0.033597588539123535,-0.0022907445672899485
1772572725870447400,7.152447265625,-0.009162978269159794,-0.04795292019844055,-0.02015855349600315
1772572725888283400,7.170283447265625,-0.001679879380390048,0.001832595793530345,-0.036651913076639175
1772572725906118400,7.188118408203125,0.004734205547720194,0.03237585723400116,-0.04046982154250145
1772572725923954000,7.205953857421875,0.001832595793530345,0.020463986322283745,-0.02886338345706463
1772572725941789200,7.2237890625,-0.001832595793530345,0.059406645596027374,-0.0074830991216003895
1772572725959625200,7.241625244140625,-0.0024434609804302454,0.0682641938328743,0.0025961773935705423
1772572725977460200,7.259460205078125,-0.0009162978967651725,0.05757404863834381,0.00733038317412138
1772572725995296000,7.2772958984375,-0.0007635815418325365,0.003054326167330146,-0.01191187184303999
1772572726013132000,7.295132080078125,0.00015271631127689034,-0.01970040425658226,-0.01237002108246088
1772572726030967600,7.312967529296875,0.0027488935738801956,-0.021838432177901268,0.005650503560900688
1772572726048802600,7.330802490234375,0.012522737495601177,-0.013133603148162365,0.01710422709584236
1772572726066638300,7.348638427734375,0.01924225501716137,-0.027641652151942253,0.009773843921720982
1772572726084473600,7.3664736328125,0.016035212203860283,-0.0328340083360672,0.006261368747800589
1772572726102309600,7.3843095703125,0.016798794269561768,0.009468411095440388,0.001527163083665073
1772572726120132000,7.402132080078125,0.026114489883184433,0.060322944074869156,-0.0007635815418325365
1772572726137980400,7.41998046875,0.02977968007326126,0.04902193695306778,0.001832595793530345
1772572726155803400,7.437803466796875,0.01710422709584236,-0.03039054572582245,0.021380282938480377
1772572726173652200,7.45565234375,0.0007635815418325365,-0.06963863968849182,0.04352414980530739
1772572726191474400,7.473474365234375,0.0009162978967651725,-0.0429132841527462,0.04566217586398125
1772572726209319200,7.491319091796875,0.007635815534740686,0.024129176512360573,0.02535090781748295
1772572726227158300,7.509158203125,0.012522737495601177,0.07422012835741043,0.00015271631127689034
1772572726244991000,7.526990966796875,0.006261368747800589,0.07406741380691528,-0.014049900695681572
1772572726262832000,7.54483203125,-0.004886921960860491,0.03695734590291977,-0.02275473065674305
1772572726280664600,7.56266455078125,-0.006872233934700489,0.001527163083665073,-0.02229658141732216
1772572726298500600,7.58050048828125,-0.0064140851609408855,-0.018325956538319588,-0.016035212203860283
1772572726316336000,7.598336181640625,-0.0024434609804302454,-0.001679879380390048,-0.004734205547720194
1772572726334171100,7.616171142578125,-0.001832595793530345,0.05451972410082817,0.01817324012517929
1772572726352007000,7.6340068359375,0.00733038317412138,0.0685696229338646,0.02168571576476097
1772572726369837600,7.651837646484375,0.015118914656341076,0.06062837690114975,-0.0019853119738399982
1772572726387680500,7.669680419921875,0.020922135561704636,0.04260785132646561,-0.03955352306365967
1772572726405515300,7.687515380859375,0.02122756652534008,0.052228979766368866,-0.03848451003432274
1772572726423349000,7.705348876953125,0.01618792861700058,0.060933809727430344,-0.027488935738801956
1772572726441184300,7.723184326171875,0.020005837082862854,0.09193521738052368,-0.02015855349600315
1772572726459020300,7.741020263671875,0.010995574295520782,0.08704829961061478,-0.0007635815418325365
1772572726476854800,7.758854736328125,0.0039706239476799965,0.04184427112340927,0.05543602257966995
1772572726494691000,7.776691162109375,0.01771509274840355,-0.01924225501716137,0.09529497474431992
1772572726512526300,7.7945263671875,0.022602014243602753,-0.0682641938328743,0.09407325088977814
1772572726530362400,7.8123623046875,0.013133603148162365,-0.06123924255371094,0.06963863968849182
1772572726548197400,7.830197265625,0.0024434609804302454,-0.009926560334861279,0.024129176512360573
1772572726566033200,7.848033203125,0.00427605677396059,0.05604688450694084,-0.005192354787141085
1772572726583869000,7.865868896484375,0.01237002108246088,0.06872233748435974,-0.002138028386980295
1772572726601692000,7.88369189453125,0.010995574295520782,0.04398229718208313,0.030085112899541855
1772572726619532800,7.90153271484375,0.006872233934700489,0.0003054326225537807,0.055283304303884506
1772572726637375200,7.919375244140625,0.00015271631127689034,-0.021532999351620674,0.06108652427792549
1772572726655210800,7.937210693359375,-0.003817907767370343,-0.010690141469240189,0.03848451003432274
1772572726673046800,7.955046875,-0.005039638374000788,0.02519819140434265,0.010690141469240189
1772572726690881300,7.97288134765625,-0.0022907445672899485,0.02672535367310047,0.0009162978967651725
1772572726708717600,7.990717529296875,0.006719517521560192,-0.018478672951459885,0.011301007121801376
1772572726726553000,8.008552978515626,0.0024434609804302454,-0.05604688450694084,0.031001411378383636
1772572726744388900,8.026388916015625,-0.0009162978967651725,-0.03878994286060333,0.021991148591041565
1772572726762223400,8.044223388671876,-0.00045814894838258624,-0.026572637259960175,-0.02825251780450344
1772572726780059400,8.062059326171875,-0.004123340360820293,0.009162978269159794,-0.05207626149058342
1772572726797893600,8.0798935546875,-0.004734205547720194,0.030695978552103043,-0.044287730008363724
1772572726815731700,8.097731689453125,-0.006108652334660292,0.02779436856508255,-0.022449297830462456
1772572726833566000,8.11556591796875,-0.015118914656341076,0.04886921867728233,0.004428773187100887
1772572726851400400,8.133400390625,-0.027030786499381065,0.11056660860776901,0.0354301854968071
1772572726869237800,8.15123779296875,-0.021991148591041565,-0.0006108652451075613,0.0659734457731247
1772572726887073000,8.169072998046875,-0.009010262787342072,-0.09651670604944229,0.09896016865968704
1772572726904906500,8.186906494140626,-0.015882495790719986,-0.0679587572813034,0.10766500234603882
1772572726922744000,8.204744140625,-0.01878410577774048,0.03375030308961868,0.056352317333221436
1772572726940578600,8.22257861328125,-0.01542434748262167,0.12782354652881622,-0.048258353024721146
1772572726958414600,8.24041455078125,-0.020311269909143448,0.20799961686134338,-0.13484850525856018
1772572726976249600,8.25824951171875,-0.02626720629632473,0.14019356667995453,-0.13637566566467285
