time,seconds_elapsed,z,y,x
1772572718832057900,0.114057861328125,9.710672378540039,2.2372891902923584,0.5312066078186035
1772572718849896200,0.131896240234375,9.156734466552734,2.3473589420318604,0.39900317788124084
1772572718867741200,0.1497412109375,9.30030345916748,2.2887349128723145,0.37806597352027893
1772572718885571800,0.16757177734375,9.421140670776367,2.1266210079193115,0.33499518036842346
1772572718903412500,0.18541259765625,9.4660062789917,2.0063817501068115,0.30927231907844543
1772572718921247700,0.203247802734375,9.388239860534668,1.9932212829589844,0.2632105052471161
1772572718939083500,0.22108349609375,9.100502967834473,2.1433708667755127,0.27397820353507996
1772572718956919300,0.238919189453125,9.115457534790039,2.215155601501465,0.4468596279621124
1772572718974754800,0.2567548828125,9.329017639160156,2.1571295261383057,0.5258227586746216
1772572718992590300,0.27459033203125,9.68913745880127,2.131406784057617,0.5581258535385132
1772572719010425900,0.29242578125,9.712467193603516,2.048854351043701,0.6047859191894531
1772572719028261600,0.31026171875,9.418747901916504,2.022533416748047,0.4827519655227661
1772572719046097200,0.32809716796875,9.239286422729492,2.004587173461914,0.4534398913383484
1772572719063930000,0.34593017578125,9.45045280456543,1.9639091491699219,0.5353940725326538
1772572719081767700,0.363767578125,9.538987159729004,2.062613010406494,0.5623133182525635
1772572719099607000,0.38160693359375,9.351150512695312,2.0201404094696045,0.50129634141922
1772572719117439500,0.399439453125,9.21117115020752,2.035693883895874,0.4325026869773865
1772572719135275000,0.41727490234375,9.45464038848877,2.0057835578918457,0.42412781715393066
1772572719153110500,0.435110595703125,9.593423843383789,1.9154545068740845,0.40677985548973083
1772572719170946000,0.452946044921875,9.606584548950195,1.8287147283554077,0.29312077164649963
1772572719188781800,0.47078173828125,9.482755661010742,1.9184455871582031,0.30987054109573364
1772572719206617600,0.48861767578125,9.501300811767578,1.963310956954956,0.3762713670730591
1772572719224453600,0.50645361328125,9.453444480895996,2.0398812294006348,0.529412031173706
1772572719242289000,0.524288818359375,9.575477600097656,1.9716858863830566,0.6681957244873047
1772572719260124400,0.54212451171875,9.865009307861328,1.8843477964401245,0.6658028960227966
1772572719277960200,0.559960205078125,9.853045463562012,1.7976080179214478,0.6095715761184692
1772572719295796000,0.5777958984375,9.626325607299805,1.8065811395645142,0.3445664644241333
1772572719313631700,0.5956318359375,9.522835731506348,1.500898003578186,-0.03170489892363548
1772572719331467300,0.61346728515625,9.616754531860352,1.2406785488128662,-0.24406790733337402
1772572719349298700,0.631298583984375,9.824331283569336,1.1060823202133179,-0.2925225794315338
1772572719367138300,0.64913818359375,9.89551830291748,1.0426725149154663,-0.1866401731967926
1772572719384969500,0.666969482421875,9.832706451416016,1.1180464029312134,-0.047258246690034866
1772572719402813700,0.684813720703125,9.769296646118164,1.399801254272461,0.16091732680797577
1772572719420644900,0.702644775390625,9.80518913269043,1.5050854682922363,0.26560330390930176
1772572719438480600,0.720480712890625,9.92542839050293,1.4261223077774048,0.19322042167186737
1772572719456316200,0.738316162109375,10.055837631225586,1.2903295755386353,0.06699903309345245
1772572719474152200,0.756152099609375,9.802796363830566,1.3351950645446777,-0.022133609279990196
1772572719491975200,0.77397509765625,9.722038269042969,1.4572290182113647,-0.0023928226437419653
1772572719509810700,0.791810791015625,9.787242889404297,1.4536397457122803,-0.005982056725770235
1772572719527662000,0.809662109375,9.559925079345703,1.5146567821502686,-0.04127619042992592
1772572719545480400,0.82748046875,9.45882797241211,1.5864413976669312,0.0077766734175384045
1772572719563331600,0.84533154296875,9.712467193603516,1.540379524230957,0.07417750358581543
1772572719581165600,0.86316552734375,9.68076229095459,1.5020943880081177,0.11306086927652359
1772572719599000800,0.881000732421875,9.552745819091797,1.5672988891601562,0.16091732680797577
1772572719616836600,0.898836669921875,9.517452239990234,1.5308083295822144,0.1782652884721756
1772572719634672400,0.91667236328125,9.554540634155273,1.5014961957931519,0.1782652884721756
1772572719652507600,0.934507568359375,9.648459434509277,1.4416756629943848,0.20099709928035736
1772572719670343400,0.952343505859375,9.747162818908691,1.3483555316925049,0.16510476171970367
1772572719688179000,0.970178955078125,9.68375301361084,1.3280165195465088,0.16031911969184875
1772572719706015000,0.988014892578125,9.678369522094727,1.4315061569213867,0.23748764395713806
1772572719723850500,1.0058505859375,9.628718376159668,1.461416482925415,0.2315055876970291
1772572719741686000,1.02368603515625,9.687342643737793,1.4464613199234009,0.1944168359041214
1772572719759521500,1.041521484375,9.90987491607666,1.3357932567596436,0.08135596662759781
1772572719777357300,1.059357421875,9.959526062011719,1.358525037765503,0.054436713457107544
1772572719795193000,1.077193115234375,9.683155059814453,1.5702898502349854,0.1136590763926506
1772572719813028900,1.09502880859375,9.588040351867676,1.7611174583435059,0.1579262912273407
1772572719830864400,1.112864501953125,9.720243453979492,1.8658034801483154,0.13579268753528595
1772572719848699600,1.13069970703125,9.749555587768555,1.7940187454223633,0.1543370634317398
1772572719866535400,1.148535400390625,9.698708534240723,1.7330018281936646,0.09690931439399719
1772572719884370700,1.16637060546875,9.754940032958984,1.7084753513336182,-0.010169495828449726
1772572719902206500,1.18420654296875,10.073184967041016,1.7084753513336182,-0.031106693670153618
1772572719920042000,1.2020419921875,9.772886276245117,1.7150555849075317,0.05922235921025276
1772572719937878300,1.219878173828125,9.56770133972168,1.8059829473495483,0.046061836183071136
1772572719955713300,1.23771337890625,9.397212982177734,1.923829436302185,0.1010967567563057
1772572719973549000,1.255549072265625,9.345169067382812,1.9663020372390747,-0.18484555184841156
1772572719991384300,1.27338427734375,9.30030345916748,1.932204246520996,-0.2512463629245758
1772572720009218600,1.291218505859375,9.608379364013672,1.7868403196334839,-0.27397820353507996
1772572720027057700,1.3090576171875,9.604789733886719,1.8460626602172852,-0.3152543902397156
1772572720044890400,1.326890380859375,9.34157943725586,1.9591234922409058,-0.3206382393836975
1772572720062728200,1.344728271484375,9.099306106567383,2.0333011150360107,-0.36251261830329895
1772572720080562400,1.3625625,9.043673515319824,2.080559253692627,-0.3284149169921875
1772572720098398200,1.380398193359375,9.029315948486328,2.1308085918426514,-0.18723836541175842
1772572720116233700,1.398233642578125,9.09392261505127,2.1415762901306152,-0.08853443711996078
1772572720134069500,1.416069580078125,9.402596473693848,2.079961061477661,-0.05144568532705307
1772572720151895000,1.43389501953125,9.623334884643555,2.0201404094696045,0.020338991656899452
1772572720169740500,1.451740478515625,9.57787036895752,1.9094724655151367,-0.06699903309345245
1772572720187563500,1.4695634765625,9.604789733886719,1.8376877307891846,-0.13100704550743103
1772572720205412000,1.487412109375,9.717850685119629,1.7922241687774658,-0.09032905846834183
1772572720223248000,1.505247802734375,9.567103385925293,1.8454644680023193,-0.10648060590028763
1772572720241083000,1.523082763671875,9.556933403015137,1.978864312171936,-0.03529413416981697
1772572720258919000,1.5409189453125,9.57487964630127,2.00518536567688,0.0568295381963253
1772572720276754700,1.558754638671875,9.514460563659668,2.0141584873199463,0.01734796352684498
1772572720294590200,1.576590087890625,9.578469276428223,1.9710876941680908,0.03529413416981697
1772572720312425700,1.59442578125,9.364311218261719,2.0141584873199463,0.06340979784727097
1772572720330261200,1.61226123046875,9.460023880004883,1.9896320104599,0.11186445504426956
1772572720348097000,1.630096923828125,9.66939640045166,1.9932212829589844,0.20099709928035736
1772572720365932300,1.647932373046875,9.709476470947266,1.9537396430969238,0.25064817070961
1772572720383768300,1.665768310546875,9.604191780090332,1.8951154947280884,0.2267199456691742
1772572720401603600,1.683603515625,9.594620704650879,1.8837496042251587,0.2512463629245758
1772572720419439600,1.701439697265625,9.848259925842285,1.8562321662902832,0.39601215720176697
1772572720437275100,1.719275146484375,9.711270332336426,1.848455548286438,0.3248256742954254
1772572720455110400,1.7371103515625,9.497711181640625,1.8370895385742188,0.19621145725250244
1772572720472946200,1.7549462890625,9.494122505187988,1.8873388767242432,0.1788634955883026
1772572720490782000,1.772781982421875,9.622735977172852,1.8161523342132568,0.1866401731967926
1772572720508617700,1.79061767578125,9.518648147583008,1.7072789669036865,0.0364905446767807
1772572720526453200,1.808453369140625,9.476774215698242,1.721037745475769,-0.02392822690308094
1772572720544289000,1.8262890625,9.585049629211426,1.8454644680023193,0.10767702013254166
1772572720562124000,1.8441240234375,9.551549911499023,1.911865234375,0.17168502509593964
1772572720579959800,1.861959716796875,9.396016120910645,1.8819550275802612,0.047258246690034866
1772572720597795300,1.87979541015625,9.549755096435547,1.8448662757873535,0.059820566326379776
1772572720615618600,1.89761865234375,9.726823806762695,1.919043779373169,0.23748764395713806
1772572720633467000,1.915466796875,9.720842361450195,2.0344974994659424,0.3278166949748993
1772572720651290000,1.9332900390625,9.758528709411621,2.0656042098999023,0.36251261830329895
1772572720669138000,1.951137939453125,9.65683364868164,2.0368902683258057,0.373878538608551
1772572720686955800,1.968955810546875,9.727422714233398,1.9369899034500122,0.31405797600746155
1772572720704809500,1.9868095703125,9.758528709411621,1.8999011516571045,0.3278166949748993
1772572720722644700,2.004644775390625,9.608379364013672,1.9507486820220947,0.35892340540885925
1772572720740480500,2.02248046875,9.619147300720215,1.9722840785980225,0.3116651475429535
1772572720758316300,2.04031640625,9.675378799438477,1.8191434144973755,0.37447673082351685
1772572720776152000,2.058152099609375,9.639486312866211,1.7491533756256104,0.30209386348724365
1772572720793987800,2.07598779296875,9.599406242370605,1.8418751955032349,0.3206382393836975
1772572720811823000,2.093822998046875,9.546165466308594,1.97407865524292,0.41575294733047485
1772572720829658600,2.11165869140625,9.482157707214355,1.963310956954956,0.39601215720176697
1772572720847494400,2.129494384765625,9.345169067382812,1.8963119983673096,0.2745763957500458
1772572720865330200,2.147330078125,9.231510162353516,1.8269200325012207,0.11545369029045105
1772572720883162600,2.16516259765625,9.403793334960938,1.828116536140442,0.11844471842050552
1772572720901004000,2.183004150390625,9.527023315429688,1.9369899034500122,0.2991028428077698
1772572720918836500,2.20083642578125,9.591629981994629,1.9399809837341309,0.31106695532798767
1772572720936672500,2.218672607421875,9.439684867858887,1.9070796966552734,0.22791635990142822
1772572720954508300,2.23650830078125,9.339186668395996,1.866999864578247,0.15074782073497772
1772572720972343600,2.254343505859375,9.543174743652344,1.8317056894302368,0.19680966436862946
1772572720990179300,2.272179443359375,9.726225852966309,1.8161523342132568,0.25423741340637207
1772572721008015000,2.29001513671875,9.68076229095459,1.8502501249313354,0.28175488114356995
1772572721025838000,2.307838134765625,9.609575271606445,1.9818553924560547,0.388235479593277
1772572721043686100,2.32568603515625,9.793225288391113,1.9722840785980225,0.4295116662979126
1772572721061521700,2.343521728515625,9.783653259277344,1.8137595653533936,0.29312077164649963
1772572721079353900,2.361353759765625,9.593423843383789,1.7491533756256104,0.12263216078281403
1772572721097193200,2.379193115234375,9.569496154785156,1.8747764825820923,0.22133609652519226
1772572721115028500,2.397028564453125,9.525228500366211,2.0297117233276367,0.33080771565437317
1772572721132864500,2.414864501953125,9.464810371398926,2.0171494483947754,0.29790642857551575
1772572721150700000,2.432699951171875,9.787242889404297,1.8831514120101929,0.2829512655735016
1772572721168535600,2.45053564453125,10.02293586730957,1.8735800981521606,0.4043870270252228
1772572721186371300,2.468371337890625,9.70229721069336,1.8999011516571045,0.2602194547653198
1772572721204206800,2.486206787109375,9.476774215698242,1.8873388767242432,0.14895321428775787
1772572721251024600,2.533024658203125,9.622735977172852,1.8915263414382935,0.3002992272377014
1772572721268859600,2.550859619140625,9.474979400634766,1.8999011516571045,0.20458634197711945
1772572721286685400,2.568685546875,9.407979965209961,1.8185452222824097,0.1423729509115219
1772572721304532000,2.586531982421875,9.465408325195312,1.8472590446472168,0.17108681797981262
1772572721322367000,2.604366943359375,9.474979400634766,1.9196419715881348,0.23808585107326508
1772572721340202200,2.6222021484375,9.460622787475586,1.8903298377990723,0.18065811693668365
1772572721358038300,2.640038330078125,9.489336013793945,1.8861424922943115,0.22372891008853912
1772572721375873800,2.657873779296875,9.570094108581543,1.9441684484481812,0.3290131092071533
1772572721393711000,2.675711181640625,9.517452239990234,1.9387845993041992,0.2763710021972656
1772572721411543600,2.69354345703125,9.507881164550781,1.8765711784362793,0.24287149310112
1772572721429376300,2.711376220703125,9.517452239990234,1.8526428937911987,0.2189432680606842
1772572721447213800,2.7292138671875,9.608379364013672,1.8628123998641968,0.2763710021972656
1772572721465055000,2.747054931640625,9.617950439453125,1.9489539861679077,0.3768695592880249
1772572721482875400,2.76487548828125,9.340981483459473,1.9471594095230103,0.251844584941864
1772572721500716800,2.782716796875,9.508479118347168,1.8143577575683594,0.14297115802764893
1772572721518549000,2.800549072265625,9.617950439453125,1.8293129205703735,0.21954147517681122
1772572721536394500,2.81839453125,9.708877563476562,1.9160526990890503,0.3290131092071533
1772572721554229800,2.836229736328125,9.69930648803711,1.944766640663147,0.3290131092071533
1772572721572065500,2.8540654296875,9.603593826293945,1.9106688499450684,0.2715853750705719
1772572721589901000,2.871901123046875,9.66102123260498,1.867598056793213,0.20458634197711945
1772572721607732700,2.889732666015625,9.603593826293945,1.867598056793213,0.22372891008853912
1772572721625559800,2.907559814453125,9.422337532043457,1.8376877307891846,0.1902294009923935
1772572721643408400,2.925408447265625,9.44626522064209,1.8807586431503296,0.20458634197711945
1772572721661239800,2.94323974609375,9.470193862915039,1.9100706577301025,0.3002992272377014
1772572721679083800,2.961083740234375,9.364909172058105,1.8233308792114258,0.18544375896453857
1772572721696915000,2.9789150390625,9.53659439086914,1.8239290714263916,0.20518454909324646
1772572721714738400,2.996738525390625,9.527023315429688,1.9298114776611328,0.4055834412574768
1772572721732586500,3.01458642578125,9.747162818908691,1.8305093050003052,0.33439695835113525
1772572721750422300,3.03242236328125,9.728020668029785,1.6959130764007568,0.24825534224510193
1772572721768257500,3.050257568359375,9.690333366394043,1.662413477897644,0.1860419660806656
1772572721786093600,3.068093505859375,9.628120422363281,1.7288143634796143,0.25244277715682983
1772572721803929000,3.08592919921875,9.565906524658203,1.867598056793213,0.30508488416671753
1772572721821764600,3.1037646484375,9.632308006286621,1.9399809837341309,0.41515472531318665
1772572721839599900,3.121599853515625,9.550951957702637,1.9968105554580688,0.45284169912338257
1772572721857436000,3.139435791015625,9.494122505187988,1.8909281492233276,0.2955136001110077
1772572721875271700,3.157271728515625,9.561120986938477,1.7910277843475342,0.23808585107326508
1772572721893107500,3.175107421875,9.713663101196289,1.7916259765625,0.30568310618400574
1772572721910942200,3.192942138671875,9.77109146118164,1.8305093050003052,0.36311084032058716
1772572721928778800,3.21077880859375,9.513264656066895,1.8765711784362793,0.3481557071208954
1772572721946614300,3.2286142578125,9.484550476074219,1.8717855215072632,0.3290131092071533
1772572721964449800,3.24644970703125,9.718449592590332,1.8640087842941284,0.4534398913383484
1772572721982284800,3.264284912109375,9.608379364013672,1.8634105920791626,0.4295116662979126
1772572722000120600,3.28212060546875,9.34157943725586,1.789831280708313,0.2715853750705719
1772572722017942800,3.29994287109375,9.20279598236084,1.7120646238327026,0.2183450609445572
1772572722035783200,3.317783203125,9.317052841186523,1.8664016723632812,0.3188436031341553
1772572722053630500,3.33563037109375,9.627521514892578,1.8586249351501465,0.41515472531318665
1772572722071463700,3.353463623046875,9.69930648803711,1.7581263780593872,0.3535395562648773
1772572722089300500,3.371300537109375,9.833304405212402,1.7066807746887207,0.3535395562648773
1772572722107135200,3.38913525390625,9.976874351501465,1.6163517236709595,0.35892340540885925
1772572722124966700,3.406966552734375,9.795019149780273,1.667797327041626,0.3152543902397156
1772572722142809900,3.424809814453125,9.747162818908691,1.7252250909805298,0.2961117923259735
1772572722160641500,3.4426416015625,9.651450157165527,1.8011972904205322,0.3577269911766052
1772572722178477800,3.460477783203125,9.608379364013672,1.8388842344284058,0.3577269911766052
1772572722196313000,3.47831298828125,9.613762855529785,1.8005990982055664,0.3529413342475891
1772572722214148900,3.49614892578125,9.5802640914917,1.7288143634796143,0.30987054109573364
1772572722231984400,3.513984375,9.551549911499023,1.7001005411148071,0.3002992272377014
1772572722249820200,3.531820068359375,9.393623352050781,1.794616937637329,0.34277185797691345
1772572722267655400,3.549655517578125,9.484550476074219,1.8963119983673096,0.5006981492042542
1772572722285491200,3.5674912109375,9.518050193786621,1.8436698913574219,0.46719861030578613
1772572722303324000,3.585323974609375,9.384650230407715,1.7467604875564575,0.37148571014404297
1772572722321165600,3.60316552734375,9.370293617248535,1.7324036359786987,0.34277185797691345
1772572722338997800,3.620997802734375,9.422935485839844,1.709073543548584,0.3475574851036072
1772572722356833800,3.638833740234375,9.618548393249512,1.719243049621582,0.33858439326286316
1772572722374669300,3.65666943359375,9.776474952697754,1.667797327041626,0.3774677813053131
1772572722392505300,3.67450537109375,9.7998046875,1.7491533756256104,0.4205385744571686
1772572722410340400,3.69234033203125,9.77109146118164,1.801795482635498,0.4301098585128784
1772572722428176600,3.7101767578125,9.761520385742188,1.7012969255447388,0.39182472229003906
1772572722446012200,3.72801220703125,9.82373332977295,1.6636099815368652,0.3487538993358612
1772572722463848200,3.74584814453125,9.747162818908691,1.6917256116867065,0.3487538993358612
1772572722481673200,3.763673095703125,9.613762855529785,1.7533408403396606,0.36729827523231506
1772572722499518700,3.781518798828125,9.575477600097656,1.786242127418518,0.38644084334373474
1772572722517342000,3.799342041015625,9.503693580627441,1.7910277843475342,0.381655216217041
1772572722535190500,3.8171904296875,9.69511890411377,1.6719847917556763,0.3487538993358612
1772572722553023200,3.835023193359375,9.480362892150879,1.685145378112793,0.3242274820804596
1772572722570861600,3.852861572265625,9.34157943725586,1.7515461444854736,0.3236292600631714
1772572722588694500,3.870694580078125,9.375079154968262,1.8233308792114258,0.37148571014404297
1772572722606533400,3.888533447265625,9.671191215515137,1.7437695264816284,0.4247260093688965
1772572722624368400,3.906368408203125,9.738189697265625,1.6917256116867065,0.4247260093688965
1772572722642204200,3.9242041015625,9.642477035522461,1.72941255569458,0.4342973232269287
1772572722660039700,3.942039794921875,9.652048110961914,1.7581263780593872,0.4630111753940582
1772572722677875700,3.959875732421875,9.608977317810059,1.7437695264816284,0.4295116662979126
1772572722695711000,3.9777109375,9.456435203552246,1.7138592004776,0.36670008301734924
1772572722713546800,3.995546630859375,9.403793334960938,1.7324036359786987,0.3475574851036072
1772572722731382000,4.013382080078125,9.599406242370605,1.7575281858444214,0.38644084334373474
1772572722749218600,4.031218505859375,9.7998046875,1.7066807746887207,0.4492524564266205
1772572722767052000,4.049052001953125,9.613762855529785,1.657029628753662,0.3194418251514435
1772572722784888300,4.066888427734375,9.575477600097656,1.633101463317871,0.2955136001110077
1772572722802728000,4.08472802734375,9.719047546386719,1.6145570278167725,0.3200400173664093
1772572722820560600,4.102560546875,9.623334884643555,1.7102699279785156,0.3481557071208954
1772572722838395600,4.120395751953125,9.723833084106445,1.6534404754638672,0.35832518339157104
1772572722856231700,4.138231689453125,9.475577354431152,1.7234305143356323,0.3194418251514435
1772572722874067200,4.156067138671875,9.503693580627441,1.7138592004776,0.3002992272377014
1772572722891903200,4.1739033203125,9.780662536621094,1.710868239402771,0.41515472531318665
1772572722909738200,4.19173828125,9.599406242370605,1.786242127418518,0.39122650027275085
1772572722927574500,4.209574462890625,9.57069206237793,1.690529227256775,0.30508488416671753
1772572722945410300,4.227410400390625,9.632905960083008,1.6235301494598389,0.267397940158844
1772572722963241500,4.245241455078125,9.551549911499023,1.6378871202468872,0.2626122832298279
1772572722981082400,4.263082275390625,9.475577354431152,1.6660027503967285,0.2763710021972656
1772572722998919700,4.280919677734375,9.522835731506348,1.6761722564697266,0.3290131092071533
1772572723016735700,4.29873583984375,9.45164966583252,1.7234305143356323,0.4007977843284607
1772572723034588400,4.31658837890625,9.556933403015137,1.6522440910339355,0.41515472531318665
1772572723052414500,4.33441455078125,9.628120422363281,1.6145570278167725,0.4103690981864929
1772572723070259200,4.35225927734375,9.79083251953125,1.6103696823120117,0.38225340843200684
1772572723088094200,4.37009423828125,9.633503913879395,1.5954145193099976,0.4630111753940582
1772572723105931000,4.387930908203125,9.45164966583252,1.685145378112793,0.41934216022491455
1772572723123766000,4.40576611328125,9.4660062789917,1.6618152856826782,0.44805604219436646
1772572723141601800,4.423601806640625,9.613762855529785,1.7102699279785156,0.5581258535385132
1772572723159439600,4.441439697265625,9.65683364868164,1.7252250909805298,0.5772684812545776
1772572723177273600,4.459273681640625,9.509077072143555,1.786242127418518,0.5629115104675293
1772572723195108600,4.477108642578125,9.637691497802734,1.7820546627044678,0.5772684812545776
1772572723212941600,4.494941650390625,9.881160736083984,1.7120646238327026,0.5635097622871399
1772572723230784300,4.5127841796875,9.771689414978027,1.6151553392410278,0.4247260093688965
1772572723248615000,4.530614990234375,9.642477035522461,1.6193426847457886,0.3720839321613312
1772572723266451500,4.548451416015625,9.57069206237793,1.6618152856826782,0.36251261830329895
1772572723284284000,4.566283935546875,9.594620704650879,1.604387640953064,0.3433700501918793
1772572723302125800,4.584125732421875,9.580862045288086,1.4608181715011597,0.22911277413368225
1772572723319958300,4.601958251953125,9.499505996704102,1.4554343223571777,0.21954147517681122
1772572723337793500,4.61979345703125,9.4660062789917,1.5415760278701782,0.30508488416671753
1772572723355629300,4.63762939453125,9.776474952697754,1.6061822175979614,0.5204389095306396
1772572723373464800,4.65546484375,9.852447509765625,1.6450655460357666,0.5970092415809631
1772572723391300900,4.67330078125,9.618548393249512,1.6145570278167725,0.50129634141922
1772572723409136600,4.69113671875,9.585647583007812,1.5810575485229492,0.43908295035362244
1772572723426972200,4.70897216796875,9.65683364868164,1.5960127115249634,0.5252245664596558
1772572723444807700,4.7268076171875,9.7669038772583,1.5535401105880737,0.49710890650749207
1772572723462643500,4.7446435546875,9.747760772705078,1.5385849475860596,0.486939400434494
1772572723480464600,4.762464599609375,9.571290969848633,1.6145570278167725,0.5102694034576416
1772572723498307800,4.780307861328125,9.485149383544922,1.7096717357635498,0.5676971673965454
1772572723516140500,4.798140625,9.533005714416504,1.7383856773376465,0.6107679605484009
1772572723533986000,4.815986083984375,9.728618621826172,1.74496591091156,0.6921239495277405
1772572723551821000,4.833821044921875,9.69511890411377,1.710868239402771,0.6586244106292725
1772572723569657000,4.851656982421875,9.518648147583008,1.6809579133987427,0.5916253924369812
1772572723587492900,4.869492919921875,9.422935485839844,1.7186448574066162,0.5958128571510315
1772572723605328400,4.887328369140625,9.456435203552246,1.7766708135604858,0.672383189201355
1772572723623164000,4.905163818359375,9.446864128112793,1.7048860788345337,0.6293123364448547
1772572723640999400,4.92299951171875,9.681360244750977,1.5720844268798828,0.6346961855888367
1772572723658835000,4.9408349609375,9.681360244750977,1.6199408769607544,0.6777670383453369
1772572723676671200,4.958671142578125,9.556933403015137,1.6863417625427246,0.6867401003837585
1772572723694505700,4.976505615234375,9.489934921264648,1.657029628753662,0.5772684812545776
1772572723712340700,4.9943408203125,9.542576789855957,1.5326029062271118,0.45284169912338257
1772572723730179000,5.012178955078125,9.724431037902832,1.4572290182113647,0.4773681163787842
1772572723748011500,5.030011474609375,9.733404159545898,1.5720844268798828,0.5587241053581238
1772572723765850600,5.0478505859375,9.685547828674316,1.643869161605835,0.5868397355079651
1772572723783684600,5.0656845703125,9.738189697265625,1.5960127115249634,0.5395814776420593
1772572723801512000,5.083511962890625,9.724431037902832,1.5433706045150757,0.46779683232307434
1772572723819354400,5.101354248046875,9.533005714416504,1.6091731786727905,0.47198426723480225
1772572723837191000,5.11919091796875,9.499505996704102,1.6809579133987427,0.5437689423561096
1772572723855026700,5.137026611328125,9.609575271606445,1.6815561056137085,0.6011967062950134
1772572723872862500,5.154862548828125,9.600004196166992,1.6576279401779175,0.5964110493659973
1772572723890684700,5.1726845703125,9.57607650756836,1.6002001762390137,0.5341976284980774
1772572723908534000,5.190533935546875,9.686145782470703,1.5194423198699951,0.5156532526016235
1772572723926369300,5.208369384765625,9.585647583007812,1.609771490097046,0.5246263742446899
1772572723944205000,5.226205078125,9.509077072143555,1.6761722564697266,0.5533402562141418
1772572723962040800,5.244040771484375,9.628718376159668,1.662413477897644,0.582054078578949
1772572723979875800,5.261875732421875,9.643074989318848,1.662413477897644,0.5629115104675293
1772572723997712000,5.2797119140625,9.690333366394043,1.6247265338897705,0.534795880317688
1772572724015547400,5.29754736328125,9.633503913879395,1.6193426847457886,0.486939400434494
1772572724033383700,5.3153837890625,9.595218658447266,1.7102699279785156,0.5485545992851257
1772572724051218400,5.333218505859375,9.661619186401367,1.7635103464126587,0.6394818425178528
1772572724069054200,5.35105419921875,9.738189697265625,1.6869399547576904,0.5300102233886719
1772572724086890000,5.368889892578125,9.742975234985352,1.6007983684539795,0.5156532526016235
1772572724104726300,5.386726318359375,9.509077072143555,1.695314884185791,0.4863412082195282
1772572724122560500,5.404560546875,9.232108116149902,1.82273268699646,0.5665007829666138
1772572724140396500,5.422396484375,9.413962364196777,1.7330018281936646,0.5718846321105957
1772572724158232300,5.440232421875,9.628718376159668,1.6480566263198853,0.582054078578949
1772572724176067800,5.45806787109375,9.675976753234863,1.6534404754638672,0.6299105882644653
1772572724193903400,5.4759033203125,9.53779125213623,1.7150555849075317,0.6245267391204834
1772572724211739000,5.49373876953125,9.408578872680664,1.7138592004776,0.5527420043945312
1772572724229574400,5.511574462890625,9.375677108764648,1.6995022296905518,0.5240281820297241
1772572724247410400,5.529410400390625,9.446864128112793,1.6803597211837769,0.47676992416381836
1772572724265245700,5.54724560546875,9.709476470947266,1.6199408769607544,0.486939400434494
1772572724283081500,5.56508154296875,9.642477035522461,1.6719847917556763,0.47676992416381836
1772572724300917000,5.5829169921875,9.499505996704102,1.7910277843475342,0.5246263742446899
1772572724318750000,5.60075,9.65683364868164,1.8011972904205322,0.5868397355079651
1772572724336588000,5.618588134765625,9.652048110961914,1.72941255569458,0.5006981492042542
1772572724354418700,5.636418701171875,9.56650447845459,1.6809579133987427,0.3810569941997528
1772572724372259300,5.65425927734375,9.528220176696777,1.714457392692566,0.39062830805778503
1772572724390088400,5.67208837890625,9.561120986938477,1.7623138427734375,0.47676992416381836
1772572724407918000,5.68991796875,9.489934921264648,1.7766708135604858,0.47198426723480225
1772572724425758500,5.707758544921875,9.5802640914917,1.7288143634796143,0.4624129831790924
1772572724443602000,5.725601806640625,9.590433120727539,1.6666009426116943,0.45284169912338257
1772572724461437700,5.743437744140625,9.571290969848633,1.6522440910339355,0.3720839321613312
1772572724479273000,5.76127294921875,9.747760772705078,1.5960127115249634,0.44386860728263855
1772572724497109000,5.77910888671875,9.723833084106445,1.6247265338897705,0.49172505736351013
1772572724514943000,5.79694287109375,9.547362327575684,1.690529227256775,0.4289134442806244
1772572724532781300,5.81478125,9.571290969848633,1.7001005411148071,0.44805604219436646
1772572724550615000,5.832614990234375,9.623334884643555,1.700698733329773,0.44805604219436646
1772572724568448300,5.8504482421875,9.57607650756836,1.7383856773376465,0.47198426723480225
1772572724586287900,5.868287841796875,9.575477600097656,1.781456470489502,0.5054838061332703
1772572724604124200,5.886124267578125,9.422935485839844,1.7569299936294556,0.39541393518447876
1772572724621957600,5.90395751953125,9.298508644104004,1.755733609199524,0.3188436031341553
1772572724639793200,5.921793212890625,9.41336441040039,1.8185452222824097,0.3810569941997528
1772572724657629000,5.93962890625,9.661619186401367,1.7964116334915161,0.45284169912338257
1772572724675464700,5.957464599609375,9.871589660644531,1.7593228816986084,0.4103690981864929
1772572724693300000,5.975300048828125,10.029516220092773,1.683350682258606,0.39182472229003906
1772572724711135700,5.9931357421875,10.12463092803955,1.6360924243927002,0.41096729040145874
1772572724728971800,6.0109716796875,9.972088813781738,1.6211373805999756,0.38225340843200684
1772572724746807000,6.02880712890625,9.647860527038574,1.5565310716629028,0.2955136001110077
1772572724764642300,6.046642333984375,9.513862609863281,1.6133606433868408,0.357128769159317
1772572724782478000,6.06447802734375,9.33739185333252,1.7180466651916504,0.3565305769443512
1772572724800313300,6.082313232421875,9.4660062789917,1.709073543548584,0.4145565330982208
1772572724818136600,6.100136474609375,9.614361763000488,1.6241283416748047,0.4289134442806244
1772572724835984600,6.117984619140625,9.643074989318848,1.5619150400161743,0.38644084334373474
1772572724853814300,6.135814208984375,9.485747337341309,1.536790370941162,0.3044866919517517
1772572724871655700,6.15365576171875,9.279964447021484,1.6169499158859253,0.31824541091918945
1772572724889484800,6.17148486328125,9.22253704071045,1.7700905799865723,0.3900300860404968
1772572724907327000,6.189326904296875,9.418149948120117,1.843071699142456,0.47617170214653015
1772572724925162500,6.20716259765625,9.719047546386719,1.7156537771224976,0.46719861030578613
1772572724942998500,6.22499853515625,9.824331283569336,1.5912270545959473,0.36251261830329895
1772572724960834000,6.242833984375,9.714262008666992,1.6289139986038208,0.3529413342475891
1772572724978669300,6.26066943359375,9.68076229095459,1.700698733329773,0.42412781715393066
1772572724996505000,6.278505126953125,9.590433120727539,1.7431713342666626,0.4001995921134949
1772572725014337800,6.296337890625,9.504291534423828,1.7042878866195679,0.33798620104789734
1772572725032179500,6.314179443359375,9.585647583007812,1.6713865995407104,0.3858426511287689
1772572725050007000,6.332007080078125,9.509077072143555,1.7377874851226807,0.4145565330982208
1772572725067851800,6.349851806640625,9.533005714416504,1.7910277843475342,0.48574298620224
1772572725085681700,6.367681640625,9.53779125213623,1.810170292854309,0.5144568681716919
1772572725103519700,6.385519775390625,9.470791816711426,1.8287147283554077,0.47617170214653015
1772572725121353700,6.403353759765625,9.585647583007812,1.7336000204086304,0.44327038526535034
1772572725139189500,6.421189453125,9.403793334960938,1.8185452222824097,0.45224347710609436
1772572725157025000,6.43902490234375,9.422935485839844,1.9100706577301025,0.5575276613235474
1772572725174859800,6.45685986328125,9.523433685302734,1.9154545068740845,0.6197410821914673
1772572725192697000,6.474697021484375,9.618548393249512,1.906481385231018,0.5910272002220154
1772572725210531800,6.49253173828125,9.685547828674316,1.8394824266433716,0.576670229434967
1772572725228354000,6.51035400390625,9.647262573242188,1.8394824266433716,0.5335994362831116
1772572725246206200,6.528206298828125,9.461220741271973,1.8287147283554077,0.4666004180908203
1772572725264038700,6.54603857421875,9.580862045288086,1.7575281858444214,0.36670008301734924
1772572725281874000,6.5638740234375,9.56650447845459,1.6857435703277588,0.3762713670730591
1772572725299709400,6.58170947265625,9.446864128112793,1.7473586797714233,0.4043870270252228
1772572725317545500,6.59954541015625,9.303893089294434,1.784447431564331,0.39481574296951294
1772572725335380700,6.617380615234375,9.346963882446289,1.8041882514953613,0.44745782017707825
1772572725353216500,6.635216552734375,9.494720458984375,1.6516457796096802,0.3236292600631714
1772572725371051800,6.6530517578125,9.609575271606445,1.5996019840240479,0.39541393518447876
1772572725388888000,6.67088818359375,9.719645500183105,1.6773686408996582,0.5485545992851257
1772572725406723000,6.68872314453125,9.833903312683105,1.80717933177948,0.6681957244873047
1772572725424558600,6.70655859375,9.919445991516113,1.8029918670654297,0.6394818425178528
1772572725442394000,6.72439404296875,9.800403594970703,1.7587246894836426,0.5437689423561096
1772572725460230100,6.742230224609375,9.55214786529541,1.805384635925293,0.4289134442806244
1772572725478063000,6.76006298828125,9.594620704650879,1.8005990982055664,0.4289134442806244
1772572725495888000,6.777887939453125,9.675976753234863,1.7772690057754517,0.4289134442806244
1772572725513726000,6.795725830078125,9.733404159545898,1.734796404838562,0.44805604219436646
1772572725531574500,6.813574462890625,9.671191215515137,1.7820546627044678,0.47676992416381836
1772572725549402000,6.831402099609375,9.53779125213623,1.7718851566314697,0.44327038526535034
1772572725567243300,6.8492431640625,9.4660062789917,1.7473586797714233,0.4145565330982208
1772572725585078800,6.867078857421875,9.499505996704102,1.6803597211837769,0.39062830805778503
1772572725602914600,6.88491455078125,9.667003631591797,1.6193426847457886,0.47676992416381836
1772572725620749300,6.902749267578125,9.55214786529541,1.714457392692566,0.5288137793540955
1772572725638585000,6.920585205078125,9.342177391052246,1.8089739084243774,0.5377869009971619
1772572725656420600,6.938420654296875,9.408578872680664,1.795215129852295,0.5623133182525635
1772572725674256600,6.956256591796875,9.623932838439941,1.7581263780593872,0.5670989751815796
1772572725692091400,6.97409130859375,9.604789733886719,1.7916259765625,0.5814558863639832
1772572725709927400,6.991927490234375,9.475577354431152,1.8287147283554077,0.5527420043945312
1772572725727763200,7.00976318359375,9.365508079528809,1.8664016723632812,0.5186443328857422
1772572725745599000,7.027598876953125,9.647262573242188,1.7868403196334839,0.5102694034576416
1772572725763434000,7.04543408203125,9.876974105834961,1.6636099815368652,0.5443671345710754
1772572725781267500,7.063267333984375,9.742975234985352,1.7204394340515137,0.5581258535385132
1772572725799107600,7.081107666015625,9.571290969848633,1.810170292854309,0.5527420043945312
1772572725816941000,7.098941162109375,9.446864128112793,1.83828604221344,0.5760720372200012
1772572725834776000,7.116776123046875,9.418149948120117,1.8335003852844238,0.5808576941490173
1772572725852611800,7.13461181640625,9.390034675598145,1.8239290714263916,0.5569294691085815
1772572725870447400,7.152447265625,9.580862045288086,1.7575281858444214,0.5431707501411438
1772572725888283400,7.170283447265625,9.66221809387207,1.7485551834106445,0.5814558863639832
1772572725906118400,7.188118408203125,9.614361763000488,1.7676976919174194,0.5288137793540955
1772572725923954000,7.205953857421875,9.704689979553223,1.810768485069275,0.529412031173706
1772572725941789200,7.2237890625,9.752547264099121,1.7826528549194336,0.5341976284980774
1772572725959625200,7.241625244140625,9.614361763000488,1.781456470489502,0.4336991012096405
1772572725977460200,7.259460205078125,9.370293617248535,1.8424733877182007,0.380458801984787
1772572725995296000,7.2772958984375,9.389435768127441,1.8376877307891846,0.3326023519039154
1772572726013132000,7.295132080078125,9.57607650756836,1.7670994997024536,0.36670008301734924
1772572726030967600,7.312967529296875,9.69511890411377,1.6911274194717407,0.3810569941997528
1772572726048802600,7.330802490234375,9.56650447845459,1.7001005411148071,0.3810569941997528
1772572726066638300,7.348638427734375,9.542576789855957,1.7575281858444214,0.4426721930503845
1772572726084473600,7.3664736328125,9.69511890411377,1.7341982126235962,0.5437689423561096
1772572726102309600,7.3843095703125,9.78126049041748,1.7012969255447388,0.5724828243255615
1772572726120132000,7.402132080078125,9.67657470703125,1.6911274194717407,0.5341976284980774
1772572726137980400,7.41998046875,9.403793334960938,1.8287147283554077,0.5330012440681458
1772572726155803400,7.437803466796875,9.394221305847168,1.862214207649231,0.5521438121795654
1772572726173652200,7.45565234375,9.542576789855957,1.8388842344284058,0.5527420043945312
1772572726191474400,7.473474365234375,9.747760772705078,1.7539390325546265,0.5054838061332703
1772572726209319200,7.491319091796875,9.704689979553223,1.7724833488464355,0.47198426723480225
1772572726227158300,7.509158203125,9.547362327575684,1.8197416067123413,0.4666004180908203
1772572726244991000,7.526990966796875,9.41336441040039,1.8855443000793457,0.47557350993156433
1772572726262832000,7.54483203125,9.375079154968262,1.8999011516571045,0.4372883439064026
1772572726280664600,7.56266455078125,9.480362892150879,1.8335003852844238,0.4139583110809326
1772572726298500600,7.58050048828125,9.661619186401367,1.7772690057754517,0.42412781715393066
1772572726316336000,7.598336181640625,9.915258407592773,1.7066807746887207,0.49591249227523804
1772572726334171100,7.616171142578125,9.814760208129883,1.7060825824737549,0.47676992416381836
1772572726352007000,7.6340068359375,9.55214786529541,1.7240287065505981,0.4091726839542389
1772572726369837600,7.651837646484375,9.399605751037598,1.770688772201538,0.3900300860404968
1772572726387680500,7.669680419921875,9.461220741271973,1.7904295921325684,0.4091726839542389
1772572726405515300,7.687515380859375,9.590433120727539,1.7910277843475342,0.42831525206565857
1772572726423349000,7.705348876953125,9.604789733886719,1.7001005411148071,0.4139583110809326
1772572726441184300,7.723184326171875,9.647860527038574,1.7431713342666626,0.4331009089946747
1772572726459020300,7.741020263671875,9.68076229095459,1.7772690057754517,0.4145565330982208
1772572726476854800,7.758854736328125,9.657432556152344,1.7096717357635498,0.34277185797691345
1772572726494691000,7.776691162109375,9.494720458984375,1.709073543548584,0.2709871530532837
1772572726512526300,7.7945263671875,9.470791816711426,1.8335003852844238,0.37088751792907715
1772572726530362400,7.8123623046875,9.623334884643555,1.867598056793213,0.4426721930503845
1772572726548197400,7.830197265625,9.675976753234863,1.8394824266433716,0.42412781715393066
1772572726566033200,7.848033203125,9.723833084106445,1.7533408403396606,0.4001995921134949
1772572726583869000,7.865868896484375,9.68076229095459,1.7533408403396606,0.357128769159317
1772572726601692000,7.88369189453125,9.595218658447266,1.7766708135604858,0.3810569941997528
1772572726619532800,7.90153271484375,9.53779125213623,1.843071699142456,0.3852444589138031
1772572726637375200,7.919375244140625,9.499505996704102,1.83828604221344,0.37088751792907715
1772572726655210800,7.937210693359375,9.509077072143555,1.8191434144973755,0.37088751792907715
1772572726673046800,7.955046875,9.485149383544922,1.8143577575683594,0.3852444589138031
1772572726690881300,7.97288134765625,9.399605751037598,1.789831280708313,0.3278166949748993
1772572726708717600,7.990717529296875,9.404391288757324,1.794616937637329,0.34695929288864136
1772572726726553000,8.008552978515626,9.470791816711426,1.8287147283554077,0.42831525206565857
1772572726744388900,8.026388916015625,9.361320495605469,1.8759729862213135,0.4325026869773865
1772572726762223400,8.044223388671876,9.41336441040039,1.9046868085861206,0.45164528489112854
1772572726780059400,8.062059326171875,9.604789733886719,1.8293129205703735,0.4618147611618042
1772572726797893600,8.0798935546875,9.728618621826172,1.85383939743042,0.4666004180908203
1772572726815731700,8.097731689453125,9.80937671661377,1.911865234375,0.4911268353462219
1772572726833566000,8.11556591796875,9.967302322387695,1.8891334533691406,0.5198407173156738
1772572726851400400,8.133400390625,9.795618057250977,1.8442680835723877,0.357128769159317
1772572726869237800,8.15123779296875,9.317651748657227,1.8699909448623657,0.16031911969184875
1772572726887073000,8.169072998046875,9.709476470947266,1.9016958475112915,0.380458801984787
1772572726904906500,8.186906494140626,9.719047546386719,1.9304096698760986,0.3900300860404968
1772572726922744000,8.204744140625,9.489934921264648,1.9914265871047974,0.4085744619369507
1772572726940578600,8.22257861328125,9.45164966583252,1.9286150932312012,0.3086741268634796
1772572726958414600,8.24041455078125,9.45583724975586,1.9956140518188477,0.26081767678260803
1772572726976249600,8.25824951171875,9.260822296142578,1.841277003288269,0.13160525262355804
