time,seconds_elapsed,z,y,x
1772572947143071200,0.1580712890625,9.449854850769043,2.885145902633667,-0.01375873014330864
1772572947160906000,0.175906005859375,9.253045082092285,3.266202926635742,-0.062213387340307236
1772572947178740700,0.19374072265625,9.367900848388672,3.13220477104187,-0.39601215720176697
1772572947196575700,0.21157568359375,8.756534576416016,3.1238300800323486,-0.7172485589981079
1772572947214411800,0.229411865234375,8.350353240966797,3.3415768146514893,-0.589830756187439
1772572947232245500,0.24724560546875,7.64865779876709,3.4193434715270996,-0.4097708761692047
1772572947256894700,0.271894775390625,7.834699630737305,3.5682966709136963,-0.6628118753433228
1772572947274594300,0.28959423828125,6.87099027633667,3.7639100551605225,-0.4498506486415863
1772572947292439300,0.307439208984375,7.174280643463135,3.486940860748291,-0.3888336718082428
1772572947310261200,0.32526123046875,8.217551231384277,3.2512478828430176,0.36251261830329895
1772572947328104700,0.343104736328125,8.81934642791748,3.221935749053955,0.6532405614852905
1772572947345943300,0.360943359375,8.69910717010498,2.6368906497955322,0.38225340843200684
1772572947363776500,0.378776611328125,8.275577545166016,2.001596212387085,0.31764721870422363
1772572947381614600,0.396614501953125,8.447261810302734,1.6139588356018066,0.3403790295124054
1772572947399447600,0.414447509765625,8.679366111755371,1.672582983970642,0.5306084156036377
1772572947417282600,0.432282470703125,7.552944660186768,1.6582261323928833,0.4336991012096405
1772572947435117300,0.450117431640625,7.071389198303223,1.7473586797714233,-0.14057832956314087
1772572947452950500,0.467950439453125,7.39980411529541,1.6145570278167725,-0.3684946894645691
1772572947470787600,0.48578759765625,7.427321434020996,0.6873382925987244,-0.6879364848136902
1772572947488608800,0.50360888671875,7.2867431640625,0.23748764395713806,-1.581655740737915
1772572947506454000,0.5214541015625,8.033902168273926,0.2793620526790619,-2.4562325477600098
1772572947524292600,0.539292724609375,7.334599494934082,0.5030909776687622,-2.561516523361206
1772572947542126300,0.557126220703125,6.370890140533447,3.252444267272949,-1.8580267429351807
1772572947559960300,0.574960205078125,5.734997749328613,7.898707389831543,-2.3204398155212402
1772572947577795300,0.59279541015625,8.823533058166504,6.028716564178467,-2.268994092941284
1772572947595630000,0.610630126953125,14.979069709777832,6.4947190284729,-1.7868403196334839
1772572947613465000,0.628465087890625,16.25623893737793,7.223931789398193,-1.093519926071167
1772572947631299300,0.64629931640625,16.405790328979492,7.740781307220459,-0.8255237936973572
1772572947649134300,0.66413427734375,17.95574188232422,7.013363361358643,-0.7405785918235779
1772572947666969300,0.68196923828125,18.37149429321289,7.36032247543335,-0.865005373954773
1772572947684804600,0.6998046875,16.942380905151367,7.901100158691406,-0.9996016621589661
1772572947702639000,0.71763916015625,13.900505065917969,8.492725372314453,-1.085145115852356
1772572947720461000,0.7354609375,11.340185165405273,7.651050567626953,-1.4111671447753906
1772572947738308400,0.753308349609375,9.578469276428223,5.523830890655518,-2.117648124694824
1772572947756143900,0.771143798828125,9.250054359436035,3.4277184009552,-2.2648067474365234
1772572947773978000,0.78897802734375,9.284152030944824,1.9692929983139038,-1.2819547653198242
1772572947791812900,0.806812744140625,7.672585964202881,0.6323033571243286,0.02871387079358101
1772572947809647400,0.8246474609375,5.208576679229736,1.0809576511383057,1.469791293144226
1772572947827482600,0.842482666015625,3.84765887260437,2.0985054969787598,2.245664119720459
1772572947845317000,0.860317138671875,3.242274761199951,3.001796007156372,2.4299113750457764
1772572947863152000,0.878152099609375,3.6335012912750244,3.0717861652374268,2.0482561588287354
1772572947880986600,0.895986572265625,4.9531426429748535,2.3186452388763428,1.6498512029647827
1772572947898821600,0.913821533203125,5.80199670791626,1.5792629718780518,1.0241280794143677
1772572947916656000,0.93165625,6.105287075042725,1.246660590171814,1.0061819553375244
1772572947934491000,0.949490966796875,5.9198431968688965,1.40279221534729,1.3334003686904907
1772572947952326400,0.967326416015625,6.116054534912109,2.021935224533081,2.008774518966675
1772572947970159400,0.985159423828125,6.150152206420898,2.3856441974639893,2.142174482345581
1772572947987996200,1.00299609375,5.610570907592773,1.8424733877182007,1.4572290182113647
1772572948005830400,1.020830322265625,5.350949764251709,0.31465616822242737,0.5461617708206177
1772572948023664600,1.03866455078125,5.66620397567749,-1.0450652837753296,-0.0975075215101242
1772572948041500200,1.056500244140625,5.140979290008545,-0.32303106784820557,0.16689938306808472
1772572948059334100,1.074334228515625,4.406383037567139,0.9302098155021667,1.0402796268463135
1772572948077159700,1.09215966796875,7.5708909034729,2.2019951343536377,1.7365909814834595
1772572948095004000,1.11000390625,8.894122123718262,3.0681967735290527,1.5499508380889893
1772572948112838400,1.12783837890625,6.303891181945801,3.7393836975097656,1.95852530002594
1772572948130673700,1.145673583984375,3.301496982574463,4.355535507202148,2.070389747619629
1772572948148508200,1.163508056640625,9.631111145019531,6.28415060043335,0.9643075466156006
1772572948166343400,1.181343505859375,18.069997787475586,6.437889099121094,2.434098720550537
1772572948184178200,1.19917822265625,18.396020889282227,6.7178497314453125,3.6089746952056885
1772572948202012000,1.217011962890625,10.74556827545166,7.664210796356201,2.416750907897949
1772572948219847400,1.234847412109375,7.347760200500488,7.606783390045166,-1.4344971179962158
1772572948237682700,1.2526826171875,10.220941543579102,7.916653633117676,-2.751147747039795
1772572948255517400,1.270517333984375,14.154144287109375,8.165507316589355,-0.8075776696205139
1772572948273352000,1.28835205078125,16.98844337463379,8.520841598510742,-0.1417747437953949
1772572948291186400,1.3061865234375,20.945573806762695,6.839883327484131,-0.05144568532705307
1772572948309021200,1.324021240234375,21.391834259033203,4.584050178527832,0.23629122972488403
1772572948326856200,1.341856201171875,19.338193893432617,3.573082447052002,-0.45942193269729614
1772572948344690700,1.359690673828125,14.30309772491455,2.730210542678833,-1.0666006803512573
1772572948362525700,1.377525634765625,8.372486114501953,1.5936198234558105,-1.8400806188583374
1772572948380360200,1.395360107421875,1.80717933177948,0.7262216806411743,-0.8602197170257568
1772572948398186800,1.413186767578125,2.342573404312134,2.633899450302124,0.698704183101654
1772572948416030000,1.431030029296875,6.737590312957764,3.071187973022461,2.1003000736236572
1772572948433864700,1.44886474609375,7.376473903656006,2.5633113384246826,2.2851455211639404
1772572948451682000,1.46668212890625,5.587240695953369,2.0279171466827393,1.9555343389511108
1772572948469534200,1.4845341796875,4.618745803833008,2.0141584873199463,1.9411773681640625
1772572948487369200,1.502369140625,3.651447296142578,2.0709879398345947,2.015354871749878
1772572948505204000,1.520203857421875,3.321237802505493,1.8394824266433716,1.8047864437103271
1772572948523038500,1.53803857421875,4.1347975730896,1.4177473783493042,1.088136076927185
1772572948540874000,1.5558740234375,4.3417768478393555,0.9882357716560364,0.012562318705022335
1772572948558697700,1.57369775390625,4.839483737945557,1.0965110063552856,-0.9068797826766968
1772572948576532500,1.591532470703125,4.7958149909973145,1.0360921621322632,-1.1694921255111694
1772572948594377700,1.609377685546875,4.898108005523682,1.1928220987319946,-0.5892325639724731
1772572948612202200,1.6272021484375,6.565905570983887,1.4991034269332886,0.04366901144385338
1772572948630047200,1.645047119140625,7.934599876403809,1.090528964996338,0.656829833984375
1772572948647870200,1.6628701171875,7.735995769500732,0.31824541091918945,0.7166503667831421
1772572948665717000,1.680717041015625,6.125027656555176,-0.4420739710330963,0.5551348328590393
1772572948683552000,1.698552001953125,6.31944465637207,-0.21714866161346436,0.5006981492042542
1772572948701386200,1.71638623046875,7.651050567626953,0.859621524810791,1.9363917112350464
1772572948719221000,1.734220947265625,7.348358154296875,1.8735800981521606,2.7493531703948975
1772572948737056300,1.75205615234375,7.765905857086182,1.089930772781372,1.851446509361267
1772572948754891300,1.769891357421875,7.64865779876709,1.1748759746551514,0.6921239495277405
1772572948772725500,1.7877255859375,8.877969741821289,3.0837502479553223,0.36191442608833313
1772572948790560300,1.805560302734375,12.996018409729004,4.572085857391357,-0.025722842663526535
1772572948808393500,1.8233935546875,16.395620346069336,3.8524444103240967,-0.7154539823532104
1772572948826231800,1.841231689453125,17.926429748535156,5.373681545257568,-1.7383856773376465
1772572948844065000,1.85906494140625,17.270795822143555,7.750352382659912,-1.7413766384124756
1772572948861899300,1.876899169921875,18.209381103515625,9.246464729309082,-1.633699655532837
1772572948879721700,1.8947216796875,18.399011611938477,8.176873207092285,-2.321038007736206
1772572948897569000,1.912569091796875,19.743179321289062,8.233104705810547,-2.246262311935425
1772572948915403500,1.930403564453125,20.7362003326416,9.151350021362305,-0.07178468257188797
1772572948933238500,1.948238525390625,18.55753517150879,8.088936805725098,-0.2805584669113159
1772572948951073500,1.966073486328125,13.403395652770996,7.373483180999756,-0.47258245944976807
1772572948968908300,1.983908203125,7.850851058959961,6.980462074279785,-0.24586252868175507
1772572948986743000,2.001742919921875,3.841676712036133,6.099305152893066,-0.22013968229293823
1772572949004577500,2.01957763671875,4.064209461212158,5.01296329498291,0.5724828243255615
1772572949022412800,2.037412841796875,5.97727108001709,3.5946178436279297,0.615553617477417
1772572949040247300,2.055247314453125,4.907081127166748,2.8450660705566406,0.2021935135126114
1772572949058078000,2.073077880859375,3.3517463207244873,3.259622573852539,1.3058829307556152
1772572949075916800,2.090916748046875,3.5880374908447266,2.3437697887420654,0.768694281578064
1772572949093751800,2.108751708984375,3.5473594665527344,1.6474584341049194,0.1902294009923935
1772572949111587000,2.126587158203125,4.291527271270752,1.3651052713394165,0.11006984114646912
1772572949129421000,2.144421142578125,5.358726501464844,1.0217353105545044,-0.09032905846834183
1772572949147256300,2.16225634765625,6.318248271942139,0.5234299302101135,-0.31824541091918945
1772572949165091000,2.180091064453125,5.739185333251953,0.5928218364715576,-0.3607180118560791
1772572949182925800,2.19792578125,3.99900484085083,0.8201399445533752,-0.16809579730033875
1772572949200760300,2.21576025390625,2.809173822402954,1.0037890672683716,-0.10229317098855972
1772572949218595000,2.233594970703125,3.1728827953338623,1.0671988725662231,0.15314064919948578
1772572949236430300,2.251430419921875,3.3984062671661377,0.8099704384803772,0.037088751792907715
1772572949254265000,2.26926513671875,2.9862427711486816,0.4660021960735321,-0.7704889178276062
1772572949272100400,2.287100341796875,1.7653049230575562,0.7920243144035339,-1.469791293144226
1772572949289933600,2.30493359375,0.11605189740657806,1.6211373805999756,-1.2340983152389526
1772572949307767600,2.322767578125,-1.0654042959213257,2.538186550140381,-0.5527420043945312
1772572949325606000,2.34060595703125,-0.372682124376297,4.412963390350342,0.9272187948226929
1772572949343439400,2.358439453125,1.9884356260299683,6.282954216003418,1.8807586431503296
1772572949361273000,2.376273193359375,5.9784674644470215,6.753143787384033,2.870789051055908
1772572949379108000,2.394108154296875,12.488141059875488,7.125825881958008,2.768495798110962
1772572949396943000,2.411943115234375,16.33101463317871,7.777870178222656,2.1128623485565186
1772572949414777600,2.429777587890625,20.39522361755371,7.746763229370117,1.0444670915603638
1772572949432612900,2.44761279296875,21.695125579833984,7.379465103149414,-2.2893331050872803
1772572949450447600,2.465447509765625,22.168903350830078,7.6474609375,-3.9810585975646973
1772572949468282600,2.48328271484375,23.370698928833008,8.070990562438965,-3.514458179473877
1772572949486103800,2.501103759765625,23.966510772705078,8.680562019348145,-2.9204399585723877
1772572949503941600,2.518941650390625,22.582263946533203,9.875179290771484,-1.6995022296905518
1772572949521788200,2.5367880859375,20.150558471679688,9.747162818908691,-0.6981059908866882
1772572949539621600,2.55462158203125,16.85743522644043,8.448458671569824,-1.48055899143219
1772572949557456400,2.572456298828125,13.434502601623535,6.789036273956299,-2.1577277183532715
1772572949575291400,2.59029150390625,7.385447025299072,5.921039581298828,-1.179063320159912
1772572949593126100,2.608126220703125,3.13639235496521,4.641477584838867,-0.397208571434021
1772572949610961000,2.6259609375,2.4951157569885254,2.782254457473755,-0.46002015471458435
1772572949628795400,2.64379541015625,3.0490541458129883,1.0815558433532715,-0.5551348328590393
1772572949646631000,2.661630859375,3.1591241359710693,0.4366901218891144,-0.3978067636489868
1772572949664456700,2.679456787109375,3.0520453453063965,0.32662028074264526,-0.2919243574142456
1772572949682300000,2.6972998046875,1.5224334001541138,0.8727820515632629,0.18065811693668365
1772572949700134700,2.715134765625,1.1383854150772095,1.2873386144638062,0.7405785918235779
1772572949717960000,2.7329599609375,2.4747767448425293,0.8620143532752991,-0.11605189740657806
1772572949735793400,2.75079345703125,4.3758745193481445,0.6508477330207825,-0.5006981492042542
1772572949753628200,2.768628173828125,5.36650276184082,0.4175475537776947,-0.7094719409942627
1772572949771475200,2.78647509765625,4.85324239730835,0.6825526356697083,-0.7154539823532104
1772572949789308200,2.80430810546875,3.294318675994873,1.4482558965682983,-0.18544375896453857
1772572949807143700,2.822143798828125,2.54536509513855,1.7120646238327026,0.15912270545959473
1772572949824978700,2.839978759765625,3.1405797004699707,1.1988041400909424,-0.26500511169433594
1772572949842813200,2.857813232421875,3.2404799461364746,0.7651050686836243,0.06640082597732544
1772572949860648000,2.87564794921875,2.803191661834717,1.5547364950180054,-0.10289137065410614
1772572949878483000,2.89348291015625,2.8348965644836426,1.9052850008010864,-0.6693921089172363
1772572949896317700,2.911317626953125,1.7724833488464355,1.999801516532898,-0.5623133182525635
1772572949914141200,2.92914111328125,1.4799607992172241,3.620938777923584,0.916451096534729
1772572949931989000,2.946989013671875,4.1593241691589355,4.500899314880371,2.2127628326416016
1772572949949822000,2.964822021484375,10.687541961669922,3.345165967941284,0.3397808074951172
1772572949967657200,2.9826572265625,13.76351547241211,2.234896421432495,-0.4450650215148926
1772572949985491500,3.000491455078125,12.363116264343262,0.4384847581386566,-0.5880361795425415
1772572950003326500,3.018326416015625,16.247264862060547,0.7130611538887024,2.3090739250183105
1772572950021161000,3.036160888671875,20.246868133544922,-0.22372891008853912,2.534597396850586
1772572950038996200,3.053996337890625,21.197418212890625,-0.617946445941925,-0.7040880918502808
1772572950056831200,3.071831298828125,21.355941772460938,-0.17288143932819366,-3.315255880355835
1772572950074666000,3.089666015625,21.230318069458008,4.396213531494141,-1.563111424446106
1772572950092501000,3.1075009765625,18.473188400268555,8.298309326171875,-0.1740778535604477
1772572950110335200,3.125335205078125,19.010976791381836,9.196813583374023,-0.14356936514377594
1772572950128164900,3.143164794921875,20.648263931274414,8.163712501525879,-0.6059823632240295
1772572950146005200,3.161005126953125,19.907686233520508,6.61914587020874,1.327418327331543
1772572950163839700,3.17883984375,18.220746994018555,6.436692714691162,1.2263215780258179
1772572950181674800,3.1966748046875,15.2016019821167,4.453640937805176,0.2386840581893921
1772572950199509000,3.214509033203125,10.589436531066895,3.331407308578491,-0.1621137410402298
1772572950217344300,3.23234423828125,8.088936805725098,2.5178475379943848,-0.5288137793540955
1772572950235179000,3.250178955078125,5.97308349609375,1.0223335027694702,-1.709073543548584
1772572950253013800,3.268013671875,3.418147087097168,1.031306505203247,-2.2737796306610107
1772572950270848500,3.2858486328125,2.881556749343872,0.33858439326286316,-1.6205391883850098
1772572950288683500,3.30368359375,4.131806373596191,0.09451649338006973,-0.9559326171875
1772572950306500600,3.32150048828125,6.014957904815674,0.1459621787071228,-1.059422254562378
1772572950324353300,3.339353271484375,6.09751033782959,0.20997019112110138,-0.6897311210632324
1772572950342188300,3.357188232421875,4.913063049316406,0.6783652305603027,-0.2153540402650833
1772572950360016000,3.375015869140625,4.016352653503418,1.2047861814498901,-0.054436713457107544
1772572950377845800,3.392845703125,3.9702908992767334,0.9828519225120544,-0.5204389095306396
1772572950395692800,3.41069287109375,4.109074592590332,0.605384111404419,-0.6448656916618347
1772572950413519000,3.42851904296875,4.8675994873046875,0.4456632137298584,-0.09092725813388824
1772572950431362300,3.4463623046875,4.820939540863037,0.0891326442360878,0.44745782017707825
1772572950449185000,3.46418505859375,2.8073792457580566,-0.048454657196998596,0.47976094484329224
1772572950467032000,3.482031982421875,2.117648124694824,-0.6544370055198669,-1.0319048166275024
1772572950484866800,3.49986669921875,1.6319050788879395,-1.0307083129882812,-1.5846468210220337
1772572950502701600,3.51770166015625,2.2773690223693848,-0.46899324655532837,0.16331014037132263
1772572950520536000,3.5355361328125,1.9351953268051147,1.0516455173492432,1.7593228816986084
1772572950538371000,3.55337109375,0.7698906660079956,2.774477958679199,0.16809579730033875
1772572950556205800,3.571205810546875,-0.16749759018421173,2.908475875854492,-1.700698733329773
1772572950574040800,3.589040771484375,0.7986045479774475,3.4707891941070557,-3.6340994834899902
1772572950591874600,3.60687451171875,2.276770830154419,5.355136871337891,-5.258825778961182
1772572950609710300,3.62471044921875,4.488935470581055,6.912864685058594,-4.7401814460754395
1772572950627546600,3.642546630859375,8.6907320022583,8.478368759155273,-3.8470606803894043
1772572950645377800,3.660377685546875,15.26620864868164,10.320842742919922,-0.8171489238739014
1772572950663217000,3.678216796875,23.726032257080078,11.067402839660645,1.908276081085205
1772572950681049600,3.696049560546875,31.767112731933594,8.956335067749023,2.3509483337402344
1772572950698884000,3.713884033203125,33.27817916870117,8.682954788208008,2.053041934967041
1772572950716719000,3.731718994140625,27.434309005737305,9.853643417358398,1.5284154415130615
1772572950734553900,3.749553955078125,20.602203369140625,10.635498046875,0.2554338276386261
1772572950752387300,3.76738720703125,17.909679412841797,11.406585693359375,0.9804590940475464
1772572950770212400,3.78521240234375,16.459030151367188,12.034701347351074,3.7363924980163574
1772572950788060400,3.803060302734375,12.723834037780762,10.468599319458008,3.184248685836792
1772572950805893400,3.820893310546875,7.976474285125732,6.486343860626221,-0.7124629616737366
1772572950823727900,3.838727783203125,3.954139471054077,3.3367912769317627,-3.3918261528015137
1772572950841563400,3.8565634765625,4.917848587036133,2.1990039348602295,-2.2821545600891113
1772572950859397600,3.874397705078125,6.754938125610352,1.9351953268051147,0.39840495586395264
1772572950877232600,3.892232666015625,7.121638298034668,2.272583246231079,3.035893678665161
1772572950895068000,3.91006787109375,5.332405090332031,2.2600209712982178,2.6213371753692627
1772572950912902100,3.927902099609375,3.940380573272705,1.3184453248977661,-0.2470589429140091
1772572950930737200,3.945737060546875,2.703291416168213,0.924227774143219,-2.0823538303375244
1772572950948571600,3.963571533203125,1.588834285736084,1.4350954294204712,-1.5391831398010254
1772572950966407200,3.9814072265625,1.532004714012146,1.6600207090377808,-0.5706881880760193
1772572950984241400,3.999241455078125,2.681756019592285,1.669592022895813,0.5551348328590393
1772572951002075100,4.0170751953125,2.964707374572754,1.7114664316177368,1.2448660135269165
1772572951019912400,4.034912353515625,3.655634880065918,0.8955138921737671,0.24466611444950104
1772572951037746400,4.052746337890625,3.981656789779663,-0.550349235534668,-0.8512466549873352
1772572951055580700,4.07058056640625,3.7872400283813477,-0.4414757788181305,-0.7334001660346985
1772572951073415400,4.08841552734375,3.8291144371032715,-0.23449662327766418,0.42831525206565857
1772572951091251000,4.1062509765625,3.3296127319335938,-0.04307080805301666,1.490728497505188
1772572951109084200,4.124084228515625,2.469393014907837,-0.2877369225025177,0.6879364848136902
1772572951126921700,4.141921630859375,2.9347970485687256,-0.2877369225025177,-0.3032902777194977
1772572951144755700,4.159755615234375,2.7565317153930664,0.5850451588630676,-0.6747759580612183
1772572951162589000,4.1775888671875,2.9688947200775146,2.0691933631896973,-1.095314621925354
1772572951180424700,4.1954248046875,2.294118642807007,2.637488842010498,-1.435693621635437
1772572951198259200,4.21325927734375,4.831109046936035,3.7603209018707275,-2.2857437133789062
1772572951216095200,4.23109521484375,8.431708335876465,3.2991042137145996,-1.3615161180496216
1772572951233930500,4.248930419921875,12.27697467803955,4.536791801452637,-0.21176479756832123
1772572951251765000,4.266764892578125,12.911670684814453,5.970092296600342,-0.50129634141922
1772572951269600300,4.284600341796875,12.960125923156738,6.713662147521973,-1.8532410860061646
1772572951287434800,4.302434814453125,13.709677696228027,8.108677864074707,-1.2263215780258179
1772572951305269800,4.320269775390625,16.091135025024414,10.109675407409668,-0.768694281578064
1772572951323104000,4.33810400390625,18.30210304260254,9.822537422180176,-2.1684954166412354
1772572951340939000,4.35593896484375,21.510278701782227,9.229117393493652,-1.3465609550476074
1772572951358774300,4.373774169921875,23.191835403442383,9.658628463745117,0.053240302950143814
1772572951376606500,4.3916064453125,22.155742645263672,10.469795227050781,0.9266205430030823
1772572951394446000,4.409446044921875,19.186847686767578,10.215558052062988,0.4654040038585663
1772572951412275500,4.427275390625,14.848660469055176,9.671789169311523,-0.12323036789894104
1772572951430116600,4.44511669921875,9.701699256896973,9.42173957824707,-0.17706887423992157
1772572951447948000,4.462947998046875,7.252645492553711,7.8382887840271,-0.3774677813053131
1772572951465782800,4.48078271484375,5.497509956359863,5.388038158416748,-0.4660021960735321
1772572951483606500,4.4986064453125,5.4071807861328125,4.338187217712402,0.9583254456520081
1772572951501441300,4.516441162109375,5.570491313934326,2.9389843940734863,1.693520188331604
1772572951519276500,4.534276611328125,5.900102615356445,1.4374881982803345,0.8219345808029175
1772572951537124900,4.552124755859375,5.443671703338623,1.057627558708191,0.46061834692955017
1772572951554956800,4.569956787109375,5.813961029052734,1.3094722032546997,0.6065805554389954
1772572951572791600,4.58779150390625,6.080162525177002,1.552941918373108,0.9900303483009338
1772572951590626600,4.60562646484375,4.996213912963867,1.9010975360870361,0.8769695162773132
1772572951608461800,4.6234619140625,3.486342668533325,1.7724833488464355,0.355932354927063
1772572951626296300,4.64129638671875,3.3266217708587646,1.4111671447753906,-0.2805584669113159
1772572951644131000,4.659131103515625,4.108476638793945,1.095314621925354,-0.45583271980285645
1772572951661965800,4.6769658203125,5.162514686584473,0.5330012440681458,-0.544965386390686
1772572951679801000,4.694801025390625,5.062016487121582,0.641276478767395,-0.3158525824546814
1772572951697635600,4.712635498046875,4.089931964874268,0.6634100675582886,0.09690931439399719
1772572951715470800,4.730470947265625,3.985246181488037,0.7004988193511963,0.5210371017456055
1772572951733305000,4.74830517578125,4.034897327423096,0.7208378314971924,0.6891329288482666
1772572951751139600,4.7661396484375,3.6233317852020264,0.3284149169921875,0.36610186100006104
1772572951768974800,4.783974853515625,3.3589248657226562,-0.05563312768936157,0.04127619042992592
1772572951786797000,4.801797119140625,3.208176851272583,0.6095715761184692,0.6717849373817444
1772572951804644400,4.819644287109375,3.2817561626434326,2.0057835578918457,1.6737794876098633
1772572951822479000,4.83747900390625,3.352942705154419,1.8191434144973755,0.16510476171970367
1772572951840310300,4.855310302734375,3.8524444103240967,1.3088740110397339,-1.5906288623809814
1772572951858148900,4.87314892578125,5.757131099700928,2.933002471923828,-1.3010972738265991
1772572951875984600,4.890984619140625,9.317651748657227,4.169493675231934,0.6675975322723389
1772572951893818400,4.908818359375,14.913267135620117,5.691328525543213,-0.4013960063457489
1772572951911653400,4.9266533203125,15.538392066955566,6.174678802490234,-2.1571295261383057
1772572951929488400,4.94448828125,14.562718391418457,6.574878215789795,-1.25144624710083
1772572951947323000,4.962322998046875,16.549360275268555,8.767900466918945,0.2883351147174835
1772572951965158000,4.980157958984375,19.637296676635742,9.355338096618652,-0.6299105882644653
1772572951982992400,4.997992431640625,20.184057235717773,8.321041107177734,-2.7637102603912354
1772572952000827100,5.0158271484375,21.218355178833008,8.012965202331543,-4.098905086517334
1772572952018662100,5.033662109375,20.739789962768555,7.526623725891113,-3.8626139163970947
1772572952036497000,5.051496826171875,20.93301010131836,6.448058605194092,-3.0622148513793945
1772572952054332000,5.069331787109375,21.95474624633789,5.997610092163086,-1.3196417093276978
1772572952072166700,5.087166748046875,19.054046630859375,5.242674350738525,-0.8309076428413391
1772572952090001400,5.10500146484375,13.609777450561523,5.300102233886719,0.45643091201782227
1772572952107836400,5.12283642578125,8.428717613220215,4.894518852233887,1.6253247261047363
1772572952125671000,5.1406708984375,3.8291144371032715,4.59421968460083,1.3519448041915894
1772572952143506000,5.158505859375,2.3706889152526855,3.6185460090637207,1.124626636505127
1772572952161340700,5.176340576171875,4.844269275665283,1.8305093050003052,0.8009973764419556
1772572952179176000,5.194176025390625,7.258627414703369,0.09990034252405167,-0.19381862878799438
1772572952197010400,5.212010498046875,8.317451477050781,-0.31345975399017334,-0.21714866161346436
1772572952214845400,5.229845458984375,7.6289167404174805,0.49651068449020386,0.4420739710330963
1772572952232680000,5.247679931640625,5.776872158050537,1.2203395366668701,0.6448656916618347
1772572952250514700,5.2655146484375,4.030111312866211,1.2041879892349243,0.2626122832298279
1772572952268349700,5.283349609375,2.6219353675842285,0.8817551732063293,-0.45583271980285645
1772572952286183200,5.30118310546875,2.5334010124206543,1.1156535148620605,-1.2137593030929565
1772572952304020700,5.319020751953125,3.7914273738861084,0.7034898400306702,-1.5122638940811157
1772572952321853700,5.336853759765625,4.715655326843262,0.10169496387243271,-0.9864411354064941
1772572952339689000,5.35468896484375,5.07517671585083,-0.16809579730033875,-0.46899324655532837
1772572952357523700,5.372523681640625,4.497310161590576,-0.28115665912628174,-0.07058826833963394
1772572952375358700,5.390358642578125,3.7118661403656006,-0.23270200192928314,0.2267199456691742
1772572952393193200,5.408193115234375,3.346362352371216,-0.1178465187549591,0.48035913705825806
1772572952411028000,5.426028076171875,2.981456995010376,-0.7154539823532104,-0.373878538608551
1772572952428863000,5.443863037109375,3.370290756225586,-1.3668999671936035,-1.4159528017044067
1772572952446697700,5.46169775390625,4.721039295196533,-1.3597214221954346,-1.103689432144165
1772572952464532500,5.479532470703125,3.88594388961792,-0.20877377688884735,-0.35413774847984314
1772572952482367200,5.4973671875,2.259422779083252,1.6199408769607544,-1.2203395366668701
1772572952500202200,5.5152021484375,1.8215361833572388,3.224926710128784,-2.1367905139923096
1772572952518032000,5.533031982421875,4.411766529083252,3.348755359649658,-1.4829518795013428
1772572952535871000,5.55087109375,9.55214786529541,3.170490026473999,-2.2408783435821533
1772572952553698300,5.5686982421875,10.518250465393066,2.971287488937378,-3.394218921661377
1772572952571541200,5.586541259765625,11.447263717651367,3.841676712036133,-3.1896326541900635
1772572952589376500,5.60437646484375,12.309876441955566,6.769893646240234,-3.0269205570220947
1772572952607211000,5.6222109375,10.436295509338379,8.836095809936523,-2.801995277404785
1772572952625046000,5.6400458984375,12.232707977294922,10.815558433532715,-1.4506487846374512
1772572952642880800,5.657880859375,19.03490447998047,10.99442195892334,-0.6502495408058167
1772572952660715300,5.67571533203125,24.145374298095703,9.657432556152344,-2.0297117233276367
1772572952678550300,5.69355029296875,27.38346290588379,7.664210796356201,-1.4991034269332886
1772572952696385500,5.711385498046875,28.220951080322266,8.175078392028809,1.441077470779419
1772572952714217700,5.7292177734375,26.903701782226562,7.416553974151611,1.454237937927246
1772572952732057000,5.74705712890625,24.6676082611084,5.702096462249756,-0.46719861030578613
1772572952749886500,5.764886474609375,19.61576271057129,4.71744966506958,-1.9848463535308838
1772572952767727400,5.782727294921875,12.742977142333984,5.904888153076172,-1.0360921621322632
1772572952785559300,5.800559326171875,5.679962635040283,7.168298244476318,0.1459621787071228
1772572952803393800,5.818393798828125,0.966102123260498,6.329614162445068,0.2638086974620819
1772572952821228500,5.836228515625,1.8604196310043335,5.332405090332031,0.631106972694397
1772572952839063600,5.8540634765625,5.0087761878967285,3.4396824836730957,0.4773681163787842
1772572952856898300,5.871898193359375,5.641677379608154,2.097907304763794,-0.11306086927652359
1772572952874733600,5.889733642578125,4.8227338790893555,0.8165507316589355,-0.5886343717575073
1772572952892568000,5.907568115234375,3.9314076900482178,0.2991028428077698,0.08255238085985184
1772572952910397400,5.9253974609375,3.8434712886810303,0.27696922421455383,0.8279166221618652
1772572952928237800,5.94323779296875,3.8566319942474365,0.8554341197013855,0.9858429431915283
1772572952946072600,5.961072509765625,3.809971809387207,1.0887342691421509,0.7040880918502808
1772572952963902000,5.97890185546875,3.015554666519165,0.4666004180908203,-0.33379876613616943
1772572952981734000,5.99673388671875,2.499901533126831,0.004187439568340778,-1.119242787361145
1772572952999576800,6.014576904296875,2.77866530418396,0.275174617767334,-1.1521440744400024
1772572953017412400,6.032412353515625,3.2889347076416016,0.6113662123680115,-0.5778666734695435
1772572953035246600,6.05024658203125,3.835096597671509,0.9020941257476807,0.010169495828449726
1772572953053081000,6.0680810546875,3.9810585975646973,1.1024930477142334,0.2189432680606842
1772572953070915800,6.085915771484375,2.8773691654205322,1.0163514614105225,0.06520441919565201
1772572953088750800,6.103750732421875,2.5842485427856445,0.8721838593482971,0.2225325107574463
1772572953106585600,6.121585693359375,2.8079774379730225,0.5647061467170715,0.03768695518374443
1772572953124420600,6.139420654296875,3.2171499729156494,0.6508477330207825,-0.3846462368965149
1772572953142240500,6.157240478515625,3.583850145339966,0.6329016089439392,-1.1198409795761108
1772572953160089000,6.175089111328125,3.896711587905884,0.7734799385070801,-1.5272190570831299
1772572953177924600,6.192924560546875,4.256233215332031,2.0315065383911133,-1.347757339477539
1772572953195763000,6.210762939453125,2.7936203479766846,4.300500392913818,-1.6600207090377808
1772572953213592800,6.2285927734375,4.463212490081787,5.691328525543213,-1.7371892929077148
1772572953231432200,6.24643212890625,7.507481098175049,4.944767951965332,-0.4612165689468384
1772572953249259800,6.264259765625,11.44965648651123,1.8065811395645142,-0.9128618240356445
1772572953267102000,6.28210205078125,16.174283981323242,1.3609179258346558,-0.26081767678260803
1772572953284933400,6.299933349609375,16.70549201965332,3.139981508255005,-0.486939400434494
1772572953302768400,6.317768310546875,14.202598571777344,3.556332588195801,-0.5599204897880554
1772572953320603000,6.335602783203125,14.532808303833008,3.52103853225708,0.550349235534668
1772572953338438000,6.35343798828125,18.095720291137695,3.762713670730591,2.5986053943634033
1772572953356272600,6.371272705078125,20.911476135253906,3.5545380115509033,4.038486480712891
1772572953374108000,6.38910791015625,19.869998931884766,1.7623138427734375,4.530211448669434
1772572953391942100,6.406942138671875,18.71486473083496,2.090130567550659,5.392824172973633
1772572953409777200,6.424777099609375,19.247865676879883,1.1413763761520386,4.800002098083496
1772572953427612200,6.442612060546875,17.534006118774414,0.776470959186554,3.0382864475250244
1772572953445446700,6.46044677734375,18.644275665283203,1.6109678745269775,0.8327022790908813
1772572953463281400,6.478281494140625,17.107484817504883,0.23270200192928314,0.06699903309345245
1772572953481102300,6.496102294921875,12.245867729187012,-1.730010747909546,1.1030912399291992
1772572953498943000,6.51394287109375,7.778468132019043,-2.5734808444976807,3.5952160358428955
1772572953516775700,6.531775634765625,7.218547821044922,-0.7471588850021362,4.225724697113037
1772572953534624000,6.5496240234375,8.707481384277344,-0.625723123550415,3.758526086807251
1772572953552455400,6.567455322265625,9.870991706848145,-1.3812568187713623,1.319043517112732
1772572953570285600,6.58528564453125,9.56650447845459,-1.1563315391540527,-0.2315055876970291
1772572953588125400,6.60312548828125,7.354938507080078,-1.649253010749817,-0.18903298676013947
1772572953605959000,6.620958984375,6.6490559577941895,-2.5537400245666504,-0.8638089895248413
1772572953623796200,6.638796142578125,5.787639617919922,-2.541775941848755,-1.8131613731384277
1772572953641629200,6.656629150390625,5.1768717765808105,-2.4406790733337402,-1.5056836605072021
1772572953659464200,6.674464111328125,4.308277130126953,-1.8664016723632812,-0.6903293132781982
1772572953677298400,6.69229833984375,4.0217366218566895,-1.1599208116531372,-0.22013968229293823
1772572953695135000,6.710135009765625,5.374279499053955,-0.698704183101654,-0.24167509377002716
1772572953712967200,6.72796728515625,6.343971252441406,-1.1042876243591309,-0.2727817893028259
1772572953730804700,6.7458046875,6.134000778198242,-1.2687941789627075,-0.33499518036842346
1772572953748638500,6.763638427734375,5.1565327644348145,-1.6761722564697266,0.11066804826259613
1772572953766473000,6.781472900390625,3.8673996925354004,-1.3908281326293945,0.3026920557022095
1772572953784307700,6.7993076171875,2.9144580364227295,-0.9529415965080261,0.6532405614852905
1772572953802142500,6.817142578125,4.353142738342285,-0.49292147159576416,0.747757077217102
1772572953819977500,6.8349775390625,6.0711894035339355,-0.2721835672855377,0.9924231767654419
1772572953837812000,6.85281201171875,6.869195461273193,0.4001995921134949,1.0923235416412354
1772572953855637500,6.870637451171875,7.649255752563477,1.4620146751403809,0.615553617477417
1772572953873482200,6.888482177734375,7.203592777252197,2.8636105060577393,1.49611234664917
1772572953891316500,6.90631640625,1.6941183805465698,5.641079425811768,0.3852444589138031
1772572953909151500,6.9241513671875,5.956333637237549,6.787241458892822,-1.7150555849075317
1772572953926986200,6.941986328125,12.313465118408203,4.9124650955200195,-1.083350419998169
1772572953944821000,6.959821044921875,12.337991714477539,4.043272018432617,-0.8841479420661926
1772572953962652000,6.97765185546875,12.19382381439209,5.463412284851074,0.11724831163883209
1772572953980476700,6.9954765625,11.179266929626465,7.232306480407715,0.5413761138916016
1772572953998314000,7.01331396484375,11.743375778198242,7.40279483795166,0.13220344483852386
1772572954016151000,7.031151123046875,14.934802055358887,6.123233318328857,-1.189831018447876
1772572954033995300,7.048995361328125,18.123836517333984,5.292923450469971,-1.6857435703277588
1772572954051829800,7.066829833984375,20.087745666503906,4.801198482513428,-0.7728816866874695
1772572954069665000,7.0846650390625,20.616559982299805,5.112864017486572,0.2590230405330658
1772572954087499000,7.1024990234375,21.103498458862305,5.365904808044434,0.8111668825149536
1772572954105334000,7.120333984375,20.86421775817871,4.90827751159668,0.41934216022491455
1772572954123168800,7.138168701171875,18.927825927734375,4.532604217529297,-0.5706881880760193
1772572954141003500,7.15600341796875,13.747962951660156,5.006981372833252,-0.9774680733680725
1772572954158838300,7.17383837890625,9.56889820098877,4.304089546203613,-0.6574280261993408
1772572954176673500,7.191673583984375,6.428318023681641,2.881556749343872,0.8961120843887329
1772572954194508300,7.20950830078125,5.493322372436523,3.219542980194092,2.090130567550659
1772572954212342500,7.227342529296875,5.900700569152832,3.0245277881622314,2.0709879398345947
1772572954230177800,7.245177734375,5.106283664703369,2.609971284866333,1.1856436729431152
1772572954248012500,7.263012451171875,3.747758388519287,1.280758261680603,0.5395814776420593
1772572954265846000,7.280845947265625,4.728217601776123,0.09690931439399719,0.5431707501411438
1772572954283670500,7.29867041015625,6.014957904815674,-0.45643091201782227,1.1820544004440308
1772572954301506800,7.3165068359375,7.06062126159668,-0.7226324677467346,1.5672988891601562
1772572954319351300,7.334351318359375,7.7802629470825195,-0.7070791125297546,1.5589239597320557
1772572954337186000,7.35218603515625,7.214360237121582,-0.3445664644241333,1.2604193687438965
1772572954355011300,7.37001123046875,5.461617469787598,0.42412781715393066,0.5659025311470032
1772572954372855800,7.387855712890625,4.266402721405029,0.6622136831283569,0.48813581466674805
1772572954390690600,7.405690673828125,3.4672000408172607,0.4019941985607147,0.36729827523231506
1772572954408525300,7.423525390625,3.841078519821167,-0.1950150430202484,0.10887342691421509
1772572954426360300,7.4413603515625,5.104488849639893,-0.6873382925987244,-0.09391828626394272
1772572954444195000,7.459195068359375,5.734399318695068,-0.4486542344093323,-0.13579268753528595
1772572954462029600,7.477029541015625,4.609174728393555,-0.1788634955883026,-0.10169496387243271
1772572954479864800,7.49486474609375,3.245863914489746,0.2309073805809021,0.14356936514377594
1772572954497699600,7.512699462890625,2.7565317153930664,1.1054840087890625,-0.17108681797981262
1772572954515531500,7.530531494140625,2.4029922485351562,2.2648067474365234,-1.6217355728149414
1772572954533372000,7.548371826171875,3.1417760848999023,2.702693223953247,-3.001796007156372
1772572954551203300,7.566203369140625,6.5288166999816895,3.386442184448242,-3.0376882553100586
1772572954569038600,7.58403857421875,8.920442581176758,4.794618606567383,-0.3690928816795349
1772572954586873300,7.601873291015625,7.868797302246094,5.901896953582764,0.9337990283966064
1772572954604708000,7.6197080078125,8.823533058166504,5.370092391967773,1.3525429964065552
1772572954622542800,7.63754296875,13.295121192932129,4.107280254364014,0.875174880027771
1772572954640373800,7.655373779296875,14.039288520812988,3.3792638778686523,0.3535395562648773
1772572954658212000,7.673212158203125,12.686745643615723,3.6735808849334717,0.582054078578949
1772572954676047400,7.69104736328125,12.421740531921387,5.073980331420898,1.0205388069152832
1772572954693882000,7.708882080078125,11.36949634552002,6.378666877746582,0.9385846853256226
1772572954711716600,7.726716552734375,11.272587776184082,7.1132636070251465,1.4141582250595093
1772572954729551600,7.744551513671875,12.212368965148926,7.262216567993164,1.1730812788009644
1772572954747386000,7.76238623046875,12.844672203063965,6.7070817947387695,-0.07118647545576096
1772572954765220900,7.780220947265625,12.88235855102539,5.959324836730957,-1.1766705513000488
1772572954783044000,7.798044189453125,12.569497108459473,5.424529075622559,-0.989432156085968
1772572954800890600,7.815890625,14.392827987670898,4.647459983825684,-0.16390834748744965
1772572954818720500,7.833720458984375,14.79542064666748,3.666402578353882,0.5341976284980774
1772572954836560600,7.851560546875,13.416556358337402,3.3236305713653564,0.7286145091056824
1772572954854395000,7.869394775390625,12.150155067443848,3.0143582820892334,0.46839502453804016
1772572954872230000,7.88722998046875,9.906285285949707,3.301496982574463,0.5246263742446899
1772572954890064600,7.905064697265625,8.811569213867188,3.1148569583892822,0.5563312768936157
1772572954907899400,7.9228994140625,9.839286804199219,3.056830883026123,0.6675975322723389
1772572954925734100,7.940734130859375,10.680363655090332,2.400599241256714,0.8542376756668091
1772572954943569000,7.95856884765625,10.253843307495117,1.5517455339431763,0.3164508044719696
1772572954961403600,7.976403564453125,9.591031074523926,1.1330015659332275,-0.15254244208335876
1772572954979238700,7.99423876953125,8.912666320800781,0.9391828775405884,-0.12143574655056
1772572954997073200,8.0120732421875,7.8693952560424805,0.8374879360198975,-0.20518454909324646
1772572955014903800,8.02990380859375,7.165307521820068,1.0785647630691528,-0.4366901218891144
1772572955032746800,8.047746826171876,6.951747894287109,1.4327025413513184,-0.7094719409942627
1772572955050574300,8.06557421875,6.454041004180908,1.7629120349884033,-0.7034898400306702
1772572955068415500,8.08341552734375,6.393621921539307,2.5704896450042725,-0.41874396800994873
1772572955086247000,8.101246826171876,6.709474563598633,3.2554352283477783,-0.01375873014330864
1772572955104081700,8.11908154296875,6.823731899261475,3.875176191329956,-0.0568295381963253
1772572955121916400,8.13691650390625,6.98405122756958,4.167698860168457,-0.7100701332092285
1772572955139751400,8.15475146484375,6.543173313140869,4.573282241821289,-1.1545369625091553
1772572955157586000,8.1725859375,6.220142364501953,4.528416633605957,-0.8386843204498291
1772572955175421200,8.190421142578124,6.694519519805908,4.325624942779541,-0.06699903309345245
1772572955193255700,8.208255615234375,6.946363925933838,4.43330192565918,-0.03529413416981697
1772572955211090400,8.22609033203125,8.046463966369629,4.4620161056518555,-0.16331014037132263
1772572955228925700,8.24392578125,8.583653450012207,3.7405800819396973,-0.22432711720466614
1772572955246760200,8.26176025390625,8.24985408782959,3.1411778926849365,-0.43549370765686035
1772572955264595200,8.27959521484375,8.273782730102539,3.170490026473999,-0.6245267391204834
1772572955282429400,8.297429443359375,9.075976371765137,3.4546377658843994,-0.18843477964401245
1772572955300264400,8.315264404296874,9.336793899536133,3.690330743789673,0.10049854964017868
1772572955318096100,8.33309619140625,10.136594772338867,3.840480327606201,-0.020937198773026466
1772572955335936000,8.35093603515625,10.445867538452148,3.2338998317718506,-0.23389841616153717
1772572955353770000,8.36877001953125,10.109675407409668,3.7663028240203857,-0.047258246690034866
1772572955371603500,8.386603515625,9.403793334960938,3.8811583518981934,-0.1543370634317398
1772572955389438200,8.404438232421874,8.751151084899902,4.145565032958984,-0.14416755735874176
