time,seconds_elapsed,z,y,x
1772572947111858200,0.126858154296875,0.09392052888870239,-0.1189660057425499,0.17333301901817322
1772572947129699800,0.144699951171875,0.13607023656368256,-0.12247848510742188,0.22327125072479248
1772572947147531500,0.162531494140625,0.17791450023651123,-0.044135015457868576,0.2837468981742859
1772572947165366000,0.180365966796875,0.18967366218566895,0.007635815534740686,0.33857205510139465
1772572947183201000,0.198200927734375,0.23518311977386475,0.16340644657611847,0.38927388191223145
1772572947201035300,0.21603515625,0.34895676374435425,0.21609358489513397,0.35216382145881653
1772572947218870500,0.23387060546875,0.45036038756370544,0.1696678251028061,0.24174992740154266
1772572947236705000,0.251705078125,0.5170974135398865,0.02977968007326126,0.07070764899253845
1772572947259124000,0.2741240234375,0.34697145223617554,0.06719517707824707,-0.38117989897727966
1772572947276823300,0.2918232421875,0.3903428912162781,0.012675453908741474,-0.5319108963012695
1772572947294668500,0.30966845703125,0.4254676401615143,-0.2393064647912979,-0.49266281723976135
1772572947312490500,0.327490478515625,0.39813143014907837,0.013591751456260681,-0.36010506749153137
1772572947330334200,0.345334228515625,0.20036379992961884,0.08765916526317596,-0.1560760736465454
1772572947348172300,0.36317236328125,0.016340645030140877,0.005345070734620094,0.08597928285598755
1772572947366004500,0.38100439453125,-0.04535674303770065,-0.1693623960018158,0.2968805134296417
1772572947383845400,0.398845458984375,0.003054326167330146,-0.28328874707221985,0.47021353244781494
1772572947401677000,0.416677001953125,0.03176499158143997,-0.04352414980530739,0.5525276064872742
1772572947419511800,0.43451171875,-0.001679879380390048,0.36850446462631226,0.44287729263305664
1772572947437346600,0.4523466796875,0.07849618047475815,0.6530149579048157,0.16859880089759827
1772572947455178500,0.470178466796875,0.21563543379306793,1.2585351467132568,-0.08811730891466141
1772572947473017900,0.488017822265625,0.4847215712070465,1.9068158864974976,-0.28008171916007996
1772572947490837200,0.505837158203125,0.8487972617149353,2.414292097091675,-0.3170390725135803
1772572947508683300,0.523683349609375,1.372156023979187,2.8263208866119385,-0.19822576642036438
1772572947526523400,0.5415234375,1.9489655494689941,2.6305384635925293,0.15332718193531036
1772572947544355800,0.55935595703125,2.0190622806549072,1.7910568714141846,0.6514877676963806
1772572947562189600,0.577189453125,0.9753990769386292,0.28848111629486084,1.0053315162658691
1772572947580024800,0.59502490234375,0.49495357275009155,-1.3729196786880493,0.8967501521110535
1772572947597859300,0.612859375,0.2967278063297272,-1.6584991216659546,0.8229882121086121
1772572947615694600,0.630694580078125,0.029168816283345222,-1.5624406337738037,0.8352054953575134
1772572947633528600,0.648528564453125,-0.1638645976781845,-1.5619823932647705,0.5844452977180481
1772572947651363600,0.666363525390625,-0.21792617440223694,-1.3649784326553345,0.40851613879203796
1772572947669198600,0.684198486328125,-0.19898934662342072,-1.3587169647216797,0.5155702829360962
1772572947687034000,0.7020341796875,-0.12003502249717712,-0.8439103364944458,0.38637226819992065
1772572947704868000,0.7198681640625,-0.05604688450694084,-0.4193589985370636,-0.0377209298312664
1772572947722690600,0.737690673828125,0.04566217586398125,-0.44776421785354614,-0.4915938079357147
1772572947740537600,0.75553759765625,0.29886582493782043,-1.067639708518982,-0.6517932415008545
1772572947758373400,0.773373291015625,0.7588473558425903,-1.6157386302947998,-0.4879286289215088
1772572947776207400,0.791207275390625,1.2275336980819702,-1.2385293245315552,-0.44913867115974426
1772572947794042400,0.80904248046875,1.7058411836624146,-0.4098905920982361,-0.5772676467895508
1772572947811876900,0.826876953125,1.9964603185653687,-0.042760565876960754,-0.8478809595108032
1772572947829712000,0.8447119140625,1.862222671508789,-0.24923302233219147,-1.0277807712554932
1772572947847546400,0.86254638671875,1.4335479736328125,-0.8170322775840759,-1.1021536588668823
1772572947865381400,0.88038134765625,0.912327229976654,-1.452942967414856,-1.050840973854065
1772572947883216000,0.8982158203125,0.4999932050704956,-1.8538233041763306,-0.7464773058891296
1772572947901051100,0.916051025390625,0.3039054572582245,-1.9575176239013672,-0.31642818450927734
1772572947918885000,0.933885009765625,0.21410827338695526,-1.7185167074203491,-0.015118914656341076
1772572947936720400,0.951720458984375,0.07177666574716568,-1.1189523935317993,-0.052228979766368866
1772572947954555600,0.9695556640625,-0.24373523890972137,-0.4017966091632843,-0.24572055041790009
1772572947972387800,0.987387939453125,-0.7354817390441895,0.3729332387447357,-0.3439171314239502
1772572947990226400,1.005226318359375,-1.187522053718567,0.9552405476570129,-0.36911532282829285
1772572948008059600,1.0230595703125,-1.3460415601730347,1.278693675994873,-0.24908030033111572
1772572948025893400,1.040893310546875,-1.096961259841919,1.6074918508529663,-0.05253441259264946
1772572948043730000,1.05872998046875,-0.8252789378166199,1.9055941104888916,0.10002918541431427
1772572948061563400,1.0765634765625,-0.7527387142181396,1.9423987865447998,0.031001411378383636
1772572948079389000,1.094388916015625,-0.792750358581543,1.6508632898330688,0.4277583956718445
1772572948097233200,1.112233154296875,-0.888961672782898,1.443474531173706,1.507768154144287
1772572948115068000,1.13006787109375,-1.0561859607696533,0.7797694802284241,2.1791090965270996
1772572948132903000,1.14790283203125,-1.1467467546463013,-0.5093088746070862,1.6760615110397339
1772572948150737400,1.1657373046875,-0.9634872078895569,-1.5189164876937866,0.8072584271430969
1772572948168573000,1.183572998046875,-0.8367326855659485,-0.8367326855659485,0.8484918475151062
1772572948186407700,1.20140771484375,-0.8972083330154419,1.3674218654632568,1.0758863687515259
1772572948204240400,1.219240478515625,-1.0848966836929321,2.5422685146331787,0.3845396637916565
1772572948222077000,1.237076904296875,-1.133460521697998,1.4335479736328125,-0.47219884395599365
1772572948239912700,1.25491259765625,-0.7538077235221863,-0.6565274000167847,-0.697149932384491
1772572948257747000,1.272746826171875,-0.5925393104553223,-1.8336647748947144,-0.8686503767967224
1772572948275581200,1.290581298828125,-0.6111706495285034,-1.811979055404663,-1.529606580734253
1772572948293416000,1.308416015625,-0.5707008838653564,-1.0648908615112305,-1.8545868396759033
1772572948311250400,1.32625048828125,-0.4389066696166992,-0.34116822481155396,-1.595274567604065
1772572948329085700,1.344085693359375,-0.2629774808883667,0.2736676335334778,-0.9529497623443604
1772572948346920000,1.361919921875,-0.016035212203860283,0.6061310172080994,-0.13148874044418335
1772572948364755000,1.3797548828125,0.3695734739303589,0.337044894695282,0.5532912015914917
1772572948382589700,1.397589599609375,0.9146180152893066,-0.8669704794883728,0.7055493593215942
1772572948400416300,1.415416259765625,1.138958215713501,-2.1510093212127686,0.08796459436416626
1772572948418259200,1.43325927734375,0.9028588533401489,-1.7820466756820679,-0.4856378734111786
1772572948436094000,1.451093994140625,0.48426342010498047,-0.9060658812522888,-0.632398247718811
1772572948453911600,1.46891162109375,0.18448130786418915,-0.6742424964904785,-0.4147774875164032
1772572948471763700,1.486763671875,-0.09040805697441101,-0.8772025108337402,-0.025656340643763542
1772572948489598500,1.504598388671875,-0.3723223805427551,-0.850782573223114,0.11698069423437119
1772572948507433200,1.52243310546875,-0.612850546836853,-0.4358523488044739,-0.2562579810619354
1772572948525268000,1.54026806640625,-0.7556403279304504,0.25671613216400146,-0.7637342810630798
1772572948543103500,1.558103515625,-0.7909177541732788,0.7586946487426758,-1.1157454252243042
1772572948560928500,1.575928466796875,-0.6905831694602966,0.8597928285598755,-1.1267409324645996
1772572948578763300,1.59376318359375,-0.5151121020317078,0.6950119137763977,-0.9263771176338196
1772572948596607200,1.611607177734375,-0.3032945990562439,0.3703370690345764,-0.7414376735687256
1772572948614431700,1.629431640625,-0.18035796284675598,0.16661348938941956,-0.4657847583293915
1772572948632276500,1.6472763671875,-0.11194105446338654,0.28649580478668213,-0.040622539818286896
1772572948650099500,1.665099365234375,0.017562376335263252,0.6537785530090332,0.31932979822158813
1772572948667946200,1.6829462890625,0.2171625941991806,0.622624397277832,0.5361869931221008
1772572948685781500,1.700781494140625,0.3220787048339844,0.13041973114013672,0.816421389579773
1772572948703615500,1.718615478515625,0.17348572611808777,-0.3289509415626526,1.4069753885269165
1772572948721450500,1.736450439453125,-0.2906191349029541,-0.39477166533470154,1.8442021608352661
1772572948739285500,1.754285400390625,-0.5972734689712524,-0.02015855349600315,1.6042848825454712
1772572948757120800,1.772120849609375,-0.5916230082511902,0.479834645986557,1.067945122718811
1772572948774954800,1.789954833984375,-0.471129834651947,0.7861835956573486,0.45814892649650574
1772572948792789800,1.807789794921875,-0.4554000496864319,1.266018271446228,0.15653422474861145
1772572948810621200,1.82562109375,-0.3982841372489929,1.552361249923706,0.3436116874217987
1772572948828462800,1.843462890625,-0.28695395588874817,1.4074335098266602,0.6913467645645142
1772572948846294500,1.86129443359375,-0.1408044397830963,1.2150110006332397,0.5038111209869385
1772572948864128500,1.87912841796875,-0.16554448008537292,0.9537133574485779,0.13301590085029602
1772572948881951000,1.896950927734375,-0.10033461451530457,-0.2509129047393799,0.44654250144958496
1772572948899798500,1.914798583984375,0.2324342280626297,-1.4798210859298706,0.88987797498703
1772572948917632800,1.9326328125,0.41920626163482666,-0.9008735418319702,0.44837507605552673
1772572948935467800,1.9504677734375,0.43875396251678467,0.3695734739303589,-0.003359758760780096
1772572948953302800,1.968302734375,0.4245513379573822,0.447000652551651,0.09544769674539566
1772572948971137800,1.9861376953125,0.16294831037521362,-0.44852781295776367,0.5766568183898926
1772572948988972000,2.003971923828125,-0.10659598559141159,-1.7313448190689087,0.8843801617622375
1772572949006807000,2.02180712890625,-0.27580565214157104,-2.0454821586608887,0.5705481171607971
1772572949024642300,2.039642333984375,-0.3888157308101654,-0.6479753255844116,-0.4764748811721802
1772572949042476800,2.057476806640625,-0.2243402600288391,1.2221885919570923,-1.5902349948883057
1772572949060307200,2.07530712890625,-0.39324450492858887,1.5706872940063477,-2.0117318630218506
1772572949078146000,2.09314599609375,-0.5946773290634155,0.9712757468223572,-1.6826282739639282
1772572949095981000,2.11098095703125,-0.6769914031028748,0.11667526513338089,-1.041067123413086
1772572949113816600,2.128816650390625,-0.6627888083457947,-0.4108068645000458,-0.5870414972305298
1772572949131650300,2.146650390625,-0.5676465034484863,-0.3400992155075073,-0.37751471996307373
1772572949149485600,2.164485595703125,-0.39416080713272095,0.044135015457868576,-0.19013181328773499
1772572949167320300,2.1823203125,-0.24174992740154266,0.4859432876110077,-0.009162978269159794
1772572949185155300,2.2001552734375,-0.16172657907009125,0.7041749358177185,0.0685696229338646
1772572949202989600,2.217989501953125,-0.18157969415187836,0.5432119369506836,0.17180584371089935
1772572949220824600,2.235824462890625,-0.2376265823841095,0.34758231043815613,0.3666718602180481
1772572949238659600,2.25365966796875,-0.27641651034355164,0.2741257846355438,0.7029531598091125
1772572949256494600,2.27149462890625,-0.09544769674539566,0.27382034063339233,1.0994046926498413
1772572949274330400,2.289330322265625,0.3452915847301483,0.2617557644844055,1.333060622215271
1772572949292162000,2.307162109375,0.7710646390914917,0.020922135561704636,1.4587461948394775
1772572949309995300,2.324995361328125,1.0506882667541504,-0.5505422949790955,1.4054481983184814
1772572949327837000,2.3428369140625,1.105207920074463,-1.262963891029358,1.263269305229187
1772572949345669400,2.36066943359375,0.8484918475151062,-1.7156150341033936,0.9043859839439392
1772572949363501800,2.378501708984375,0.3352122902870178,-1.8023579120635986,0.3003929853439331
1772572949381337300,2.39633740234375,-0.14156801998615265,-1.2932016849517822,-0.12507465481758118
1772572949399172600,2.414172607421875,-0.48548516631126404,-0.30024027824401855,-0.5971207618713379
1772572949417006800,2.4320068359375,-0.6520986557006836,1.1633929014205933,-1.1217013597488403
1772572949434842000,2.449842041015625,-0.5526803135871887,1.7191275358200073,-1.1455250978469849
1772572949452676900,2.4676767578125,-0.1774563491344452,1.1154398918151855,-0.9002626538276672
1772572949470512000,2.48551220703125,0.09926560521125793,0.8009970784187317,-0.7111998796463013
1772572949488331500,2.50333154296875,0.2535090744495392,0.6067419052124023,-0.32009339332580566
1772572949506170600,2.521170654296875,0.16890424489974976,0.3295617997646332,0.016798794269561768
1772572949524019200,2.539019287109375,-0.154396191239357,0.2194533348083496,0.08704829961061478
1772572949541851100,2.55685107421875,-0.49556443095207214,0.015882495790719986,0.15653422474861145
1772572949559685600,2.574685546875,-0.5426010489463806,0.09987647086381912,0.2223549485206604
1772572949577521000,2.59252099609375,-0.5836817622184753,0.36132678389549255,-0.09376781433820724
1772572949595355600,2.610355712890625,-0.7269296646118164,0.09957103431224823,-0.44104471802711487
1772572949613190400,2.6281904296875,-0.8229882121086121,-0.7102835774421692,-0.432645320892334
1772572949631024600,2.646024658203125,-0.7246388792991638,-1.2680035829544067,-0.2528982162475586
1772572949648860200,2.663860107421875,-0.5227479338645935,-0.9941831827163696,-0.4732678532600403
1772572949666686200,2.681686279296875,-0.3744603991508484,0.013591751456260681,-1.0268645286560059
1772572949684529400,2.699529296875,-0.35414913296699524,0.6429356932640076,-1.4072808027267456
1772572949702364200,2.7173642578125,-0.5552765130996704,0.3631593883037567,-1.3866641521453857
1772572949720189400,2.735189453125,-0.6180428862571716,-0.19196440279483795,-1.0621418952941895
1772572949738022700,2.753022705078125,-0.44486260414123535,-0.38667771220207214,-0.7110471725463867
1772572949755858700,2.770858642578125,-0.1319468915462494,0.038637228310108185,-0.5062545537948608
1772572949773705500,2.78870556640625,0.2444988191127777,0.6514877676963806,-0.44516804814338684
1772572949791537000,2.806536865234375,0.4489859640598297,0.7976372838020325,-0.3703370690345764
1772572949809373000,2.824373046875,0.4508185386657715,0.5192354321479797,-0.26710084080696106
1772572949827208200,2.842208251953125,0.4908302128314972,0.2217440903186798,-0.04948008432984352
1772572949845042400,2.86004248046875,0.556345522403717,0.09392052888870239,0.32421672344207764
1772572949862877200,2.877877197265625,0.5400048494338989,-0.1241583600640297,0.6546948552131653
1772572949880712200,2.895712158203125,0.47189339995384216,-0.21471913158893585,0.6189591884613037
1772572949898547200,2.913547119140625,0.5001459121704102,-0.37262779474258423,0.4219551682472229
1772572949916370400,2.931370361328125,0.39125919342041016,-0.916450560092926,0.17776179313659668
1772572949934218500,2.949218505859375,-0.10751228034496307,-1.4172073602676392,-0.49357911944389343
1772572949952051200,2.96705126953125,-0.4818199574947357,-0.712574303150177,-0.8520042896270752
1772572949969886700,2.98488671875,-0.35445454716682434,0.7591527700424194,-0.45295658707618713
1772572949987720700,3.002720703125,0.2814561724662781,0.6672175526618958,-0.2952006161212921
1772572950005555700,3.0205556640625,0.30314189195632935,-0.31322115659713745,-0.6188064813613892
1772572950023390500,3.038390380859375,-0.3170390725135803,-0.30054569244384766,-0.5035057067871094
1772572950041225700,3.056225830078125,-0.7588473558425903,0.01114829070866108,-0.1875356286764145
1772572950059060200,3.074060302734375,0.15531249344348907,0.13790282607078552,0.012828170321881771
1772572950076895500,3.0918955078125,0.7481572031974792,0.7759515643119812,-0.12568552792072296
1772572950094730200,3.109730224609375,0.5032002329826355,0.712574303150177,-0.4294382631778717
1772572950112564700,3.127564697265625,0.24434609711170197,-0.12767083942890167,-0.5677992701530457
1772572950130394000,3.14539404296875,0.328340083360672,-0.4680754840373993,-0.4680754840373993
1772572950148234500,3.163234375,0.4567744731903076,-0.26450464129447937,-0.48029279708862305
1772572950166069000,3.181069091796875,0.06475171446800232,-0.23350323736667633,-0.1915062516927719
1772572950183904300,3.198904296875,-0.2837468981742859,-0.5345070958137512,0.5109887719154358
1772572950201738200,3.21673828125,-0.4764748811721802,-0.5041165351867676,0.7432702779769897
1772572950219573500,3.234573486328125,-0.59803706407547,0.047189339995384216,0.36621370911598206
1772572950237408300,3.252408203125,-0.5294674634933472,1.1913399696350098,-0.35445454716682434
1772572950255243300,3.2702431640625,-0.25961771607398987,1.3179417848587036,-0.835358202457428
1772572950273077500,3.288077392578125,-0.10231992602348328,0.16508632898330688,-0.6290385127067566
1772572950290912800,3.305912841796875,-0.06841690838336945,-1.2418889999389648,-0.021380282938480377
1772572950308730000,3.323730224609375,0.0010690141934901476,-1.516931176185608,0.44577890634536743
1772572950326582800,3.341582763671875,0.18096883594989777,-1.0482447147369385,0.6627888083457947
1772572950344417500,3.35941748046875,0.2538145184516907,-0.566730260848999,0.7255551815032959
1772572950362245000,3.3772451171875,0.17012597620487213,-0.23609942197799683,0.6256787180900574
1772572950380075000,3.395074951171875,0.09300423413515091,0.05345070734620094,0.4651738703250885
1772572950397922300,3.41292236328125,0.15057829022407532,0.24663683772087097,0.4738787114620209
1772572950415748400,3.430748291015625,0.17730364203453064,0.4683809280395508,0.6600399017333984
1772572950433591800,3.448591796875,0.03329215571284294,0.902247965335846,1.024420976638794
1772572950451414300,3.466414306640625,-0.24205535650253296,1.070694088935852,1.3909401893615723
1772572950469261600,3.484261474609375,-0.3672827184200287,0.7819074988365173,1.6684256792068481
1772572950487096000,3.502095947265625,-0.16737708449363708,0.5287038683891296,2.0311269760131836
1772572950504931000,3.51993115234375,-0.08460483700037003,0.2977968156337738,2.4718661308288574
1772572950522765600,3.537765625,-0.44196099042892456,0.18249599635601044,2.8188376426696777
1772572950540600300,3.555600341796875,-1.091310739517212,-0.11499538272619247,2.931084156036377
1772572950558435000,3.57343505859375,-1.3393220901489258,-0.6154467463493347,2.772717237472534
1772572950576270000,3.59127001953125,-1.1099421977996826,-0.598647952079773,2.0761783123016357
1772572950594102500,3.6091025390625,-0.40882155299186707,-0.1508837193250656,0.8144360780715942
1772572950611939800,3.62693994140625,0.2880229651927948,0.32681289315223694,-0.6928738951683044
1772572950629777200,3.644777099609375,0.9239336848258972,0.1693623960018158,-1.8979582786560059
1772572950647605000,3.66260498046875,1.1643091440200806,-0.45463645458221436,-2.6053402423858643
1772572950665448400,3.680448486328125,0.875064492225647,-0.7944302558898926,-2.6332874298095703
1772572950683279000,3.698279052734375,0.7096726894378662,-0.20922134816646576,-2.176818370819092
1772572950701113300,3.71611328125,0.8349000811576843,0.6183483600616455,-0.99250328540802
1772572950718948400,3.7339482421875,0.7428121566772461,0.36651915311813354,0.25076019763946533
1772572950736783400,3.751783447265625,0.5688682794570923,-0.6499606370925903,0.9040805697441101
1772572950754615300,3.769615234375,0.45142942667007446,-1.3000739812850952,0.801913321018219
1772572950772441600,3.787441650390625,-0.16401731967926025,-0.6290385127067566,0.10445795953273773
1772572950790291200,3.805291259765625,-1.130406141281128,0.5584835410118103,-0.6178901791572571
1772572950808123000,3.823122802734375,-1.5338826179504395,1.311833143234253,-1.2194397449493408
1772572950825956600,3.84095654296875,-1.1166616678237915,0.16737708449363708,-1.2009611129760742
1772572950843793200,3.858793212890625,-0.5363397002220154,-1.8431332111358643,-0.3822489380836487
1772572950861627000,3.876626953125,-0.1774563491344452,-2.6555838584899902,0.4153883755207062
1772572950879462100,3.894462158203125,-0.2638937830924988,-1.6948456764221191,0.3127630054950714
1772572950897297400,3.91229736328125,-0.6339253783226013,-0.24465152621269226,-0.2840523421764374
1772572950915131400,3.93013134765625,-0.7663304209709167,0.4812090992927551,-0.5746715068817139
1772572950932966400,3.94796630859375,-0.535881519317627,0.30253100395202637,-0.29367345571517944
1772572950950801200,3.96580126953125,-0.3225368559360504,-0.4231768846511841,0.20799961686134338
1772572950968636700,3.98363671875,-0.28298333287239075,-0.9280570149421692,0.40683624148368835
1772572950986470700,4.001470703125,-0.3628539443016052,-0.6937901973724365,0.2353358417749405
1772572951004303400,4.019303466796875,-0.5971207618713379,-0.14767667651176453,-0.1160643994808197
1772572951022143000,4.03714306640625,-0.7334964275360107,0.44089198112487793,-0.4680754840373993
1772572951039976000,4.054975830078125,-0.49525898694992065,0.8669704794883728,-0.4836525619029999
1772572951057810000,4.072809814453125,-0.22296582162380219,0.7759515643119812,-0.10125091671943665
1772572951075644400,4.09064453125,-0.13255776464939117,0.3827070891857147,0.5624541640281677
1772572951093480700,4.108480712890625,-0.3043636083602905,0.14553864300251007,1.0497719049453735
1772572951111312400,4.1263125,-0.5287038683891296,0.3819434940814972,1.0577131509780884
1772572951129152000,4.144152099609375,-0.4622722864151001,0.9187413454055786,0.6015495657920837
1772572951146985500,4.1619853515625,-0.28725937008857727,1.246165156364441,0.2900082767009735
1772572951164818000,4.17981787109375,-0.21960605680942535,1.2460123300552368,0.2015855312347412
1772572951182654200,4.197654296875,-0.29046642780303955,0.513126790523529,0.3975205719470978
1772572951200488400,4.215488525390625,-0.2874121069908142,-0.5975789427757263,0.7295258045196533
1772572951218323200,4.2333232421875,-0.052228979766368866,-1.0876455307006836,0.8165740966796875
1772572951236158500,4.251158447265625,0.11575896292924881,-0.43249258399009705,0.6053674817085266
1772572951253993200,4.2689931640625,0.11835514008998871,0.32498031854629517,0.3597996234893799
1772572951271828200,4.286828125,0.33200526237487793,0.39416080713272095,0.21151208877563477
1772572951289662700,4.304662841796875,0.6444628238677979,0.275347501039505,-0.11804971098899841
1772572951307497700,4.322497802734375,0.775340735912323,0.3364340364933014,-0.6276640295982361
1772572951325332700,4.340332763671875,0.9633345007896423,-0.1111774742603302,-0.8048149347305298
1772572951343167500,4.35816748046875,1.1687378883361816,-0.8587238192558289,-0.6896668672561646
1772572951361002200,4.376002197265625,1.2637274265289307,-0.9527970552444458,-0.4960225820541382
1772572951378828300,4.393828369140625,1.1131491661071777,-0.7115052938461304,-0.3399465084075928
1772572951396671700,4.411671630859375,0.8833111524581909,-0.4309654235839844,-0.2073887437582016
1772572951414495200,4.4294951171875,0.6313292384147644,-0.24877487123012543,-0.10277807712554932
1772572951432341800,4.447341796875,0.34208452701568604,-0.2496911734342575,-0.21120665967464447
1772572951450176300,4.46517626953125,0.10247264802455902,-0.44135013222694397,-0.3790418803691864
1772572951468011300,4.48301123046875,0.1618792861700058,-0.5500841736793518,-0.5522221922874451
1772572951485836300,4.500836181640625,0.23273965716362,-0.18478673696517944,-0.9529497623443604
1772572951503669800,4.518669677734375,0.13759739696979523,0.7325801253318787,-1.6303993463516235
1772572951521503700,4.536503662109375,0.06276640295982361,1.3103059530258179,-1.9634735584259033
1772572951539351600,4.5543515625,0.09743300825357437,0.8301658630371094,-1.5913039445877075
1772572951557185300,4.572185302734375,0.05711590126156807,-0.2588541507720947,-0.7037167549133301
1772572951575020300,4.590020263671875,-0.021074850112199783,-0.6772968173027039,-0.0013744467869400978
1772572951592855000,4.60785498046875,-0.11575896292924881,-0.39797869324684143,0.18631389737129211
1772572951610688500,4.6256884765625,-0.14905111491680145,0.09025534242391586,-0.15195272862911224
1772572951628525600,4.643525634765625,-0.058184914290905,0.4034765064716339,-0.5587889552116394
1772572951646358000,4.66135791015625,0.05604688450694084,0.5160284042358398,-0.6769914031028748
1772572951664195600,4.679195556640625,0.1794416606426239,0.5568036437034607,-0.4314235746860504
1772572951682028800,4.69702880859375,0.24068090319633484,0.48227810859680176,0.044287730008363724
1772572951699861800,4.71486181640625,0.24373523890972137,0.13209961354732513,0.49953505396842957
1772572951717700000,4.7327001953125,0.17379115521907806,-0.21853704750537872,0.8575021028518677
1772572951735533300,4.750533203125,0.043218716979026794,-0.2971859276294708,1.1362093687057495
1772572951753368000,4.7683681640625,-0.0507018156349659,-0.18051068484783173,1.216843605041504
1772572951771203000,4.786203125,0.019547687843441963,0.04505131021142006,1.165683627128601
1772572951789037800,4.804037841796875,0.02168571576476097,0.2269364446401596,1.0487029552459717
1772572951806873000,4.821873046875,-0.29993483424186707,0.4634940028190613,0.8814785480499268
1772572951824707600,4.83970751953125,-0.6461427211761475,0.4248567819595337,0.7400632500648499
1772572951842542300,4.857542236328125,-0.5253441333770752,-0.047189339995384216,0.7394523620605469
1772572951860377000,4.875377197265625,-0.34177911281585693,-0.722959041595459,0.7212791442871094
1772572951878214400,4.89321435546875,-0.41370847821235657,-0.6627888083457947,0.30894508957862854
1772572951896047000,4.911047119140625,-0.5868887901306152,0.7386888265609741,-0.2574796974658966
1772572951913881600,4.928881591796875,-0.47601673007011414,1.6691893339157104,-0.32391130924224854
1772572951931716600,4.946716552734375,-0.18096883594989777,1.2760975360870361,-0.3318525552749634
1772572951949551000,4.964551025390625,-0.29138273000717163,0.7231117486953735,-0.5775730609893799
1772572951967386400,4.982386474609375,-0.6359107494354248,0.3497203588485718,-0.5761986374855042
1772572951985220900,5.000220947265625,-0.7015787363052368,-0.13866640627384186,-0.39904773235321045
1772572952003055600,5.0180556640625,-0.44226643443107605,-0.3856086730957031,-0.5916230082511902
1772572952020890400,5.035890380859375,-0.13484850525856018,0.09437867999076843,-1.3393220901489258
1772572952038725400,5.053725341796875,0.1999056488275528,0.24495697021484375,-1.9422460794448853
1772572952056558800,5.071558837890625,0.24648413062095642,-0.22831088304519653,-1.4094188213348389
1772572952074395600,5.089395751953125,0.24816401302814484,-0.5988006591796875,-0.38866302371025085
1772572952092231200,5.107231201171875,0.2298380434513092,-1.1612548828125,0.4784601926803589
1772572952110064600,5.125064697265625,0.014966198243200779,-1.5015068054199219,0.8796459436416626
1772572952127899600,5.142899658203125,-0.24663683772087097,-1.305266261100769,0.308792382478714
1772572952145734400,5.160734375,-0.4158465266227722,-0.6044511795043945,-1.2860240936279297
1772572952163569200,5.178569091796875,-0.5438227653503418,0.4628831446170807,-2.833651065826416
1772572952181403600,5.196403564453125,-0.49144110083580017,1.0755809545516968,-3.280651807785034
1772572952199238400,5.21423828125,-0.2687807083129883,1.0097602605819702,-2.5773932933807373
1772572952217073400,5.232073486328125,-0.1941024363040924,0.5251913666725159,-1.288467526435852
1772572952234908200,5.249908203125,-0.3043636083602905,-0.05161811411380768,-0.09178250283002853
1772572952252743200,5.2677431640625,-0.47479501366615295,-0.32559117674827576,0.5238169431686401
1772572952270578000,5.285577880859375,-0.5566509366035461,-0.27229318022727966,0.523511528968811
1772572952288407800,5.30340771484375,-0.5134322643280029,-0.14004085958003998,0.14996741712093353
1772572952306247700,5.32124755859375,-0.34987306594848633,0.06902777403593063,-0.12721268832683563
1772572952324082200,5.339082275390625,-0.17241671681404114,0.31031954288482666,-0.11530081182718277
1772572952341917400,5.35691748046875,-0.07254024595022202,0.46639561653137207,0.20173825323581696
1772572952359752000,5.374751953125,-0.0659734457731247,0.4810563921928406,0.697760820388794
1772572952377587000,5.3925869140625,-0.15271630883216858,0.2692388594150543,1.1337659358978271
1772572952395422000,5.410421875,-0.38576140999794006,0.12095131725072861,1.486693263053894
1772572952413256400,5.42825634765625,-0.6627888083457947,-0.07788532227277756,1.7244726419448853
1772572952431091200,5.44609130859375,-0.6270532011985779,-0.17959438264369965,1.863444447517395
1772572952448926000,5.463926025390625,-0.4202753007411957,0.23716843128204346,1.8796323537826538
1772572952466761000,5.481760986328125,-0.43905940651893616,0.6250678896903992,2.0021109580993652
1772572952484595700,5.499595703125,-0.669355571269989,0.2945897579193115,2.1126773357391357
1772572952502430700,5.5174306640625,-0.8248208165168762,-0.5355761051177979,2.040900707244873
1772572952520265200,5.53526513671875,-0.9416487812995911,-1.1910345554351807,1.5360206365585327
1772572952538096000,5.55309619140625,-0.8998045325279236,-0.47250425815582275,0.9873109459877014
1772572952555934700,5.570934814453125,-0.5340489149093628,0.8002334833145142,0.34116822481155396
1772572952573768200,5.588768310546875,0.09010262042284012,1.6213890314102173,-0.2551889419555664
1772572952591606500,5.6066064453125,0.44852781295776367,1.7330247163772583,-0.483957976102829
1772572952609439200,5.624439208984375,0.4245513379573822,0.32940909266471863,-0.22999076545238495
1772572952627274200,5.642274169921875,0.34636059403419495,-1.449125051498413,-0.33246341347694397
1772572952645109000,5.66010888671875,0.07925976812839508,-1.87611985206604,-0.8756753206253052
1772572952662943700,5.67794384765625,0.10491610318422318,-1.7540996074676514,-1.2399036884307861
1772572952680778500,5.695778564453125,0.36331209540367126,-1.6235270500183105,-1.3542882204055786
1772572952698613200,5.71361328125,0.3066543638706207,-1.4162911176681519,-1.2542591094970703
1772572952716438500,5.7314384765625,-0.2955060601234436,-2.154674530029297,-0.4564690589904785
1772572952734283000,5.749282958984375,-0.5671883821487427,-3.0527989864349365,1.1905763149261475
1772572952752105200,5.767105224609375,-0.09300423413515091,-2.8564059734344482,2.2873849868774414
1772572952769952500,5.784952392578125,0.5852088928222656,-1.7392860651016235,2.4211645126342773
1772572952787787800,5.802787841796875,0.8335255980491638,-0.6766859889030457,1.7307339906692505
1772572952805622300,5.820622314453125,0.811687171459198,-0.11010845750570297,0.41599923372268677
1772572952823457000,5.83845703125,0.7423539757728577,0.4524984359741211,-1.2060006856918335
1772572952841291800,5.856291748046875,0.5988006591796875,1.5703818798065186,-2.381305456161499
1772572952859126300,5.874126220703125,0.5664247870445251,2.5563182830810547,-2.891530752182007
1772572952876961300,5.891961181640625,0.7458664774894714,2.782796621322632,-2.942079782485962
1772572952894796500,5.909796630859375,0.9502009153366089,2.4100160598754883,-2.649475336074829
1772572952912631300,5.92763134765625,0.9506590366363525,1.9155206680297852,-2.1788036823272705
1772572952930465800,5.9454658203125,0.7286095023155212,1.6881260871887207,-1.8420641422271729
1772572952948300500,5.963300537109375,0.39095374941825867,1.6610952615737915,-1.592373013496399
1772572952966135600,5.981135498046875,0.2249511331319809,1.4613423347473145,-1.296408772468567
1772572952983970300,5.99897021484375,0.38011088967323303,0.9178250432014465,-0.9404270648956299
1772572953001804800,6.0168046875,0.5639813542366028,0.31093040108680725,-0.5215262174606323
1772572953019639600,6.0346396484375,0.612850546836853,-0.19303341209888458,-0.0328340083360672
1772572953037474600,6.052474609375,0.47739118337631226,-0.5303837656974792,0.5070181488990784
1772572953055309300,6.070309326171875,0.19349156320095062,-0.6516404747962952,1.0598511695861816
1772572953073144600,6.08814453125,-0.09224065393209457,-0.827111542224884,1.466840147972107
1772572953090979000,6.10597900390625,-0.4164573848247528,-0.8807149529457092,1.5673274993896484
1772572953108813800,6.123813720703125,-0.7350236177444458,-0.7559457421302795,1.4967725276947021
1772572953126648800,6.14164892578125,-1.0111347436904907,-0.6453791260719299,1.4986051321029663
1772572953144476000,6.159475830078125,-1.146135926246643,-0.5482515692710876,1.5720616579055786
1772572953162306600,6.177306640625,-1.0612256526947021,-0.4024074673652649,1.5995506048202515
1772572953180139000,6.195138916015625,-0.9228646755218506,-0.017562376335263252,1.536631464958191
1772572953197989000,6.212989013671875,-0.9976956844329834,-0.3410155177116394,1.0705413818359375
1772572953215815700,6.230815673828125,-1.1305588483810425,-1.0073168277740479,0.10415252298116684
1772572953233661700,6.24866162109375,-1.2179125547409058,-1.4208725690841675,-0.7996225953102112
1772572953251480300,6.266480224609375,-0.8665123581886292,-1.6833919286727905,-1.3642147779464722
1772572953269326800,6.284326904296875,-0.07941248267889023,-0.925308108329773,-1.1908818483352661
1772572953287161900,6.302161865234375,0.41661009192466736,0.49296826124191284,-0.9465357065200806
1772572953304996900,6.319996826171875,0.7525860071182251,0.6991352438926697,-1.238071084022522
1772572953322831400,6.337831298828125,0.9784533977508545,-0.5679519772529602,-1.5610661506652832
1772572953340666000,6.355666015625,0.8349000811576843,-1.9691240787506104,-1.401477575302124
1772572953358500900,6.3735009765625,0.5432119369506836,-2.105347156524658,-1.3139711618423462
1772572953376336100,6.391336181640625,0.5711590051651001,-1.5497651100158691,-1.545030951499939
1772572953394169300,6.40916943359375,0.6024658679962158,-1.398881435394287,-2.0694587230682373
1772572953412007200,6.427007080078125,0.47510045766830444,-0.8735373020172119,-2.384512424468994
1772572953429840400,6.44484033203125,0.4786129295825958,-0.14996741712093353,-2.4167356491088867
1772572953447672800,6.4626728515625,0.5203045010566711,0.31642818450927734,-2.244166135787964
1772572953465512000,6.480511962890625,0.6669121384620667,1.2867876291275024,-1.5117387771606445
1772572953483333000,6.4983330078125,0.9764680862426758,1.9407188892364502,-0.6798930168151855
1772572953501168000,6.516168212890625,0.9158397316932678,1.8642079830169678,-0.5593998432159424
1772572953519002600,6.534002685546875,0.3446807265281677,1.6187928915023804,-1.2837333679199219
1772572953536850200,6.55185009765625,-0.49754974246025085,1.4587461948394775,-2.1789562702178955
1772572953554684000,6.569683837890625,-0.9135489463806152,1.6653714179992676,-2.244471549987793
1772572953572519200,6.587519287109375,-0.8914051055908203,1.7692184448242188,-1.5251778364181519
1772572953590353400,6.605353515625,-1.0074695348739624,1.6088663339614868,-0.697149932384491
1772572953608183800,6.623183837890625,-1.059698462486267,1.3228286504745483,-0.06215553730726242
1772572953626023200,6.641023193359375,-0.6898195743560791,1.0456485748291016,0.34406983852386475
1772572953643857700,6.658857666015625,-0.1598939746618271,0.6130032539367676,0.5659666657447815
1772572953661693000,6.67669287109375,0.09285151958465576,0.17638733983039856,0.6850853562355042
1772572953679524000,6.694524169921875,0.026419922709465027,-0.4132503271102905,0.7730499505996704
1772572953697362200,6.712362060546875,-0.1814269721508026,-0.912021815776825,0.9576839804649353
1772572953715191600,6.730191650390625,-0.29596421122550964,-1.0170906782150269,1.3536773920059204
1772572953733032000,6.748031982421875,-0.3197879493236542,-0.9126327037811279,1.8978055715560913
1772572953750866400,6.765866455078125,-0.3729332387447357,-0.9411906003952026,2.392301082611084
1772572953768701400,6.783701416015625,-0.4161519408226013,-1.1664471626281738,2.7760770320892334
1772572953786536200,6.8015361328125,-0.5251913666725159,-1.5978707075119019,3.0360002517700195
1772572953804370700,6.81937060546875,-0.7101308703422546,-1.598328948020935,3.1115949153900146
1772572953822206000,6.8372060546875,-0.7458664774894714,-1.000749945640564,3.0744848251342773
1772572953840040400,6.85504052734375,-0.565203070640564,-0.01817324012517929,3.087312936782837
1772572953857875200,6.872875244140625,-0.2503020465373993,1.2226468324661255,3.1279354095458984
1772572953875709700,6.890709716796875,-0.23777928948402405,2.5161540508270264,3.028975248336792
1772572953893545500,6.90854541015625,-0.4801400899887085,1.2767083644866943,2.2270619869232178
1772572953911378200,6.926378173828125,-0.4893030524253845,-1.0726794004440308,0.7689266204833984
1772572953929216300,6.94421630859375,-0.2119702398777008,-0.45952337980270386,0.318566232919693
1772572953947047200,6.962047119140625,0.17501288652420044,0.11957687139511108,0.49525898694992065
1772572953964886000,6.979885986328125,0.3588833212852478,0.42760565876960754,0.7339546084403992
1772572953982712800,6.997712890625,0.2828305959701538,0.5064072608947754,0.4712825417518616
1772572954000541000,7.015541015625,-0.06841690838336945,-0.2938261926174164,-0.10064005106687546
1772572954018390000,7.03339013671875,-0.15363261103630066,-0.6039929986000061,-0.5256495475769043
1772572954036223000,7.051222900390625,0.2301434874534607,-0.14095716178417206,-1.0126618146896362
1772572954054057700,7.0690576171875,0.6539312601089478,0.39156460762023926,-1.2754865884780884
1772572954071893000,7.08689306640625,0.7254024744033813,0.1609629988670349,-1.0112874507904053
1772572954089727200,7.104727294921875,0.536797821521759,-0.19562959671020508,-0.489608496427536
1772572954107562200,7.122562255859375,0.3721696436405182,-0.29046642780303955,0.04566217586398125
1772572954125397500,7.1403974609375,0.48640143871307373,-0.18157969415187836,0.6148358583450317
1772572954143232300,7.158232177734375,0.6530149579048157,-0.47769662737846375,1.037249207496643
1772572954161066500,7.17606640625,0.7098253965377808,-0.8300131559371948,1.0538952350616455
1772572954178901500,7.193901611328125,0.802524209022522,-0.6316346526145935,0.2454151064157486
1772572954196736500,7.211736572265625,0.7759515643119812,-0.36010506749153137,-1.1020009517669678
1772572954214571300,7.2295712890625,0.5722280144691467,0.07941248267889023,-2.1818578243255615
1772572954232406000,7.247406005859375,0.3885102868080139,0.3523165285587311,-2.705522060394287
1772572954250240800,7.26524072265625,0.29107728600502014,-0.14584407210350037,-2.864041805267334
1772572954268071400,7.283071533203125,0.33276882767677307,-1.0661125183105469,-2.543031930923462
1772572954285910000,7.300909912109375,0.39187005162239075,-1.436449646949768,-1.9905043840408325
1772572954303743200,7.3187431640625,0.3549126982688904,-1.013272762298584,-1.5448782444000244
1772572954321582000,7.33658203125,0.17409659922122955,0.03756821155548096,-1.1838568449020386
1772572954339414500,7.35441455078125,-0.03695734590291977,1.0065531730651855,-0.7542658448219299
1772572954357249300,7.372249267578125,-0.06933320313692093,1.2267701625823975,-0.3110831379890442
1772572954375084500,7.39008447265625,-0.18341228365898132,1.1959214210510254,0.023365596309304237
1772572954392919300,7.407919189453125,-0.3497203588485718,0.8112290501594543,0.266642689704895
1772572954410753500,7.42575341796875,-0.4830417037010193,0.15683965384960175,0.5002986192703247
1772572954428588300,7.44358837890625,-0.4830417037010193,-0.21960605680942535,0.9308059215545654
1772572954446423600,7.461423583984375,-0.37491855025291443,-0.06505715101957321,1.5013540983200073
1772572954464258000,7.479258056640625,-0.2292271852493286,0.3425426781177521,2.0112738609313965
1772572954482092800,7.4970927734375,-0.11575896292924881,0.5467243790626526,2.358856201171875
1772572954499927600,7.514927490234375,-0.17302757501602173,0.665232241153717,2.4333817958831787
1772572954517750800,7.532750732421875,-0.24755313992500305,0.4207334518432617,2.057088613510132
1772572954535597000,7.55059716796875,-0.06429356336593628,-0.3497203588485718,1.4943290948867798
1772572954553431300,7.568431396484375,0.4132503271102905,-0.4787656366825104,1.2719742059707642
1772572954571266800,7.586266845703125,0.5488623976707458,0.5919284224510193,1.0248792171478271
1772572954589101600,7.6041015625,0.23686300218105316,0.9474520087242126,0.5012149214744568
1772572954606936300,7.621936279296875,-0.09483683109283447,-0.08552113175392151,-0.14935655891895294
1772572954624771000,7.63977099609375,-0.24984388053417206,-0.27351492643356323,-0.19547687470912933
1772572954642605800,7.657605712890625,-0.10064005106687546,0.38438695669174194,0.38957929611206055
1772572954660440300,7.6754404296875,0.32681289315223694,0.760832667350769,0.903775155544281
1772572954678275300,7.693275390625,0.555429220199585,0.9671524167060852,0.9294314980506897
1772572954696110300,7.7111103515625,0.6172793507575989,0.6794348955154419,0.7958046793937683
1772572954713945300,7.7289453125,0.3553708493709564,0.14905111491680145,0.44806966185569763
1772572954731780000,7.746780029296875,0.08155050873756409,0.09941831976175308,-0.242513507604599
1772572954749613600,7.764613525390625,0.016798794269561768,0.21395555138587952,-0.9474520087242126
1772572954767450000,7.7824501953125,0.20372356474399567,0.42730024456977844,-1.4523321390151978
1772572954785284000,7.8002841796875,0.4086688458919525,0.2539672255516052,-1.807397484779358
1772572954803118800,7.818118896484375,0.45555275678634644,0.06582073122262955,-1.7205020189285278
1772572954820953600,7.83595361328125,0.4179845452308655,0.2860376536846161,-1.155909776687622
1772572954838788400,7.853788330078125,0.22770002484321594,0.35246923565864563,-0.5674937963485718
1772572954856623000,7.871623046875,0.10567969083786011,0.1547016203403473,-0.1788308024406433
1772572954874458000,7.8894580078125,-0.07330382615327835,-0.29275718331336975,0.11010845750570297
1772572954892292900,7.90729296875,-0.337044894695282,-1.1154398918151855,0.2974913716316223
1772572954910127400,7.92512744140625,-0.5164865851402283,-1.614822268486023,0.5389358401298523
1772572954927962600,7.942962646484375,-0.6269004344940186,-1.361007809638977,0.6783658266067505
1772572954945797000,7.960797119140625,-0.5422956347465515,-0.7189884185791016,0.5832235813140869
1772572954963631400,7.97863134765625,-0.3049744665622711,-0.057879481464624405,0.3692680299282074
1772572954981465900,7.9964658203125,-0.032681290060281754,0.6261368989944458,0.17699819803237915
1772572954999302700,8.014302734375,0.17440202832221985,1.0051788091659546,0.07116580009460449
1772572955017119200,8.032119140625,0.31459560990333557,0.9633345007896423,0.09285151958465576
1772572955034971100,8.04997119140625,0.3929390609264374,0.8393288254737854,0.31673362851142883
1772572955052791800,8.067791748046876,0.44974952936172485,0.7263187766075134,0.5781839489936829
1772572955070642000,8.085641845703124,0.4709770977497101,0.5946773290634155,0.7564038634300232
1772572955088475400,8.103475341796875,0.3776674270629883,0.542142927646637,0.8686503767967224
1772572955106310100,8.12131005859375,0.19394971430301666,0.5125159621238708,0.8535314798355103
1772572955124144600,8.13914453125,0.10064005106687546,0.566730260848999,0.7585419416427612
1772572955141980200,8.156980224609375,0.14874568581581116,0.6808093190193176,0.6032294034957886
1772572955159814400,8.174814453125,0.247094988822937,0.5439754724502563,0.3049744665622711
1772572955177649400,8.1926494140625,0.2695443034172058,0.3761402666568756,-0.03756821155548096
1772572955195484200,8.210484130859374,0.18585574626922607,0.18066339194774628,-0.2519819140434265
1772572955213317600,8.228317626953125,0.07941248267889023,0.09315694868564606,-0.37079519033432007
1772572955231155200,8.2461552734375,0.06734789162874222,0.26603180170059204,-0.5287038683891296
1772572955248987000,8.26398681640625,0.2050980031490326,0.3254384696483612,-0.6827946305274963
1772572955266824400,8.281824462890626,0.3500257730484009,0.1742493063211441,-0.699288010597229
1772572955284657700,8.29965771484375,0.4424191415309906,0.08689557760953903,-0.5958990454673767
1772572955302492400,8.317492431640625,0.4352414906024933,0.018325956538319588,-0.5016731023788452
1772572955320315000,8.33531494140625,0.21044307947158813,-0.25366178154945374,0.03176499158143997
1772572955338157300,8.3531572265625,0.17821992933750153,-0.5213735103607178,0.5077817440032959
1772572955355995100,8.3709951171875,0.17531833052635193,-0.5868887901306152,0.651029646396637
1772572955373833500,8.38883349609375,0.1638645976781845,-0.39965859055519104,0.6210972666740417
1772572955391666700,8.406666748046876,0.1716531366109848,-0.3045163154602051,0.494189977645874
