time,seconds_elapsed,z,y,x
1772572997535297000,0.124297119140625,6.08614444732666,-0.05742774158716202,-0.9583254456520081
1772572997553132800,0.1421328125,4.372883319854736,-0.7746763229370117,-1.1838489770889282
1772572997570967000,0.159967041015625,7.202396392822266,-0.24167509377002716,-0.776470959186554
1772572997588817700,0.177817626953125,8.947361946105957,-0.41994038224220276,-0.37148571014404297
1772572997606649000,0.195649169921875,6.608377933502197,-0.9248259663581848,-0.29730820655822754
1772572997624484000,0.213484130859375,5.900700569152832,0.08135596662759781,0.24466611444950104
1772572997642315000,0.23131494140625,6.960123062133789,0.8392825126647949,0.09631111472845078
1772572997660153600,0.249153564453125,7.729415416717529,1.8658034801483154,-0.39541393518447876
1772572997677991700,0.26699169921875,7.100701332092285,4.59003210067749,-1.5272190570831299
1772572997695823000,0.284822998046875,8.84088134765625,9.92243766784668,-0.6717849373817444
1772572997713657000,0.302656982421875,16.535001754760742,9.554540634155273,3.448655605316162
1772572997731489000,0.320489013671875,18.281164169311523,5.233103275299072,3.3343982696533203
1772572997749330000,0.338329833984375,19.9423828125,4.626522541046143,4.100101470947266
1772572997767161900,0.356161865234375,22.331016540527344,4.657031059265137,3.383451223373413
1772572997784996000,0.37399609375,20.83550262451172,5.422734260559082,1.1545369625091553
1772572997802831000,0.3918310546875,17.42154312133789,7.014559745788574,-0.24227328598499298
1772572997820665900,0.409665771484375,15.62991714477539,8.83669376373291,-0.3032902777194977
1772572997838500900,0.4275009765625,15.142379760742188,8.643473625183105,0.01734796352684498
1772572997856335600,0.445335693359375,15.646069526672363,7.052844524383545,0.22612173855304718
1772572997874170400,0.46317041015625,15.295520782470703,6.786045074462891,0.38703906536102295
1772572997892004900,0.4810048828125,13.14377498626709,6.86381196975708,0.21714866161346436
1772572997909840100,0.498840087890625,8.682954788208008,6.952944278717041,-0.44805604219436646
1772572997927674400,0.51667431640625,5.309075355529785,5.565107345581055,-1.5930216312408447
1772572997945509000,0.534509033203125,4.411766529083252,4.087539196014404,-1.8610178232192993
1772572997963331600,0.55233154296875,5.282155990600586,3.418147087097168,-1.1395817995071411
1772572997981179000,0.570178955078125,4.450650215148926,2.4837498664855957,-0.5413761138916016
1772572997999013600,0.588013671875,2.740978240966797,1.7545372247695923,-0.8392825126647949
1772572998016848600,0.6058486328125,0.9942178130149841,0.6263213157653809,-1.8592232465744019
1772572998034683400,0.623683349609375,1.953141450881958,0.2679961323738098,-2.5639095306396484
1772572998052518100,0.64151806640625,2.2576282024383545,0.4336991012096405,-2.15653133392334
1772572998070348800,0.659348876953125,2.551945447921753,0.47976094484329224,-1.6683956384658813
1772572998088187400,0.6771875,3.308077335357666,0.15912270545959473,-1.3962119817733765
1772572998106022400,0.6950224609375,3.7046875953674316,-0.12083754688501358,-1.3453645706176758
1772572998123857200,0.712857177734375,3.6640095710754395,-0.16271193325519562,-1.3298112154006958
1772572998141691100,0.730691162109375,3.7842490673065186,-0.13938191533088684,-0.8410771489143372
1772572998159523600,0.748523681640625,3.7525441646575928,-0.1178465187549591,-0.33858439326286316
1772572998177364500,0.766364501953125,3.6125640869140625,-0.12681959569454193,-0.15314064919948578
1772572998195194000,0.784194091796875,4.453042984008789,-0.7543373107910156,-0.17347964644432068
1772572998213032700,0.80203271484375,5.047060966491699,-0.7040880918502808,-0.3846462368965149
1772572998230865400,0.819865478515625,5.103292465209961,-0.6382854580879211,-0.267397940158844
1772572998248700400,0.837700439453125,4.447061061859131,-0.9260223507881165,-0.11545369029045105
1772572998266535200,0.85553515625,3.541975736618042,-0.35473597049713135,0.10348957777023315
1772572998284369700,0.87336962890625,3.270390272140503,0.18783657252788544,0.15672987699508667
1772572998302204200,0.8912041015625,2.789433002471924,1.2717852592468262,0.020937198773026466
1772572998320039400,0.909039306640625,2.915654420852661,3.2105698585510254,-0.3966103494167328
1772572998337862400,0.9268623046875,2.475374937057495,4.55055046081543,-0.4085744619369507
1772572998355709000,0.944708984375,3.6083765029907227,4.945366382598877,1.389033555984497
1772572998373544000,0.9625439453125,10.14616584777832,4.00618314743042,1.9022940397262573
1772572998391378400,0.98037841796875,16.01276969909668,2.252244234085083,0.251844584941864
1772572998409213700,0.998213623046875,17.554943084716797,2.08713960647583,-0.20338992774486542
1772572998427048200,1.016048095703125,16.866409301757812,3.173480987548828,0.849452018737793
1772572998444883000,1.033883056640625,19.80838394165039,3.7980077266693115,2.7379872798919678
1772572998462717400,1.051717529296875,26.285755157470703,4.42193603515625,3.3966116905212402
1772572998480552700,1.069552734375,26.933013916015625,3.424727439880371,0.9858429431915283
1772572998498387200,1.08738720703125,22.859233856201172,3.3918261528015137,-1.2346965074539185
1772572998516222000,1.105221923828125,22.041484832763672,4.2723846435546875,-0.6263213157653809
1772572998534057000,1.123056884765625,23.928226470947266,3.717249870300293,0.2560320198535919
1772572998551891500,1.140891357421875,23.467607498168945,3.2997024059295654,0.05922235921025276
1772572998569726200,1.158726318359375,20.605792999267578,3.3230323791503906,-0.21236300468444824
1772572998587560700,1.176560791015625,16.63131332397461,3.704089403152466,-0.16510476171970367
1772572998605395700,1.194395751953125,11.889935493469238,3.971487283706665,0.03469592705368996
1772572998623224800,1.212224853515625,8.487939834594727,3.689134359359741,-0.24526432156562805
1772572998641064700,1.230064697265625,7.003791809082031,2.757728099822998,-0.5102694034576416
1772572998658899700,1.247899658203125,5.729613780975342,1.3208380937576294,-0.9397810697555542
1772572998676735200,1.2657353515625,4.264608383178711,0.7016952633857727,-0.494716078042984
1772572998694570200,1.2835703125,3.3469607830047607,0.6400800347328186,0.08733802288770676
1772572998712404000,1.301404052734375,2.5800609588623047,1.1832507848739624,0.45942193269729614
1772572998730239500,1.319239501953125,1.719243049621582,1.591825246810913,0.43609192967414856
1772572998748073700,1.33707373046875,1.2783654928207397,1.6450655460357666,0.3158525824546814
1772572998765895700,1.354895751953125,1.048654556274414,1.5798611640930176,0.4007977843284607
1772572998783744000,1.372743896484375,0.9176474809646606,1.1772687435150146,-0.037088751792907715
1772572998801564700,1.390564697265625,0.9014959335327148,1.1126625537872314,0.06759724020957947
1772572998819414300,1.408414306640625,2.1134605407714844,0.5641079545021057,-0.41994038224220276
1772572998837247500,1.42624755859375,2.964707374572754,0.9846464991569519,-0.4301098585128784
1772572998855082800,1.444082763671875,3.8428730964660645,1.3465609550476074,-0.2841476798057556
1772572998872917800,1.461917724609375,5.854040622711182,1.301695466041565,-0.49710890650749207
1772572998890752000,1.479751953125,7.270591735839844,1.5882359743118286,-0.4133601188659668
1772572998908586800,1.497586669921875,7.840681552886963,1.4111671447753906,-0.08793623000383377
1772572998926421800,1.515421875,7.630113124847412,1.2400803565979004,-0.6400800347328186
1772572998944256500,1.533256591796875,5.944967746734619,1.568495273590088,-0.11964113265275955
1772572998962091300,1.55109130859375,3.7746777534484863,1.7024933099746704,0.5138586759567261
1772572998979926000,1.568926025390625,3.992424488067627,1.158724308013916,0.04366901144385338
1772572998997761000,1.586760986328125,7.118049144744873,0.2105683982372284,-0.019142581149935722
1772572999015596000,1.604595947265625,11.863615036010742,-0.5491527915000916,-0.17288143932819366
1772572999033430500,1.622430419921875,14.68235969543457,-1.693520188331604,-0.5473581552505493
1772572999051265000,1.64026513671875,13.689338684082031,-1.953141450881958,-0.6717849373817444
1772572999069100000,1.65810009765625,11.586047172546387,-0.8069794178009033,-0.6622136831283569
1772572999086934800,1.675934814453125,12.67179012298584,0.5772684812545776,-0.5437689423561096
1772572999104769500,1.69376953125,16.349559783935547,0.372682124376297,-1.1575279235839844
1772572999122604800,1.711604736328125,17.916259765625,1.280758261680603,-3.0167510509490967
1772572999140439000,1.72943896484375,18.5653133392334,3.4965121746063232,-2.982055187225342
1772572999158273500,1.7472734375,19.20180320739746,5.385645389556885,-0.24945175647735596
1772572999176108800,1.76510888671875,20.505292892456055,6.557530403137207,2.383251428604126
1772572999193943800,1.78294384765625,22.20060920715332,5.579464435577393,2.626721143722534
1772572999211778800,1.80077880859375,23.120649337768555,4.43330192565918,1.332802176475525
1772572999229613000,1.818613037109375,21.993030548095703,4.807180881500244,-0.16390834748744965
1772572999247447800,1.83644775390625,17.764314651489258,7.331010341644287,0.018544375896453857
1772572999265282300,1.8542822265625,15.701702117919922,8.14098072052002,0.7495517134666443
1772572999283117300,1.872117431640625,13.351351737976074,7.101897716522217,0.9194421172142029
1772572999300952000,1.8899521484375,9.514460563659668,5.998208045959473,1.00259268283844
1772572999318786800,1.907786865234375,5.994020938873291,5.076373100280762,0.6939185857772827
1772572999336621800,1.925621826171875,5.129613399505615,4.835894584655762,1.3668999671936035
1772572999354456800,1.943456787109375,4.456632137298584,5.218746185302734,1.140179991722107
1772572999372291800,1.961291748046875,3.3990044593811035,4.2831525802612305,-0.09451649338006973
1772572999390126000,1.9791259765625,3.4031920433044434,3.2470602989196777,-0.7357929348945618
1772572999407961000,1.996961181640625,4.088137626647949,2.8486554622650146,-0.4091726839542389
1772572999425795800,2.0147958984375,4.441677093505859,2.337787628173828,0.07417750358581543
1772572999443630300,2.03263037109375,3.5994033813476562,1.765903115272522,0.23808585107326508
1772572999461465900,2.0504658203125,2.0721843242645264,1.191625714302063,0.129810631275177
1772572999479288800,2.068288818359375,0.9218349456787109,0.7256234884262085,-0.23270200192928314
1772572999497122800,2.086122802734375,0.32303106784820557,-0.1501496136188507,-0.8398807644844055
1772572999514958800,2.103958740234375,-0.08973085135221481,-0.9116654396057129,-1.2293126583099365
1772572999532806100,2.12180615234375,0.5024927258491516,-1.1700903177261353,-1.1030912399291992
1772572999550639400,2.139639404296875,1.6701902151107788,-1.6366907358169556,-1.052243709564209
1772572999568474000,2.15747412109375,2.490330219268799,-1.51166570186615,-0.49232324957847595
1772572999586308900,2.175308837890625,2.3330020904541016,-1.591825246810913,-0.4749752879142761
1772572999604143900,2.193143798828125,1.9710876941680908,-1.1802598237991333,-1.098903775215149
1772572999621978600,2.210978515625,2.479562520980835,-0.8003991842269897,-1.5571293830871582
1772572999639813000,2.228813232421875,3.7836508750915527,-0.11545369029045105,-1.9196419715881348
1772572999657648400,2.2466484375,3.946960926055908,1.1653046607971191,-1.4793626070022583
1772572999675483100,2.264483154296875,4.183252334594727,2.9862427711486816,-1.6103696823120117
1772572999693318100,2.282318115234375,4.867001056671143,4.1593241691589355,-1.4691931009292603
1772572999711153000,2.30015283203125,6.803991317749023,4.764708042144775,-1.394417405128479
1772572999728987600,2.317987548828125,9.56889820098877,4.727021217346191,-1.8406788110733032
1772572999746822000,2.33582177734375,12.369696617126465,5.697908878326416,-2.324028968811035
1772572999764644600,2.35364453125,14.483755111694336,6.7417778968811035,-1.4368900060653687
1772572999782491600,2.37149169921875,14.47298812866211,6.988836765289307,-0.8817551732063293
1772572999800314600,2.389314697265625,17.943178176879883,4.250251293182373,-1.2167502641677856
1772572999818148000,2.407148193359375,25.00798797607422,2.8043880462646484,0.21296121180057526
1772572999835982600,2.424982666015625,28.28316307067871,2.7499513626098633,1.5774682760238647
1772572999853831200,2.4428310546875,28.589445114135742,1.3860424757003784,-0.5946164131164551
1772572999871666000,2.460666015625,26.70330238342285,1.2281162738800049,-2.6195425987243652
1772572999889500400,2.47850048828125,21.373289108276367,3.276970624923706,-1.948355793952942
1772572999907335400,2.49633544921875,17.509479522705078,4.8197431564331055,-0.7782655358314514
1772572999925162500,2.51416259765625,15.772889137268066,5.471189022064209,-0.5407779216766357
1772572999943005000,2.5320048828125,13.573286056518555,5.304289817810059,-1.1365907192230225
1772572999960838000,2.549837890625,10.915458679199219,5.277968406677246,-0.7920243144035339
1772572999978676000,2.567676025390625,8.041080474853516,5.343770980834961,0.711864709854126
1772572999996508200,2.585508056640625,5.414957523345947,5.4041900634765625,1.7282161712646484
1772573000014346200,2.60334619140625,3.1549365520477295,4.762913703918457,1.6211373805999756
1772573000032177700,2.621177734375,2.599801778793335,3.3230323791503906,0.7292127013206482
1772573000050015000,2.639014892578125,2.8241288661956787,2.0404794216156006,-0.2584248483181
1772573000067848700,2.6568486328125,3.136990547180176,1.1186445951461792,-0.9260223507881165
1772573000085683500,2.674683349609375,3.342175006866455,0.7250252366065979,-1.0785647630691528
1772573000103518200,2.692518310546875,3.4779677391052246,0.9152546525001526,-0.6496513485908508
1772573000121353000,2.71035302734375,2.964108943939209,0.8979067206382751,-0.24646073579788208
1772573000139187700,2.728187744140625,1.97407865524292,0.8739784955978394,0.25363919138908386
1772573000157023000,2.74602294921875,1.526620864868164,0.7076773047447205,0.5521438121795654
1772573000174857700,2.763857666015625,2.2259232997894287,0.4701896607875824,0.5401797294616699
1772573000192692700,2.781692626953125,3.3894333839416504,0.3577269911766052,0.6675975322723389
1772573000210527000,2.79952685546875,4.358526229858398,0.27696922421455383,0.6783652305603027
1772573000228362000,2.817362060546875,4.861019134521484,0.24227328598499298,0.7447660565376282
1772573000246197000,2.835197021484375,4.412364959716797,0.31046873331069946,0.6454638838768005
1772573000264031700,2.85303173828125,3.879363775253296,0.8297112584114075,0.9750752449035645
1772573000281866800,2.87086669921875,4.398606300354004,1.1497513055801392,1.2915260791778564
1772573000299701800,2.88870166015625,4.893920421600342,1.155733346939087,0.9236295223236084
1772573000317539000,2.9065390625,5.029115200042725,1.4219348430633545,-0.18364913761615753
1772573000335368400,2.924368408203125,4.29451847076416,1.6815561056137085,-1.6271194219589233
1772573000353208600,2.94220849609375,1.6959130764007568,1.2699905633926392,-3.1722846031188965
1772573000371040300,2.960040283203125,-1.1222338676452637,1.812563180923462,-2.958127021789551
1772573000388875500,2.97787548828125,-2.386242389678955,2.2719850540161133,-2.92283296585083
1772573000406710300,2.995710205078125,2.3682961463928223,6.231508255004883,0.07657032459974289
1772573000424544800,3.013544677734375,9.157930374145508,6.856035232543945,6.512066841125488
1772573000442379800,3.0313798828125,15.958332061767578,4.697110652923584,3.971487283706665
1772573000460212000,3.0492119140625,23.685354232788086,0.047258246690034866,1.6456637382507324
1772573000478052600,3.067052490234375,33.86442184448242,-4.479363918304443,2.313859462738037
1772573000495883300,3.08488330078125,38.909690856933594,-7.599604606628418,0.36311084032058716
1772573000513720300,3.10272021484375,38.12783432006836,-7.04925537109375,0.08434699475765228
1772573000531553800,3.1205537109375,32.09193801879883,-4.215555191040039,0.9750752449035645
1772573000549388800,3.138388916015625,24.79741859436035,-2.207977056503296,0.16689938306808472
1772573000567221800,3.1562216796875,18.725631713867188,-0.12622138857841492,-0.19142581522464752
1772573000585058000,3.17405810546875,14.041681289672852,0.8303094506263733,-1.7001005411148071
1772573000602878500,3.19187841796875,11.650054931640625,1.363310694694519,-3.812962770462036
1772573000620732400,3.209732421875,10.293923377990723,1.6199408769607544,-4.187439441680908
1772573000638555000,3.227554931640625,7.694719314575195,2.5405795574188232,-2.523829698562622
1772573000656397800,3.245397705078125,5.747560024261475,4.567898273468018,0.11306086927652359
1772573000674232800,3.26323291015625,4.594817638397217,5.339583873748779,2.1511476039886475
1772573000692067300,3.2810673828125,3.655036687850952,4.8568315505981445,3.0658040046691895
1772573000709902000,3.298902099609375,3.7597224712371826,3.8877387046813965,3.173480987548828
1772573000727737000,3.316737060546875,4.3208394050598145,3.534797191619873,3.5676984786987305
1772573000745571600,3.334571533203125,4.882554531097412,3.033500909805298,3.4301111698150635
1772573000763405600,3.352405517578125,4.945366382598877,2.3084757328033447,2.297109842300415
1772573000781239600,3.370239501953125,4.713262557983398,1.638485312461853,1.1485549211502075
1772573000799076400,3.388076416015625,3.896113395690918,1.0654042959213257,0.16749759018421173
1772573000816914400,3.40591455078125,3.4235310554504395,0.9134600162506104,0.09870393574237823
1772573000834746600,3.42374658203125,3.6185460090637207,0.9487541913986206,0.4289134442806244
1772573000852580400,3.441580322265625,4.046263217926025,0.6921239495277405,0.6047859191894531
1772573000870411000,3.459410888671875,3.8769710063934326,0.582054078578949,0.19561325013637543
1772573000888250600,3.477250732421875,4.1036906242370605,0.6269195079803467,-0.24406790733337402
1772573000906085400,3.49508544921875,4.376472473144531,0.8165507316589355,0.22612173855304718
1772573000923919600,3.512919677734375,4.528416633605957,1.0211371183395386,0.6652047038078308
1772573000941754600,3.530754638671875,4.634299278259277,1.2305090427398682,1.4021940231323242
1772573000959590000,3.54858984375,4.802394866943359,0.8398807644844055,1.2675977945327759
1772573000977425200,3.566425048828125,5.579464435577393,-0.397208571434021,-0.07477571070194244
1772573000995259400,3.58425927734375,6.2638115882873535,0.09092725813388824,-1.088136076927185
1772573001013094100,3.60209423828125,5.788238048553467,0.8745766878128052,-0.9882357716560364
1772573001030929200,3.61992919921875,4.840680122375488,2.1122641563415527,-0.4085744619369507
1772573001048764200,3.63776416015625,7.203592777252197,2.6673989295959473,-0.18125630915164948
1772573001066586000,3.655586181640625,13.48594856262207,1.8161523342132568,-0.7435696125030518
1772573001084434000,3.673433837890625,14.82951831817627,1.695314884185791,-0.9678967595100403
1772573001102268400,3.691268310546875,12.504292488098145,2.4161527156829834,-0.15314064919948578
1772573001120103700,3.709103759765625,12.885350227355957,3.562314748764038,0.7202396392822266
1772573001137938000,3.72693798828125,17.31266975402832,3.720839262008667,0.9290133714675903
1772573001155773200,3.744773193359375,21.409181594848633,2.283350944519043,0.05383851006627083
1772573001173608000,3.76260791015625,22.219152450561523,2.056631088256836,0.031106693670153618
1772573001191442700,3.780442626953125,22.311874389648438,2.8420751094818115,1.2628121376037598
1772573001209277000,3.79827685546875,24.67717933654785,1.7904295921325684,1.0528420209884644
1772573001227112200,3.8161123046875,25.12583351135254,1.3142578601837158,-0.1459621787071228
1772573001244947000,3.833947021484375,23.373689651489258,2.1882362365722656,0.7106683254241943
1772573001262779000,3.85177880859375,20.837297439575195,3.4995031356811523,0.9044869542121887
1772573001280619500,3.86961962890625,16.847265243530273,4.593023300170898,-1.6139588356018066
1772573001298449700,3.88744970703125,7.627122402191162,6.321837425231934,-1.2813565731048584
1772573001316288300,3.905288330078125,4.24785852432251,5.753541946411133,0.11425728350877762
1772573001334121700,3.923121826171875,5.2253265380859375,3.8638103008270264,1.231107234954834
1772573001351956000,3.9409560546875,5.124229907989502,2.3258235454559326,0.21714866161346436
1772573001369791000,3.958791015625,2.7876384258270264,1.7467604875564575,1.2167502641677856
1772573001387625500,3.97662548828125,2.593221426010132,2.2648067474365234,2.6285157203674316
1772573001405460700,3.994460693359375,2.2271196842193604,2.927020311355591,3.565305709838867
1772573001423295000,4.012294921875,1.062413215637207,2.4993033409118652,3.280559778213501
1772573001441130000,4.0301298828125,0.8428717851638794,1.9094724655151367,2.365903377532959
1772573001458965200,4.04796533203125,1.8550357818603516,1.0103694200515747,1.334596872329712
1772573001476798000,4.0657978515625,2.6775684356689453,0.38703906536102295,0.2069791555404663
1772573001494629000,4.083629150390625,2.0715861320495605,0.4749752879142761,-0.875174880027771
1772573001512457200,4.101457275390625,1.3040883541107178,0.8656035661697388,-0.7076773047447205
1772573001530303000,4.119302978515625,1.551147222518921,1.5852450132369995,0.0891326442360878
1772573001548139500,4.137139404296875,2.215155601501465,1.765903115272522,0.5742774605751038
1772573001565970000,4.154969970703125,3.428316593170166,1.3028919696807861,0.3200400173664093
1772573001583812900,4.172812744140625,4.521238327026367,0.8835497498512268,0.005383851006627083
1772573001601643500,4.1906435546875,4.694717884063721,0.7232306599617004,-0.1950150430202484
1772573001619479000,4.20847900390625,4.067200183868408,0.6681957244873047,-0.357128769159317
1772573001637313300,4.226313232421875,2.850450038909912,1.217348575592041,0.05503492057323456
1772573001655148300,4.244148193359375,3.0867412090301514,1.4775680303573608,0.11246266216039658
1772573001672982800,4.261982666015625,4.539782524108887,1.6450655460357666,-0.5246263742446899
1772573001690818000,4.279818115234375,4.6785664558410645,2.30069899559021,-0.8967102766036987
1772573001708652000,4.297652099609375,4.31007194519043,2.919841766357422,-0.3655036687850952
1772573001726487300,4.3154873046875,5.857629776000977,3.8297126293182373,1.2179467678070068
1772573001744326000,4.333325927734375,9.519247055053711,4.319643020629883,1.25144624710083
1772573001762157300,4.3511572265625,9.941579818725586,4.663012981414795,0.11545369029045105
1772573001779989000,4.368989013671875,10.336395263671875,5.285745143890381,-0.267397940158844
1772573001797829600,4.38682958984375,11.56989574432373,6.236892223358154,0.8135597109794617
1772573001815658500,4.404658447265625,14.520245552062988,6.131010055541992,0.8063812255859375
1772573001833500000,4.4225,20.642881393432617,4.243072986602783,-0.7154539823532104
1772573001851330800,4.440330810546875,23.927030563354492,3.118446111679077,-3.2608189582824707
1772573001869166000,4.458166015625,23.298315048217773,3.432504177093506,-3.163909673690796
1772573001887000800,4.476000732421875,24.355344772338867,3.8985064029693604,-1.5481562614440918
1772573001904835800,4.4938359375,26.21576499938965,2.888735055923462,-0.39840495586395264
1772573001922670300,4.51167041015625,26.60041046142578,3.0077781677246094,0.6095715761184692
1772573001940505000,4.529505126953125,24.391836166381836,3.6394832134246826,2.12542462348938
1772573001958335500,4.54733544921875,21.249462127685547,3.9493536949157715,2.1242282390594482
1772573001976175600,4.565175537109375,17.00579071044922,3.5635111331939697,0.19381862878799438
1772573001994009900,4.583009765625,12.27697467803955,3.360121250152588,-0.9379864931106567
1772573002011844600,4.6008447265625,7.769495010375977,2.9623143672943115,-0.96370929479599
1772573002029679600,4.6186796875,5.5728840827941895,3.202194929122925,-0.38285163044929504
1772573002047506200,4.636506103515625,4.948357105255127,3.342773199081421,0.9433703422546387
1772573002065348600,4.6543486328125,3.623929977416992,4.2550368309021,2.1367905139923096
1772573002083184000,4.67218408203125,2.056631088256836,4.29451847076416,2.2953150272369385
1772573002101018600,4.6900185546875,1.6049858331680298,3.422334671020508,1.526620864868164
1772573002118854100,4.707854248046875,1.5643078088760376,2.538186550140381,0.40737804770469666
1772573002136688000,4.725688232421875,2.0231316089630127,1.5846468210220337,-0.5599204897880554
1772573002154523600,4.743523681640625,2.248655080795288,0.9601200819015503,-1.4662020206451416
1772573002172358000,4.76135791015625,2.2229323387145996,0.7974081635475159,-1.7682958841323853
1772573002190193000,4.77919287109375,2.479562520980835,0.9834501147270203,-1.1078768968582153
1772573002208027600,4.797027587890625,2.908475875854492,1.1437692642211914,-0.45942193269729614
1772573002225861400,4.814861328125,3.1692936420440674,1.2508480548858643,-0.08195417374372482
1772573002243698400,4.832698486328125,3.263810157775879,1.189831018447876,0.3720839321613312
1772573002261532400,4.850532470703125,3.5748770236968994,0.20159530639648438,0.06819544732570648
1772573002279367200,4.8683671875,3.518047571182251,0.019740786403417587,-0.7483552694320679
1772573002297202000,4.886201904296875,3.8668015003204346,0.007178467698395252,-0.9445667266845703
1772573002315037000,4.904036865234375,3.4342987537384033,-0.10648060590028763,-0.6041877269744873
1772573002332871700,4.92187158203125,3.827319860458374,-0.028115665540099144,-0.9308080077171326
1772573002350706200,4.9397060546875,5.176273345947266,1.3160524368286133,-0.9308080077171326
1772573002368541000,4.957541015625,4.704289436340332,3.875176191329956,-1.2346965074539185
1772573002386363400,4.97536328125,4.634299278259277,4.865206718444824,-2.1876380443573
1772573002404209700,4.993209716796875,8.605786323547363,3.8213376998901367,-1.191625714302063
1772573002422046700,5.011046630859375,14.147563934326172,3.7369906902313232,-0.3762713670730591
1772573002439880700,5.028880615234375,15.513267517089844,3.783052682876587,-0.36610186100006104
1772573002457704200,5.0467041015625,12.437891960144043,3.648456335067749,-0.8171489238739014
1772573002475550500,5.064550537109375,11.1978120803833,3.624528169631958,0.3002992272377014
1772573002493384700,5.082384765625,12.991830825805664,4.326821327209473,0.6149554252624512
1772573002511219500,5.100219482421875,14.428720474243164,4.144368648529053,-0.5359922647476196
1772573002529054500,5.118054443359375,15.364314079284668,4.540380954742432,-0.243469700217247
1772573002546890000,5.135889892578125,18.905094146728516,5.825924873352051,0.2841476798057556
1772573002564724200,5.15372412109375,23.65185546875,5.578267574310303,0.3044866919517517
1772573002582558700,5.171558837890625,28.924440383911133,3.153740167617798,-1.4141582250595093
1772573002600389400,5.189389404296875,28.84308433532715,1.5332010984420776,-2.554338216781616
1772573002618229000,5.20722900390625,19.256240844726562,3.1483564376831055,-1.563111424446106
1772573002636064500,5.225064453125,11.316854476928711,5.024927616119385,-0.5389832854270935
1772573002653894700,5.242894775390625,11.624930381774902,4.36091947555542,-0.893121063709259
1772573002671735300,5.2607353515625,9.836894035339355,6.017350673675537,0.24047867953777313
1772573002689568000,5.278568115234375,2.9072794914245605,10.17727279663086,3.9391841888427734
1772573002707402200,5.29640234375,0.46719861030578613,9.290133476257324,4.961517810821533
1772573002725237500,5.314237548828125,3.287140130996704,5.6685967445373535,3.658625841140747
1772573002743072300,5.332072265625,4.507479667663574,2.713460922241211,3.0556344985961914
1772573002760907000,5.349906982421875,5.13320255279541,0.6113662123680115,2.3635106086730957
1772573002778740500,5.367740478515625,4.981258392333984,0.747757077217102,3.160918712615967
1772573002796578300,5.385578369140625,3.6155550479888916,1.064207911491394,3.5682966709136963
1772573002814411800,5.403411865234375,2.097907304763794,1.1018948554992676,2.774477958679199
1772573002832246800,5.421246826171875,1.1647064685821533,1.090528964996338,1.8059829473495483
1772573002850081000,5.4390810546875,-0.4013960063457489,1.181456208229065,0.48454657196998596
1772573002867906300,5.45690625,-0.7417750358581543,1.022931694984436,-0.6011967062950134
1772573002885739300,5.4747392578125,0.09391828626394272,1.1222338676452637,-0.8135597109794617
1772573002903574300,5.49257421875,0.9774680733680725,1.2023934125900269,-0.48514479398727417
1772573002921409300,5.5104091796875,1.7569299936294556,1.516451358795166,-0.21236300468444824
1772573002939255000,5.528255126953125,3.425325632095337,1.5702898502349854,-0.28115665912628174
1772573002957089800,5.54608984375,4.345963954925537,0.7986045479774475,-0.0729810893535614
1772573002974925000,5.563925048828125,1.9423737525939941,0.784247636795044,0.5515456199645996
1772573002992759800,5.581759765625,1.3962119817733765,2.489732027053833,0.2961117923259735
1772573003010594300,5.59959423828125,2.3886351585388184,4.0319061279296875,-0.7501499056816101
1772573003028429000,5.617428955078125,2.978466033935547,7.517052173614502,-0.15074782073497772
1772573003046264000,5.63526416015625,1.196411371231079,10.000204086303711,1.9310078620910645
1772573003064098600,5.6530986328125,2.544766902923584,10.311869621276855,2.070389747619629
1772573003081933800,5.670933837890625,5.200799942016602,10.251450538635254,1.4602199792861938
1772573003099768300,5.688768310546875,6.985845565795898,7.780860900878906,1.4787644147872925
1772573003117603600,5.706603515625,8.72183895111084,5.800800323486328,0.9176474809646606
1772573003135438000,5.72443798828125,10.200004577636719,5.048257350921631,0.8183453679084778
1772573003153272800,5.74227294921875,11.36351490020752,5.449653625488281,0.8991031050682068
1772573003171107300,5.760107421875,12.63769245147705,6.202794551849365,0.6323033571243286
1772573003188942000,5.777942138671875,12.99960708618164,6.407381057739258,0.40797626972198486
1772573003206777300,5.79577734375,13.27238941192627,6.8004021644592285,0.4061816334724426
1772573003224611800,5.81361181640625,14.841482162475586,5.513063430786133,-0.4259224236011505
1772573003242446800,5.83144677734375,19.127626419067383,1.7635103464126587,-1.2197413444519043
1772573003260281300,5.84928125,22.482362747192383,0.8165507316589355,-0.6065805554389954
1772573003278112000,5.867112060546875,23.75833511352539,3.1680972576141357,2.589034080505371
1772573003295951000,5.884951171875,23.97010040283203,1.6636099815368652,4.326223373413086
1772573003313786000,5.9027861328125,22.10310173034668,2.1397817134857178,5.342574596405029
1772573003331620900,5.920620849609375,19.044475555419922,3.5222349166870117,4.95912504196167
1772573003349455400,5.938455322265625,11.769696235656738,5.6554365158081055,2.675175666809082
1772573003367290000,5.9562900390625,8.614161491394043,6.821339130401611,1.0767701864242554
1772573003385124900,5.974124755859375,10.0073823928833,5.204987525939941,0.989432156085968
1772573003402947600,5.991947509765625,10.62114143371582,4.878366947174072,2.4670002460479736
1772573003420794600,6.009794677734375,9.261420249938965,3.497110366821289,3.332603693008423
1772573003438629400,6.02762939453125,7.008577346801758,3.48993182182312,3.549154281616211
1772573003456445400,6.045445556640625,2.5250260829925537,4.166502475738525,3.7908291816711426
1772573003474297900,6.0632978515625,3.190829038619995,4.074378967285156,0.9332008361816406
1772573003492123600,6.08112353515625,2.5842485427856445,1.5020943880081177,1.1318050622940063
1772573003509957000,6.09895703125,10.582258224487305,-1.9004993438720703,0.1052841991186142
1772573003527805000,6.116804931640625,11.830713272094727,-1.8149559497833252,-1.0552347898483276
1772573003545638400,6.134638427734375,8.547162055969238,0.024526432156562805,-1.4291132688522339
1772573003563473400,6.152473388671875,3.9014973640441895,1.9830517768859863,-0.09511470049619675
1772573003581308000,6.170307861328125,2.2983062267303467,4.325026988983154,0.5946164131164551
1772573003599142700,6.188142578125,4.852046012878418,2.0129621028900146,0.6263213157653809
1772573003616977700,6.205977783203125,7.2089762687683105,0.07417750358581543,1.3357932567596436
1772573003634811000,6.223810791015625,4.931009292602539,0.5246263742446899,1.4404792785644531
1772573003652647200,6.241647216796875,2.1020946502685547,1.7365909814834595,1.1886346340179443
1772573003670483200,6.259483154296875,0.4289134442806244,1.4087743759155273,1.0492527484893799
1772573003688316400,6.27731640625,0.6448656916618347,0.8841479420661926,0.7830511927604675
1772573003706151200,6.295151123046875,-0.23808585107326508,1.109073281288147,0.544965386390686
1772573003723974700,6.312974609375,1.2490534782409668,3.3242287635803223,0.6436693072319031
1772573003741820700,6.330820556640625,3.941577196121216,5.227120876312256,0.4995017349720001
1772573003759655700,6.34865576171875,6.179464340209961,6.040680885314941,-0.1339980661869049
1772573003777490700,6.36649072265625,7.2430739402771,6.351149559020996,-0.42293140292167664
1772573003795325400,6.384325439453125,6.165705680847168,6.824928283691406,1.6917256116867065
1772573003813160400,6.402160400390625,6.045466423034668,6.320641040802002,4.599603176116943
1772573003830995000,6.419994873046875,8.015357971191406,4.754538536071777,6.780661106109619
1772573003848829400,6.437829345703125,5.851049423217773,5.115854740142822,5.803791522979736
1772573003866664700,6.455664794921875,6.810571670532227,5.315057277679443,3.4887354373931885
1772573003884495600,6.47349560546875,7.891529083251953,4.098905086517334,1.2843475341796875
1772573003902334000,6.491333984375,10.88554859161377,5.587240695953369,-1.2789636850357056
1772573003920156700,6.50915673828125,11.870793342590332,7.010372161865234,-0.9176474809646606
1772573003937992400,6.526992431640625,14.114662170410156,6.673582553863525,2.521436929702759
1772573003955838200,6.544838134765625,21.53360939025879,5.429912567138672,3.0717861652374268
1772573003973672700,6.562672607421875,26.473590850830078,3.5365917682647705,1.0193424224853516
1772573003991508200,6.58050830078125,24.801008224487305,2.1684954166412354,0.1944168359041214
1772573004009342500,6.598342529296875,22.3292236328125,3.228515863418579,2.486740827560425
1772573004027177700,6.616177734375,21.480369567871094,2.4717857837677,2.3150558471679688
1772573004045012200,6.63401220703125,22.31785774230957,2.1547367572784424,1.5876377820968628
1772573004062846500,6.651846435546875,20.507686614990234,1.662413477897644,1.3316057920455933
1772573004080680700,6.6696806640625,15.707684516906738,2.662015199661255,1.3549357652664185
1772573004098517800,6.687517822265625,10.919646263122559,3.5258240699768066,0.8356932997703552
1772573004116350700,6.705350830078125,6.550352096557617,3.5617165565490723,-0.1704886108636856
1772573004134187000,6.72318701171875,3.806382656097412,3.3481571674346924,-0.35533416271209717
1772573004152021200,6.741021240234375,3.0101709365844727,2.936591625213623,0.4049852192401886
1772573004169855500,6.75885546875,3.603590965270996,2.1756739616394043,1.0061819553375244
1772573004187690200,6.776690185546875,4.639084815979004,1.4913266897201538,0.9481559991836548
1772573004205525200,6.794525146484375,4.418346881866455,1.1736794710159302,0.4701896607875824
1772573004223359700,6.81235986328125,3.0281169414520264,0.9146564602851868,0.16809579730033875
1772573004241194500,6.830194580078125,1.8550357818603516,1.1736794710159302,0.08374879509210587
1772573004259029200,6.848029296875,1.710868239402771,1.51166570186615,0.09690931439399719
1772573004276864500,6.865864501953125,1.8580267429351807,1.843071699142456,0.10289137065410614
1772573004294699000,6.883698974609375,2.2576282024383545,2.0440688133239746,0.1866401731967926
1772573004312534000,6.901533935546875,2.528017044067383,1.9818553924560547,0.6125625967979431
1772573004330368300,6.9193681640625,2.8929226398468018,1.5326029062271118,0.7698906660079956
1772573004348186600,6.9371865234375,2.9874391555786133,0.9260223507881165,0.5000999569892883
1772573004366029300,6.955029296875,3.329014539718628,0.778863787651062,0.39182472229003906
1772573004383869700,6.97286962890625,3.3409786224365234,0.5431707501411438,0.017946170642971992
1772573004401710800,6.9907109375,2.520240545272827,0.600000262260437,-0.6281159520149231
1772573004419542300,7.008542236328125,1.812563180923462,1.7545372247695923,-1.022931694984436
1772573004437377500,7.02637744140625,2.530410051345825,4.202394962310791,-1.8346967697143555
1772573004455213000,7.044213134765625,3.421736478805542,6.460022926330566,-3.386442184448242
1772573004473046300,7.06204638671875,3.3296127319335938,8.047062873840332,-2.6560330390930176
1772573004490881000,7.079881103515625,1.5978072881698608,9.521040916442871,-1.4608181715011597
1772573004508703700,7.097703857421875,4.937589645385742,8.248059272766113,-1.012762188911438
1772573004526550800,7.11555078125,13.217353820800781,7.669594764709473,-1.414756417274475
1772573004544386000,7.133385986328125,16.288541793823242,6.860820770263672,-0.27816563844680786
1772573004562220300,7.15122021484375,14.907883644104004,5.767300605773926,1.064207911491394
1772573004580055300,7.16905517578125,14.588441848754883,5.071587562561035,1.181456208229065
1772573004597890300,7.186890380859375,14.212169647216797,5.868995666503906,1.470389485359192
1772573004615725300,7.204725341796875,13.204193115234375,6.403791427612305,1.4685949087142944
1772573004633559300,7.222559326171875,11.748161315917969,6.128018856048584,0.8512466549873352
1772573004651394300,7.240394287109375,13.299307823181152,5.582455158233643,0.46480581164360046
1772573004669229300,7.258229248046875,15.181861877441406,5.012365341186523,-0.5437689423561096
1772573004687051500,7.276051513671875,15.589239120483398,4.2556352615356445,-0.8249256014823914
1772573004704898300,7.293898193359375,16.746767044067383,2.5609183311462402,0.1537388563156128
1772573004722732500,7.311732666015625,19.469202041625977,2.2325034141540527,0.18963119387626648
1772573004740569900,7.32956982421875,18.80938148498535,1.9441684484481812,-0.13459627330303192
1772573004758403600,7.347403564453125,16.893327713012695,1.9609181880950928,-0.20039889216423035
1772573004776237600,7.365237548828125,15.783656120300293,1.5463616847991943,-0.3361915946006775
1772573004794072600,7.383072509765625,15.1417818069458,0.97926265001297,-1.210768222808838
1772573004811907300,7.4009072265625,12.912269592285156,1.3316057920455933,-1.8346967697143555
1772573004829742300,7.418742431640625,11.114063262939453,2.416750907897949,-1.176072359085083
1772573004847563800,7.436563720703125,8.3300142288208,3.4121651649475098,-0.20398813486099243
1772573004865411600,7.45441162109375,5.581258773803711,3.610769271850586,-0.11605189740657806
1772573004883242800,7.47224267578125,4.642673969268799,2.548356056213379,-0.2745763957500458
1772573004901084700,7.490084716796875,5.490331649780273,1.1808580160140991,-0.4743770956993103
1772573004918912500,7.50791259765625,6.335596084594727,0.14416755735874176,-0.23389841616153717
1772573004936753700,7.525753662109375,7.070790767669678,0.23330020904541016,0.17288143932819366
1772573004954584600,7.54358447265625,6.7076802253723145,0.9786644577980042,0.4462614357471466
1772573004972420900,7.5614208984375,5.914459228515625,1.472184181213379,0.5204389095306396
1772573004990254600,7.579254638671875,4.583451747894287,1.8077775239944458,0.24287149310112
1772573005008089600,7.597089599609375,3.6017963886260986,1.6534404754638672,-0.38225340843200684
1772573005025923000,7.614923095703125,3.108276605606079,1.3423734903335571,-0.9649057388305664
1772573005043760000,7.632760009765625,2.4197418689727783,1.1108678579330444,-1.3417752981185913
1772573005061593000,7.650593017578125,1.8346967697143555,1.2394821643829346,-1.3286148309707642
1772573005079428900,7.668428955078125,2.1852452754974365,1.4380863904953003,-0.7639086246490479
1772573005097263400,7.686263427734375,3.0376882553100586,1.6193426847457886,-0.1698904037475586
1772573005115098600,7.7040986328125,3.551547050476074,1.6474584341049194,0.17347964644432068
1772573005132932400,7.721932373046875,3.84765887260437,1.4877375364303589,-0.07657032459974289
1772573005150767600,7.739767578125,4.391427993774414,1.1186445951461792,-0.6496513485908508
1772573005168602400,7.757602294921875,4.2831525802612305,1.939382791519165,-1.8951154947280884
1772573005186437400,7.775437255859375,5.886941909790039,3.0490541458129883,-2.9114668369293213
1772573005204267800,7.793267822265625,7.989036560058594,5.816353797912598,-2.6392834186553955
1772573005222110700,7.81111083984375,10.01575756072998,9.364311218261719,-3.063411235809326
1772573005239941400,7.82894140625,7.868198871612549,13.738390922546387,-1.4398809671401978
