time,seconds_elapsed,z,y,x
1772572997530843100,0.119843017578125,-0.3804163336753845,0.3006984293460846,1.0471757650375366
1772572997541985300,0.1309853515625,-0.15806138515472412,0.36621370911598206,0.9092729091644287
1772572997559828500,0.148828369140625,0.5433646440505981,-0.03497203439474106,0.48029279708862305
1772572997577657000,0.166656982421875,1.0477865934371948,0.23579397797584534,0.27320948243141174
1772572997595502300,0.18450244140625,1.4187345504760742,0.7590000629425049,0.12492194026708603
1772572997613337300,0.20233740234375,1.8880317211151123,0.7580837607383728,0.10659598559141159
1772572997631171600,0.220171630859375,2.3353378772735596,0.4337143301963806,0.3240640163421631
1772572997649006300,0.23800634765625,2.7539331912994385,0.7327328324317932,0.751669704914093
1772572997666840800,0.2558408203125,3.0059151649475098,1.4391984939575195,1.2078332901000977
1772572997684675800,0.27367578125,2.7905850410461426,0.9071348905563354,1.3794864416122437
1772572997702510800,0.2915107421875,1.8599319458007812,-0.4427245855331421,0.9010262489318848
1772572997720345000,0.309344970703125,0.6038402915000916,0.1791362315416336,0.34544429183006287
1772572997738175000,0.327175048828125,0.2246456891298294,0.28817567229270935,0.508698046207428
1772572997756015000,0.34501513671875,-0.20463985204696655,0.38148534297943115,0.8200865983963013
1772572997773850000,0.36285009765625,-0.42989641427993774,1.5091426372528076,0.8417723178863525
1772572997791684900,0.380684814453125,-0.2324342280626297,2.30525279045105,0.5974262356758118
1772572997809519400,0.398519287109375,-0.10445795953273773,1.7095063924789429,0.5105306506156921
1772572997827354400,0.416354248046875,-0.3084869384765625,0.2588541507720947,0.6478226184844971
1772572997845176000,0.434176025390625,-0.5679519772529602,-0.9541715383529663,0.6012440919876099
1772572997863023400,0.4520234375,-0.5670356750488281,-1.170875906944275,0.2854267954826355
1772572997880846000,0.46984619140625,-0.49724429845809937,-0.8295549750328064,-0.007788531947880983
1772572997898682400,0.487682373046875,-0.5412266254425049,-0.45295658707618713,-0.13576480746269226
1772572997916527900,0.50552783203125,-0.627358615398407,-0.5650503635406494,-0.2698497176170349
1772572997934357200,0.523357177734375,-0.589179515838623,-0.8622363209724426,-0.5934556126594543
1772572997952198700,0.54119873046875,-0.4352414906024933,-0.5826127529144287,-1.1644618511199951
1772572997970031900,0.559031982421875,-0.5097670555114746,0.6239988207817078,-1.860390067100525
1772572997987867400,0.576867431640625,-0.6223189830780029,1.6073391437530518,-2.370309829711914
1772572998005702000,0.594701904296875,-0.7417431473731995,1.811979055404663,-2.560288906097412
1772572998023536400,0.612536376953125,-0.6436992287635803,1.1476631164550781,-2.490345001220703
1772572998041371600,0.63037158203125,-0.38896843791007996,0.6126978397369385,-2.270280599594116
1772572998059204000,0.6482041015625,-0.20662516355514526,0.15286903083324432,-1.9034560918807983
1772572998077042400,0.66604248046875,-0.11148291081190109,-0.4254676401615143,-1.4602733850479126
1772572998094876200,0.683876220703125,-0.009468411095440388,-0.8659014701843262,-0.9818131923675537
1772572998112710100,0.701710205078125,0.11148291081190109,-1.2151637077331543,-0.45982882380485535
1772572998130531000,0.719531005859375,0.2252565622329712,-1.451415777206421,-0.027641652151942253
1772572998148381000,0.737380859375,0.280539870262146,-1.4332425594329834,0.21395555138587952
1772572998166214400,0.75521435546875,0.26710084080696106,-1.2736539840698242,0.33826664090156555
1772572998184049200,0.773049072265625,0.22937989234924316,-1.1035280227661133,0.3930917978286743
1772572998201884000,0.7908837890625,0.2727513313293457,-0.7606799602508545,0.47708576917648315
1772572998219718700,0.80871875,0.3620903789997101,-0.3666718602180481,0.6792821288108826
1772572998237541000,0.826541015625,0.451123982667923,-0.005039638374000788,0.9317222237586975
1772572998255388700,0.844388671875,0.5694791078567505,0.3127630054950714,1.1081095933914185
1772572998273223400,0.862223388671875,0.6288857460021973,0.4236350357532501,1.1583532094955444
1772572998291058200,0.88005810546875,0.6513350605964661,0.49098294973373413,1.1603385210037231
1772572998308892400,0.897892333984375,0.6499606370925903,0.5326744914054871,1.0080803632736206
1772572998326727400,0.9157275390625,0.6110179424285889,0.37827831506729126,0.8442157506942749
1772572998344562400,0.9335625,0.5013676285743713,-0.15393804013729095,0.5021312236785889
1772572998362389500,0.951389404296875,0.05757404863834381,-0.7586946487426758,-0.25824329257011414
1772572998380231700,0.969231689453125,-0.44364088773727417,-0.5687155723571777,-0.6973026990890503
1772572998398049500,0.987049560546875,-0.41202861070632935,-0.10812314599752426,-0.4184426963329315
1772572998415901400,1.0049013671875,-0.1108720451593399,-0.06108652427792549,-0.015577063895761967
1772572998433735400,1.0227353515625,-0.04764748737215996,-0.5558874011039734,-0.1241583600640297
1772572998451572200,1.040572265625,-0.22479841113090515,-0.6090326309204102,-0.6200281977653503
1772572998469405400,1.058405517578125,-0.5198463201522827,0.4358523488044739,-0.664315938949585
1772572998487240400,1.076240478515625,-0.5224425196647644,1.4233160018920898,-0.38148534297943115
1772572998505075500,1.094075439453125,-0.2877175211906433,1.1296426057815552,-0.43737950921058655
1772572998522910500,1.111910400390625,-0.25534167885780334,0.39446622133255005,-0.7779368758201599
1772572998540744700,1.12974462890625,-0.3136793076992035,0.1667662113904953,-0.8257371187210083
1772572998558578200,1.147578125,-0.3043636083602905,0.06841690838336945,-0.5493205785751343
1772572998576415700,1.165415771484375,-0.26893341541290283,-0.23777928948402405,-0.09758572280406952
1772572998594248700,1.183248779296875,-0.26893341541290283,-0.5531384944915771,0.3107776939868927
1772572998612084700,1.201084716796875,-0.3723223805427551,-0.864679753780365,0.446389764547348
1772572998629917700,1.218917724609375,-0.4381431043148041,-0.9454666972160339,0.27229318022727966
1772572998647753700,1.236753662109375,-0.3810271918773651,-0.513737678527832,-0.0933096632361412
1772572998665588000,1.254587890625,-0.14676037430763245,0.3604104816913605,-0.640644907951355
1772572998683423000,1.272423095703125,0.08078692853450775,1.0487029552459717,-1.1062769889831543
1772572998701257500,1.290257568359375,0.1635591685771942,1.3183999061584473,-1.2999212741851807
1772572998719092200,1.30809228515625,0.10247264802455902,1.1476631164550781,-1.1876747608184814
1772572998736927000,1.325927001953125,-0.033597588539123535,0.5600107312202454,-0.8631525635719299
1772572998754761000,1.343760986328125,-0.13668109476566315,-0.18448130786418915,-0.46960264444351196
1772572998772598500,1.3615986328125,-0.21930062770843506,-0.780380368232727,-0.17989981174468994
1772572998790431200,1.37943115234375,-0.22647829353809357,-1.1507173776626587,-0.1362229436635971
1772572998808253000,1.3972529296875,-0.2611449062824249,-1.439351201057434,-0.23518311977386475
1772572998826104600,1.4151044921875,-0.2142609804868698,-1.563051462173462,-0.2981022298336029
1772572998843937300,1.432937255859375,-0.15546520054340363,-1.7018705606460571,-0.230448916554451
1772572998861771500,1.450771484375,-0.1921171247959137,-1.7788395881652832,-0.0913243517279625
1772572998879603000,1.46860302734375,-0.13316862285137177,-1.4688254594802856,0.22602014243602753
1772572998897442300,1.4864423828125,-0.07070764899253845,-0.8475755453109741,0.6282749176025391
1772572998915280600,1.50428076171875,-0.20341812074184418,-0.11255192011594772,1.0392345190048218
1772572998933109200,1.522109130859375,-0.3384193480014801,0.6443101167678833,1.3652838468551636
1772572998950945500,1.539945556640625,-0.5830708742141724,1.1033753156661987,1.5593862533569336
1772572998968780300,1.5577802734375,-1.0097602605819702,1.0557278394699097,1.2826642990112305
1772572998986615000,1.575614990234375,-1.321606993675232,0.6359107494354248,0.7258606553077698
1772572999004449800,1.59344970703125,-1.469894528388977,0.18616119027137756,0.40225476026535034
1772572999022284500,1.611284423828125,-1.3886494636535645,0.3819434940814972,0.3738495409488678
1772572999040119600,1.62911962890625,-1.088409185409546,1.3782646656036377,0.4665483236312866
1772572999057954600,1.64695458984375,-0.7055493593215942,2.1195497512817383,0.4876231849193573
1772572999075789300,1.664789306640625,-0.2958115041255951,2.0091357231140137,0.1667662113904953
1772572999093623800,1.682623779296875,-0.029016099870204926,1.288467526435852,-0.08674286305904388
1772572999111458600,1.70045849609375,0.36560285091400146,0.7670940160751343,0.02977968007326126
1772572999129293600,1.71829345703125,1.0447323322296143,0.18051068484783173,0.3303253948688507
1772572999147128000,1.736128173828125,1.5774067640304565,-0.5948300361633301,0.5253441333770752
1772572999164962800,1.753962890625,1.6181820631027222,-1.261742115020752,0.4046982228755951
1772572999182794800,1.771794677734375,1.187827467918396,-1.425454020500183,-0.013897184282541275
1772572999200635600,1.7896357421875,0.8174903988838196,-1.0103710889816284,-0.4086688458919525
1772572999218467600,1.807467529296875,0.7254024744033813,-0.2765692472457886,-0.5601634383201599
1772572999236302300,1.82530224609375,0.8984300494194031,0.4268420934677124,-0.423329621553421
1772572999254137300,1.843137451171875,0.884227454662323,0.05803219974040985,-0.17088955640792847
1772572999271971800,1.860971923828125,0.5726861953735352,-0.39645153284072876,0.1849394589662552
1772572999289806600,1.878806640625,0.2562579810619354,-0.27030786871910095,0.4239404797554016
1772572999307641300,1.896641357421875,0.024587325751781464,0.1797471046447754,0.3075706362724304
1772572999325476400,1.914476318359375,0.02076941914856434,0.4456261992454529,-0.010995574295520782
1772572999343310800,1.932310791015625,-0.08048149943351746,0.7157813310623169,-0.13500121235847473
1772572999361142500,1.950142578125,-0.33307427167892456,1.2104294300079346,-0.3032945990562439
1772572999378984000,1.96798388671875,-0.32971450686454773,1.598328948020935,-0.6079636216163635
1772572999396815600,1.985815673828125,-0.07987063378095627,1.6713273525238037,-0.7038694620132446
1772572999414650400,2.003650390625,0.06979135423898697,1.4395039081573486,-0.3205515444278717
1772572999432481800,2.021481689453125,0.06276640295982361,1.0256427526474,0.4593706727027893
1772572999450318800,2.03931884765625,-0.04688390716910362,0.4934264123439789,1.3300063610076904
1772572999468154000,2.057154052734375,-0.22250767052173615,-0.0555887371301651,1.948354721069336
1772572999485975600,2.0749755859375,-0.41752639412879944,-0.37537670135498047,2.11893892288208
1772572999503813400,2.0928134765625,-0.45433104038238525,-0.30604347586631775,1.8512271642684937
1772572999521650400,2.110650390625,-0.3419318199157715,-0.09056077152490616,1.3066407442092896
1772572999539493400,2.128493408203125,-0.20555615425109863,0.03145955875515938,0.8199338912963867
1772572999557329000,2.146328857421875,-0.0708603709936142,0.20586158335208893,0.5761986374855042
1772572999575163400,2.164163330078125,-0.04245513305068016,0.3191770911216736,0.5688682794570923
1772572999592998000,2.181997802734375,-0.059864792972803116,0.3605632185935974,0.6166684627532959
1772572999610832600,2.19983251953125,-0.023365596309304237,0.3156646192073822,0.5369505286216736
1772572999628668000,2.21766796875,0.09712757170200348,0.1823432743549347,0.5164865851402283
1772572999646502700,2.235502685546875,0.3013092875480652,0.01771509274840355,0.6966918110847473
1772572999664337200,2.253337158203125,0.3904955983161926,-0.2064724564552307,0.7916813492774963
1772572999682172000,2.271171875,0.3266601860523224,-0.44455718994140625,0.6455318331718445
1772572999700007000,2.2890068359375,0.1647808998823166,-0.6811147332191467,0.2590068578720093
1772572999717842000,2.306842041015625,-0.027183502912521362,-0.7159340381622314,-0.14446963369846344
1772572999735677000,2.324677001953125,-0.10033461451530457,-0.6265950202941895,-0.451582133769989
1772572999753511200,2.34251123046875,-0.0887281745672226,-0.3862195611000061,-0.6557638645172119
1772572999771346200,2.36034619140625,-0.1872301995754242,-0.14584407210350037,-0.9349292516708374
1772572999789181000,2.378180908203125,-0.49037206172943115,-0.4665483236312866,-1.7008016109466553
1772572999807015400,2.396015380859375,-0.395077109336853,-1.168585181236267,-2.390162944793701
1772572999824838700,2.413838623046875,-0.16401731967926025,-1.0225883722305298,-2.481792688369751
1772572999842685200,2.431685302734375,-0.14966198801994324,0.12278391420841217,-2.5589144229888916
1772572999860520200,2.449520263671875,0.11591167747974396,0.8816312551498413,-2.211179494857788
1772572999878355000,2.46735498046875,0.6256787180900574,0.8002334833145142,-1.2084441184997559
1772572999896189700,2.485189697265625,0.8645270466804504,-0.05971207842230797,-0.2860376536846161
1772572999914024700,2.503024658203125,0.7586946487426758,-0.8252789378166199,0.1362229436635971
1772572999931859200,2.520859130859375,0.5865833759307861,-0.8788823485374451,0.2021963894367218
1772572999949694200,2.538694091796875,0.6378960609436035,-0.5067127346992493,0.0734565481543541
1772572999967516400,2.556516357421875,0.7334964275360107,-0.11514809727668762,-0.1235474944114685
1772572999985363700,2.57436376953125,0.5477933883666992,-0.0065668015740811825,-0.2145664244890213
1772573000003186200,2.592186279296875,0.09162978827953339,-0.20723603665828705,-0.16722436249256134
1772573000021035300,2.61003515625,-0.39385536313056946,-0.613461434841156,-0.20433442294597626
1772573000038854000,2.62785400390625,-0.6649268269538879,-0.7718282341957092,-0.39385536313056946
1772573000056706000,2.6457060546875,-0.6502660512924194,-0.5180137157440186,-0.6681338548660278
1772573000074538000,2.6635380859375,-0.4193589985370636,-0.07712173461914062,-0.8811731338500977
1772573000092372700,2.681372802734375,-0.11652254313230515,0.29046642780303955,-0.9060658812522888
1772573000110207500,2.69920751953125,0.08933904021978378,0.413555771112442,-0.6400340795516968
1772573000128042200,2.717042236328125,0.18997909128665924,0.2591595947742462,-0.22663100063800812
1772573000145876000,2.7348759765625,0.19898934662342072,-0.18081611394882202,0.07284568250179291
1772573000163712800,2.752712646484375,0.15485434234142303,-0.6852380633354187,0.16432274878025055
1772573000181546800,2.770546630859375,0.17837265133857727,-1.0062477588653564,0.17501288652420044
1772573000199381800,2.7883818359375,0.22602014243602753,-1.1191051006317139,0.25244006514549255
1772573000217216300,2.80621630859375,0.2727513313293457,-1.0015136003494263,0.4040873646736145
1772573000235051300,2.82405126953125,0.3081815242767334,-0.7290676832199097,0.6101016402244568
1772573000252886000,2.841885986328125,0.3701843321323395,-0.494189977645874,0.7522805333137512
1772573000270720500,2.859720458984375,0.328340083360672,-0.3683517575263977,0.8287914395332336
1772573000288555800,2.8775556640625,0.18081611394882202,-0.17379115521907806,0.9837985038757324
1772573000306391300,2.895391357421875,0.05451972410082817,0.14935655891895294,1.2176071405410767
1772573000324224300,2.913224365234375,0.0731511116027832,0.6094908118247986,1.5341880321502686
1772573000342058800,2.931058837890625,0.3214678466320038,1.3529138565063477,1.6591099500656128
1772573000359892700,2.948892822265625,0.8190175890922546,1.9643899202346802,1.3771957159042358
1772573000377729500,2.9667294921875,1.2279918193817139,1.8037323951721191,0.5360342264175415
1772573000395562200,2.984562255859375,1.6824755668640137,1.2770137786865234,-1.0435105562210083
1772573000413400300,3.002400390625,1.419498085975647,1.2467759847640991,-2.7945556640625
1772573000431231700,3.020231689453125,-0.3978259861469269,0.15851953625679016,-3.5020904541015625
1772573000449069000,3.038069091796875,-2.0137171745300293,-2.3441953659057617,-2.6648995876312256
1772573000466902500,3.055902587890625,-2.169029712677002,-3.640756845474243,-2.0225749015808105
1772573000484737500,3.073737548828125,-1.7522670030593872,-1.8596265316009521,-2.037999153137207
1772573000502572300,3.091572265625,-0.8309294581413269,0.535881519317627,-1.5688546895980835
1772573000520407000,3.109406982421875,0.03451388701796532,1.7333301305770874,-0.5132794976234436
1772573000538229500,3.1272294921875,0.41111230850219727,1.853670597076416,0.6152940392494202
1772573000556077000,3.1450771484375,0.7269296646118164,1.444390892982483,1.368949055671692
1772573000573911800,3.162911865234375,0.8423831462860107,1.1933252811431885,1.605353832244873
1772573000591746800,3.180746826171875,0.8944594264030457,1.1921035051345825,1.1977540254592896
1772573000609581300,3.198581298828125,1.150259256362915,1.286940336227417,0.5227479338645935
1772573000627416600,3.21641650390625,1.5428929328918457,1.2991576194763184,-0.03848451003432274
1772573000645232000,3.234232177734375,1.826945185661316,0.769690215587616,-0.2790127098560333
1772573000663085600,3.25208544921875,1.6366606950759888,-0.15363261103630066,-0.1459967941045761
1772573000680908500,3.269908447265625,1.120937705039978,-1.00197172164917,0.13179416954517365
1772573000698755300,3.28775537109375,0.6027712821960449,-1.557706356048584,0.25992316007614136
1772573000716590300,3.30559033203125,0.2588541507720947,-1.486387848854065,0.08338310569524765
1772573000734425300,3.32342529296875,-0.09315694868564606,-0.7334964275360107,-0.4534147381782532
1772573000752260000,3.341260009765625,-0.5316054821014404,0.40424007177352905,-1.124755620956421
1772573000770094600,3.359094482421875,-0.8565858006477356,1.2455542087554932,-1.5125023126602173
1772573000787929600,3.3769296875,-0.9957103729248047,1.4201090335845947,-1.4025466442108154
1772573000805764400,3.394764404296875,-0.9353874325752258,0.7843509912490845,-0.859029233455658
1772573000823599000,3.41259912109375,-0.8455902338027954,-0.30314189195632935,-0.0754418596625328
1772573000841433900,3.430433837890625,-0.7956519722938538,-1.1774427890777588,0.6001750826835632
1772573000859268900,3.448268798828125,-0.7451028823852539,-1.2625057697296143,0.8170322775840759
1772573000877104000,3.466104248046875,-0.6383541822433472,-0.7809911966323853,0.5326744914054871
1772573000894938600,3.483938720703125,-0.4473060667514801,-0.11835514008998871,0.14935655891895294
1772573000912773600,3.501773681640625,-0.36331209540367126,0.2814561724662781,0.060475658625364304
1772573000930608000,3.519608154296875,-0.46303585171699524,0.25182920694351196,0.3095559775829315
1772573000948443000,3.53744287109375,-0.7470881938934326,-0.04642575979232788,0.7183775305747986
1772573000966277600,3.555277587890625,-1.0621418952941895,-0.3332269787788391,1.0256427526474
1772573000984112600,3.573112548828125,-1.0103710889816284,-0.35445454716682434,1.2713632583618164
1772573001001949700,3.59094970703125,-0.8064948320388794,-0.2532036304473877,1.4633276462554932
1772573001019782100,3.6087822265625,-0.65958172082901,-0.2770273983478546,1.444696307182312
1772573001037604900,3.62660498046875,-0.7704538106918335,-0.8799513578414917,1.1081095933914185
1772573001055452400,3.644452392578125,-0.9277516007423401,-1.6490306854248047,0.8367326855659485
1772573001073287400,3.662287353515625,-0.835969090461731,-1.2793045043945312,1.0152580738067627
1772573001091121700,3.68012158203125,-0.6644686460494995,-0.31383201479911804,1.094059705734253
1772573001108956200,3.6979560546875,-0.6411030888557434,0.10613783448934555,0.5566509366035461
1772573001126791400,3.71579150390625,-0.7440338730812073,0.023060163483023643,-0.10018189996480942
1772573001144626400,3.73362646484375,-0.7805330753326416,-0.03191770985722542,-0.36713001132011414
1772573001162461200,3.751461181640625,-0.5710062980651855,0.3000875413417816,-0.4005748927593231
1772573001180295700,3.769295654296875,-0.21074850857257843,0.5062545537948608,-0.3594942092895508
1772573001198125000,3.787125,-0.1036943718791008,0.35063666105270386,-0.39584067463874817
1772573001215967000,3.804967041015625,-0.060475658625364304,0.10399980843067169,-0.08078692853450775
1772573001233800400,3.822800537109375,0.251676470041275,-0.021532999351620674,0.37568211555480957
1772573001251635000,3.840635009765625,0.5354233980178833,0.5679519772529602,0.4427245855331421
1772573001269470000,3.858469970703125,0.5085453391075134,1.1507173776626587,0.4789183437824249
1772573001287305000,3.876304931640625,0.46731191873550415,0.7185302376747131,0.8629998564720154
1772573001305139500,3.894139404296875,0.24633140861988068,-1.2261592149734497,1.1782063245773315
1772573001322974500,3.911974365234375,-0.07391469180583954,-2.531578302383423,0.8970556259155273
1772573001340809000,3.92980908203125,-0.23105977475643158,-2.0648772716522217,0.2525927722454071
1772573001358644000,3.94764404296875,-0.006261368747800589,-0.5280929803848267,-0.46502116322517395
1772573001376479200,3.965479248046875,0.22647829353809357,0.39553526043891907,-1.0129673480987549
1772573001394314000,3.98331396484375,0.20876319706439972,0.8324565887451172,-1.10139000415802
1772573001412149000,4.00114892578125,-0.13759739696979523,0.8454375267028809,-0.8151996731758118
1772573001429983200,4.018983154296875,-0.5042692422866821,0.5009095072746277,-0.5248859524726868
1772573001447818200,4.036818359375,-0.7096726894378662,0.09422596544027328,-0.3173444867134094
1772573001465635300,4.05463525390625,-0.7686212062835693,-0.062460970133543015,-0.12263119965791702
1772573001483475500,4.072475341796875,-0.6130032539367676,-0.0529925599694252,0.18875735998153687
1772573001501311500,4.0903115234375,-0.3446807265281677,-0.03985895588994026,0.342237263917923
1772573001519146500,4.108146484375,-0.1466076523065567,-0.07666359096765518,0.26022860407829285
1772573001536993500,4.12599365234375,-0.17318029701709747,-0.15760323405265808,0.18249599635601044
1772573001554827500,4.14382763671875,-0.33047810196876526,-0.2194533348083496,0.15195272862911224
1772573001572662300,4.161662353515625,-0.39675697684288025,-0.09117163717746735,0.16401731967926025
1772573001590496500,4.17949658203125,-0.37720927596092224,0.22021691501140594,0.2739730477333069
1772573001608331500,4.19733154296875,-0.33169981837272644,0.523511528968811,0.4386012554168701
1772573001626166800,4.215166748046875,-0.23777928948402405,0.675616979598999,0.5815436840057373
1772573001644001500,4.23300146484375,-0.24648413062095642,0.3952298164367676,0.7284567952156067
1772573001661836300,4.250836181640625,-0.3550654351711273,-0.02535090781748295,0.8776606321334839
1772573001679670800,4.2686708984375,-0.3576616048812866,-0.31780263781547546,1.1426234245300293
1772573001697505300,4.28650537109375,-0.27122417092323303,-0.5366451144218445,1.2530373334884644
1772573001715342000,4.304342041015625,-0.2197587788105011,-0.6195700764656067,0.8547531962394714
1772573001733175800,4.32217578125,-0.4260784983634949,-0.5557346343994141,0.27580565214157104
1772573001751010300,4.34001025390625,-0.7542658448219299,-0.17272214591503143,0.03634648025035858
1772573001768845300,4.35784521484375,-0.875064492225647,-0.06658431142568588,-0.08307767659425735
1772573001786679800,4.3756796875,-0.812298059463501,-0.06887505948543549,-0.5763513445854187
1772573001804514600,4.3935146484375,-0.9563095569610596,0.006261368747800589,-1.443169116973877
1772573001822349600,4.411349609375,-1.1059715747833252,-0.1736384481191635,-2.2046127319335938
1772573001840184300,4.429184326171875,-0.9639453291893005,-0.11102475970983505,-2.197282314300537
1772573001858019300,4.447019287109375,-0.36132678389549255,-0.0832303911447525,-1.4934128522872925
1772573001875854300,4.464854248046875,0.28069257736206055,-0.5555819272994995,-0.9065240025520325
1772573001893688800,4.482688720703125,0.6372851729393005,-0.9181304574012756,-0.6707300543785095
1772573001911524600,4.500524658203125,0.8805622458457947,-0.8672759532928467,-0.39675697684288025
1772573001929358600,4.518358642578125,1.103833556175232,-0.3608686327934265,-0.07666359096765518
1772573001947193900,4.53619384765625,1.089020013809204,0.30741792917251587,0.0981965884566307
1772573001965017300,4.554017333984375,0.8231409192085266,0.646906316280365,0.36132678389549255
1772573001982858800,4.571858642578125,0.6763805150985718,0.44318273663520813,0.8813258409500122
1772573002000696000,4.589696044921875,0.6676757335662842,-0.29245173931121826,1.4515684843063354
1772573002018525200,4.607525146484375,0.7484626173973083,-1.1867583990097046,1.7861700057983398
1772573002036368000,4.625367919921875,0.8839219808578491,-1.6035212278366089,1.7603609561920166
1772573002054190300,4.6431904296875,0.935081958770752,-0.9300423264503479,1.2108876705169678
1772573002072037600,4.66103759765625,0.6788240075111389,0.22021691501140594,0.3199406862258911
1772573002089872000,4.678871826171875,0.17088955640792847,1.1840095520019531,-0.6217080950737
1772573002107706600,4.69670654296875,-0.27977627515792847,1.7889188528060913,-1.2794572114944458
1772573002125541600,4.714541748046875,-0.5442809462547302,1.9523253440856934,-1.558011770248413
1772573002143376400,4.73237646484375,-0.6517932415008545,1.8822284936904907,-1.5347989797592163
1772573002161211600,4.750211669921875,-0.5636758804321289,1.5868752002716064,-1.273043155670166
1772573002179046000,4.7680458984375,-0.3543018400669098,1.1383473873138428,-0.9191994667053223
1772573002196881400,4.78588134765625,-0.21792617440223694,0.7313584089279175,-0.5797111392021179
1772573002214715400,4.80371533203125,-0.19822576642036438,0.4537201523780823,-0.2298380434513092
1772573002232551400,4.821551513671875,-0.22708915174007416,0.32299500703811646,0.04596760869026184
1772573002250385700,4.8393857421875,-0.2961169183254242,0.38469240069389343,0.18768835067749023
1772573002268210000,4.8572099609375,-0.21838432550430298,0.6316346526145935,0.28649580478668213
1772573002286055000,4.875054931640625,-0.07391469180583954,0.7263187766075134,0.42791110277175903
1772573002303890000,4.892889892578125,0.12522737681865692,0.6777549982070923,0.6841690540313721
1772573002321724700,4.910724609375,0.3101668357849121,0.5279402732849121,0.8820894360542297
1772573002339559200,4.92855908203125,0.5065600275993347,0.2863430976867676,0.9816604256629944
1772573002357394200,4.946394287109375,0.6035348773002625,-0.02779436856508255,1.2571606636047363
1772573002375229400,4.9642294921875,0.48456886410713196,-0.7047857642173767,1.4753923416137695
1772573002393064200,4.982064208984375,0.43646320700645447,-1.6672040224075317,1.1693488359451294
1772573002410899200,4.999899169921875,0.42012256383895874,-2.110386610031128,0.6227771043777466
1772573002428733700,5.017733642578125,0.3504839241504669,-1.1925616264343262,0.2119702398777008
1772573002446568400,5.035568359375,0.23640485107898712,0.23854288458824158,-0.11499538272619247
1772573002464403500,5.053403564453125,0.2977968156337738,0.6798930168151855,-0.5105306506156921
1772573002482243300,5.071243408203125,0.24572055041790009,0.3770565688610077,-0.7290676832199097
1772573002500072700,5.08907275390625,0.07559457421302795,0.1966986060142517,-0.670577347278595
1772573002517908000,5.106907958984375,0.17241671681404114,0.15592335164546967,-0.5791002511978149
1772573002535743000,5.124742919921875,0.3833179473876953,-0.01618792861700058,-0.7782423496246338
1772573002553565200,5.142565185546875,0.42898011207580566,-0.15225815773010254,-1.0322095155715942
1772573002571412500,5.16041259765625,0.3804163336753845,-0.4856378734111786,-0.5662720799446106
1772573002589246700,5.178246826171875,0.77472984790802,-0.30695977807044983,0.7728972434997559
1772573002607082000,5.19608203125,1.5590808391571045,0.5180137157440186,2.320066213607788
1772573002624916500,5.21391650390625,1.938580870628357,-0.003817907767370343,3.146414279937744
1772573002642751700,5.231751708984375,1.7345519065856934,-2.1737639904022217,3.7362046241760254
1772573002669504800,5.2585048828125,1.7791450023651123,-3.081509828567505,4.156938076019287
1772573002687338500,5.27633837890625,1.5740469694137573,-1.5984816551208496,2.5618162155151367
1772573002705173000,5.294173095703125,0.6253733038902283,-1.1933252811431885,0.8429940342903137
1772573002723008000,5.312008056640625,-0.22403483092784882,-1.0858129262924194,-0.24190263450145721
1772573002740843000,5.329843017578125,-0.6491970419883728,-0.8709411025047302,-0.5155702829360962
1772573002758677500,5.347677490234375,-0.7675521969795227,-0.23976461589336395,-0.7124215960502625
1772573002776511700,5.36551171875,-0.6637051105499268,0.7825183868408203,-0.8185594081878662
1772573002794348300,5.383348388671875,-0.7600690722465515,1.7318029403686523,-0.9133962392807007
1772573002812182300,5.401182373046875,-0.9515753388404846,2.119396924972534,-0.8561276197433472
1772573002830017300,5.419017333984375,-1.0630582571029663,1.9955440759658813,-0.6262896060943604
1772573002847851800,5.436851806640625,-1.1171197891235352,1.5302174091339111,-0.34895676374435425
1772573002865692200,5.454692138671875,-1.0338894128799438,0.8100073337554932,-0.2073887437582016
1772573002883508700,5.4725087890625,-0.821461021900177,0.28878653049468994,-0.1719585657119751
1772573002901344800,5.4903447265625,-0.6284276247024536,0.016035212203860283,-0.14553864300251007
1772573002919178800,5.5081787109375,-0.4934264123439789,-0.16768251359462738,-0.05971207842230797
1772573002937028900,5.52602880859375,-0.31031954288482666,-0.15057829022407532,0.12950342893600464
1772573002954860500,5.543860595703125,-0.14019356667995453,-0.14508049190044403,0.6684392690658569
1772573002972695300,5.5616953125,-0.052381694316864014,-1.0293079614639282,1.8031214475631714
1772573002990529800,5.57952978515625,-0.24098633229732513,-2.722321033477783,2.98697829246521
1772573003008365000,5.597364990234375,-0.403323769569397,-3.6170859336853027,3.579059362411499
1772573003026199800,5.61519970703125,-0.24434609711170197,-3.149468421936035,3.3012685775756836
1772573003044034600,5.63303466796875,-0.4103487432003021,-1.7087428569793701,1.9112446308135986
1772573003061869000,5.650869140625,-0.8130616545677185,-0.475253164768219,-0.32971450686454773
1772573003079704600,5.66870458984375,-1.03037691116333,0.7031059265136719,-1.8139643669128418
1772573003097539000,5.6865390625,-1.2153164148330688,1.0671815872192383,-2.2757785320281982
1772573003115373800,5.704373779296875,-1.2182179689407349,0.8830057382583618,-2.2907447814941406
1772573003133208600,5.72220849609375,-0.9094256162643433,0.5813909769058228,-2.1821634769439697
1772573003151043300,5.740043212890625,-0.6131559610366821,0.4288274049758911,-2.132377862930298
1772573003168878600,5.757878662109375,-0.5096143484115601,0.29764407873153687,-2.13008713722229
1772573003186712800,5.775712890625,-0.4196644127368927,0.17470745742321014,-2.1624629497528076
1772573003204548000,5.793548095703125,-0.3839288055896759,-0.19257527589797974,-2.4158194065093994
1772573003222366000,5.811365966796875,-0.5126686692237854,-1.2026410102844238,-2.9263498783111572
1772573003240217000,5.829217041015625,-0.26572638750076294,-2.2908973693847656,-3.380833625793457
1772573003258052000,5.847052001953125,0.47830748558044434,-2.0031797885894775,-3.3678529262542725
1772573003275886000,5.864885986328125,0.6944010853767395,-0.988379955291748,-2.302503824234009
1772573003293723000,5.882722900390625,0.41493022441864014,-0.8846855759620667,-0.4836525619029999
1772573003311556600,5.900556640625,0.007788531947880983,-1.9156733751296997,1.995696783065796
1772573003329391400,5.918391357421875,-0.6125451326370239,-2.0815234184265137,3.4461963176727295
1772573003347226000,5.93622607421875,-0.7539604306221008,-1.3437508344650269,3.026073694229126
1772573003365061000,5.95406103515625,-0.35842517018318176,-1.021519422531128,1.3183999061584473
1772573003382895600,5.9718955078125,0.1667662113904953,-0.2590068578720093,-0.6476698517799377
1772573003400727600,5.9897275390625,0.6676757335662842,0.8260425329208374,-1.6723963022232056
1772573003418568700,6.007568603515625,0.6540839672088623,1.7272214889526367,-1.8860464096069336
1772573003436400400,6.025400390625,0.08521570265293121,2.0323486328125,-1.8637498617172241
1772573003454230500,6.04323046875,-0.9689850211143494,1.4373658895492554,-1.5493069887161255
1772573003472074500,6.061074462890625,-2.125047445297241,-0.05406157299876213,-1.1380419731140137
1772573003489889800,6.078889892578125,-2.3773348331451416,-1.5989397764205933,-0.5754350423812866
1772573003507731700,6.096731689453125,-1.7600555419921875,-2.6219863891601562,-0.5097670555114746
1772573003525577000,6.114576904296875,-0.8234463334083557,-1.228297233581543,-0.48808133602142334
1772573003543406800,6.13240673828125,0.032528575509786606,0.4973970353603363,-0.2047925740480423
1772573003561243400,6.150243408203125,0.7544185519218445,0.9048441648483276,0.07773260027170181
1772573003579078700,6.16807861328125,0.794277548789978,0.8932377099990845,-0.19318613409996033
1772573003596913400,6.185913330078125,0.48808133602142334,0.41233405470848083,-0.34804046154022217
1772573003614748400,6.20374853515625,0.46899178624153137,0.521984338760376,0.1592831164598465
1772573003632582700,6.221582763671875,0.5180137157440186,0.7777841687202454,0.9511171579360962
1772573003650413000,6.2394130859375,0.6165157556533813,0.6261368989944458,1.3713924884796143
1772573003668252400,6.25725244140625,0.5607742667198181,0.47021353244781494,1.2457069158554077
1772573003686087000,6.2750869140625,0.5653557777404785,0.47800204157829285,0.9639453291893005
1772573003703922000,6.292921875,0.7115052938461304,0.5827654600143433,0.7938193678855896
1772573003721741600,6.310741455078125,0.8124507665634155,0.05757404863834381,0.751669704914093
1772573003739594500,6.328594482421875,0.5435173511505127,0.1635591685771942,0.8071057200431824
1772573003757426700,6.3464267578125,0.4108068645000458,0.651945948600769,0.9758572578430176
1772573003775261400,6.364261474609375,0.9233227968215942,1.1762210130691528,1.3032809495925903
1772573003793096000,6.382095947265625,1.6158913373947144,1.298241376876831,1.463022232055664
1772573003810930400,6.399930419921875,1.7182111740112305,0.8494081497192383,1.2716686725616455
1772573003828766000,6.417765869140625,1.0396926403045654,0.4631885588169098,0.7327328324317932
1772573003846600700,6.4356005859375,0.06627888232469559,0.4141666293144226,0.14324790239334106
1772573003864435000,6.45343505859375,-0.7179193496704102,0.38988474011421204,-0.1463022232055664
1772573003882268700,6.4712685546875,-0.9556986689567566,0.007177666760981083,-0.4720461070537567
1772573003900105700,6.489105712890625,-0.7156286239624023,-0.3266601860523224,-0.8825475573539734
1772573003917937200,6.506937255859375,-0.33475416898727417,-0.08628471940755844,-1.3518447875976562
1772573003935761700,6.52476171875,-0.21349740028381348,-0.5992587804794312,-2.1109976768493652
1772573003953612000,6.542612060546875,-0.49205195903778076,-1.0067058801651,-2.4894285202026367
1772573003971443700,6.560443603515625,-0.6224716901779175,-0.31383201479911804,-1.9886717796325684
1772573003989278500,6.578278564453125,-0.247094988822937,0.6075055003166199,-1.0740537643432617
1772573004007113200,6.59611328125,-0.06322455406188965,0.46990808844566345,-0.3599523603916168
1772573004024948200,6.6139482421875,-0.6710354685783386,-0.6495024561882019,0.2967278063297272
1772573004042782700,6.63178271484375,-1.1064296960830688,-1.7884607315063477,1.216843605041504
1772573004060617500,6.649617431640625,-1.1105530261993408,-1.5360206365585327,1.8165605068206787
1772573004078452700,6.66745263671875,-0.8057312369346619,-0.626747727394104,1.8194621801376343
1772573004096287500,6.68528759765625,-0.6837109327316284,-0.01114829070866108,1.4301882982254028
1772573004114109700,6.703109619140625,-0.5810855627059937,0.1814269721508026,0.8568912148475647
1772573004131956500,6.72095654296875,-0.32650747895240784,-0.078343465924263,0.26862800121307373
1772573004149791700,6.738791748046875,-0.10277807712554932,-0.5677992701530457,-0.1739438772201538
1772573004167626200,6.756626220703125,0.005803219974040985,-0.8032878041267395,-0.32039880752563477
1772573004185461000,6.7744609375,0.07788532227277756,-0.46410486102104187,-0.32589662075042725
1772573004203295700,6.792295654296875,0.17256943881511688,0.5271766781806946,-0.38087448477745056
1772573004221130500,6.810130615234375,0.33719760179519653,1.4998269081115723,-0.5412266254425049
1772573004238965200,6.82796533203125,0.542142927646637,1.8849774599075317,-0.6911939978599548
1772573004256800300,6.84580029296875,0.6626361012458801,1.704466700553894,-0.7153232097625732
1772573004274635300,6.86363525390625,0.6513350605964661,1.3483322858810425,-0.5774203538894653
1772573004292469500,6.881469482421875,0.5514585971832275,0.9535606503486633,-0.29306259751319885
1772573004310301000,6.899301025390625,0.3923282027244568,0.6681338548660278,0.06627888232469559
1772573004328139300,6.91713916015625,0.15851953625679016,0.531147301197052,0.399200439453125
1772573004345970000,6.934969970703125,-0.022143865004181862,0.5815436840057373,0.7023423314094543
1772573004363800600,6.952800537109375,-0.1411098688840866,0.5641340613365173,0.9410378932952881
1772573004381642000,6.97064208984375,-0.21395555138587952,0.8628471493721008,1.0319041013717651
1772573004399479800,6.988479736328125,-0.156686931848526,1.2892310619354248,1.0025825500488281
1772573004417313000,7.00631298828125,0.0633772686123848,1.399950385093689,0.9294314980506897
1772573004435148300,7.024148193359375,0.2379320114850998,1.239292860031128,0.7953465580940247
1772573004452983300,7.0419833984375,0.2877175211906433,1.2683089971542358,0.5148066878318787
1772573004470817000,7.059817138671875,0.3715587854385376,1.3074043989181519,0.0861319974064827
1772573004488652000,7.077652099609375,0.3423899710178375,0.5958990454673767,-0.40256020426750183
1772573004506474500,7.095474609375,0.0529925599694252,-1.3489432334899902,-1.0696250200271606
1772573004524321500,7.113321533203125,-0.05253441259264946,-2.1429152488708496,-1.4191926717758179
1772573004542156500,7.131156494140625,0.10323622822761536,-0.9440922141075134,-1.1527026891708374
1772573004559991000,7.148990966796875,0.17409659922122955,0.14813482761383057,-0.8297077417373657
1772573004577826000,7.166825927734375,0.22098049521446228,0.46731191873550415,-0.5757405161857605
1772573004595660800,7.184660888671875,0.30375275015830994,0.7061602473258972,-0.4280638098716736
1772573004613495800,7.202495849609375,0.17241671681404114,0.7994698882102966,-0.37720927596092224
1772573004631330000,7.220330078125,-0.08277224004268646,0.50335294008255,-0.34376442432403564
1772573004649165000,7.2381650390625,-0.2616030275821686,-0.14874568581581116,-0.35964691638946533
1772573004666999800,7.255999755859375,-0.3254384696483612,-0.40775254368782043,-0.3929390609264374
1772573004684822000,7.273822021484375,-0.23686300218105316,-0.3675881624221802,-0.48777589201927185
1772573004702669000,7.2916689453125,-0.12263119965791702,-0.5082398653030396,-0.726471483707428
1772573004720504000,7.309504150390625,0.011301007121801376,-0.4060726761817932,-0.7127270102500916
1772573004738339600,7.327339599609375,0.11835514008998871,0.06398813426494598,-0.42760565876960754
1772573004756174000,7.345174072265625,0.16814066469669342,0.2932153046131134,-0.2831360399723053
1772573004774008300,7.36300830078125,0.06398813426494598,0.4098905920982361,-0.4712825417518616
1772573004791843300,7.38084326171875,0.1661553531885147,0.7790058851242065,-0.7840455174446106
1772573004809677800,7.398677734375,0.44745880365371704,0.9456194043159485,-0.8268061280250549
1772573004827512800,7.416512939453125,0.5958990454673767,0.759305477142334,-0.46364670991897583
1772573004845334800,7.434334716796875,0.39614611864089966,0.6893614530563354,0.02886338345706463
1772573004863182000,7.45218212890625,0.021838432177901268,0.3240640163421631,0.33719760179519653
1772573004881015000,7.47001513671875,-0.2513710558414459,-0.2866485118865967,0.23060162365436554
1772573004898853600,7.487853515625,-0.2116648107767105,-0.5002986192703247,-0.21502456068992615
1772573004916684800,7.505684814453125,0.13011430203914642,-0.16340644657611847,-0.6892086863517761
1772573004934523000,7.52352294921875,0.5077817440032959,0.4888449013233185,-0.8872817754745483
1772573004952355600,7.54135546875,0.7047857642173767,1.126588225364685,-0.6763805150985718
1772573004970191000,7.559191162109375,0.7079927921295166,1.4624114036560059,-0.17531833052635193
1772573004988025300,7.577025390625,0.5671883821487427,1.5615242719650269,0.3773620128631592
1772573005005860400,7.5948603515625,0.3445279896259308,1.3744467496871948,0.7603744864463806
1772573005023694300,7.6126943359375,0.24617868661880493,1.1197160482406616,1.0047205686569214
1772573005041530000,7.630530029296875,0.2886338233947754,0.8158105611801147,1.1542298793792725
1772573005059364000,7.648364013671875,0.43279802799224854,0.29474249482154846,1.216843605041504
1772573005077199400,7.666199462890625,0.5386304259300232,-0.3842342495918274,1.195005178451538
1772573005095034000,7.6840341796875,0.5290092825889587,-0.736245334148407,1.173930287361145
1772573005112869000,7.701869140625,0.43967026472091675,-0.7041749358177185,1.0793988704681396
1772573005130703000,7.719703125,0.394008070230484,-0.45234572887420654,0.8546004891395569
1772573005148538400,7.737538330078125,0.42928555607795715,-0.31001409888267517,0.6453791260719299
1772573005166372900,7.755372802734375,0.389426589012146,-0.3104722499847412,0.9056077003479004
1772573005184208000,7.773207763671875,0.5206099152565002,-0.903164267539978,1.1007791757583618
1772573005202040600,7.79104052734375,0.7777841687202454,-0.7527387142181396,0.9738719463348389
1772573005219879200,7.808879150390625,0.7345654368400574,0.055894169956445694,0.7678576111793518
1772573005237712100,7.826712158203125,0.4043927788734436,0.9657779335975647,0.5018258094787598
