time,seconds_elapsed,z,y,x
1772462076882345000,0.076344970703125,-0.013512392523884772,-0.002756468234444037,0.014197616575378923
1772462076892393000,0.08639306640625,-0.01620294678211212,-0.0015834515328519046,0.01743300003372133
1772462076902440700,0.096440673828125,-0.066480012601614,-0.0035256351091898976,0.0019057240234687924
1772462076912490000,0.106489990234375,-0.053312487992644306,0.004528035351075232,-0.02150821358337998
1772462076922537700,0.116537841796875,0.0113327103972435,0.0183872411517892,-0.02266211459254846
1772462076932585500,0.12658544921875,0.0373702379733324,0.0025208785134367643,-0.005132120457757264
1772462076942633500,0.136633544921875,-0.029812954461574552,-0.01214224581499584,0.012311985491868108
1772462076952681500,0.146681396484375,-0.08637363059520721,-0.025784922788199036,0.02804515933776274
1772462076962729500,0.1567294921875,-0.029359365475177764,-0.02532534245243296,0.02364571880241856
1772462076972777700,0.16677783203125,0.03439092990159988,-0.010329716500313953,0.013752959814108907
1772462076982825500,0.176825439453125,-0.019475684842467308,0.010971640266198665,0.005976553658954799
1772462076992873500,0.18687353515625,-0.0736427438378334,0.027225002061296254,-0.002353084198478609
1772462077002922500,0.196922607421875,-0.0447644398778677,0.018060767410090193,-0.00776811325084418
1772462077012970500,0.206970458984375,0.015533669218420981,0.007879437271365895,-0.014203680989984422
1772462077023018500,0.2170185546875,-0.0013800561815500258,-0.006704009416978806,0.003908624811097979
1772462077033066500,0.22706640625,-0.05989069733917713,-0.013710408447170629,0.011609116185829042
1772462077043114500,0.237114501953125,-0.08293897997140884,-0.007206835239427164,0.018878778395242986
1772462077053162500,0.24716259765625,-0.025628362253308296,-0.0014088164851535111,0.014097937326878309
1772462077063210500,0.25721044921875,0.014620646026730537,-0.001259114949312061,0.006339596551377326
1772462077073258500,0.267258544921875,-0.028478490987420082,-0.00875397334988229,0.003818955499958247
1772462077083306500,0.277306396484375,-0.02907411879301071,-0.022676828104490412,0.013206760640814899
1772462077093354500,0.2873544921875,-0.006781622964143753,-0.005064233720162883,0.00878141847923398
1772462077103403500,0.297403564453125,-0.030723055043816564,0.013588855293579399,-0.0004945420512929558
1772462077113451500,0.307451416015625,-0.06453764636218548,0.022471332127647473,0.0011490604372695087
1772462077123499500,0.31749951171875,-0.03910276085436344,0.02781684874091297,-0.010025189728941768
1772462077133547500,0.327547607421875,0.0038438159465789793,0.014098028658423571,-0.004438475637789816
1772462077143595500,0.337595458984375,0.010575754550099372,0.0016313275288790464,0.0007592208694666623
1772462077153643500,0.3476435546875,-0.04149813155829906,-0.0064586289543192826,0.013684315024688838
1772462077163691500,0.35769140625,-0.07217208676338195,-0.013210623965179547,0.026610614756308493
1772462077173739500,0.367739501953125,-0.04209259032011032,-0.009565225800685584,0.02552099288869649
1772462077183787500,0.37778759765625,-0.004085808008909226,-0.0014696798269171268,0.010720862109214066
1772462077193835500,0.38783544921875,0.0001052139401435852,-0.006072524846717715,0.01167681112717837
1772462077203884500,0.397884521484375,-0.042991584986448284,-0.0031978187937755135,-0.0024724362618289888
1772462077213932500,0.4079326171875,-0.04732932192981243,0.004291733244014904,0.0019215974460355936
1772462077223980500,0.41798046875,-0.029971359893679616,0.006337358928518369,-0.002574289201106876
1772462077234028500,0.428028564453125,-0.017851298511028287,0.002533089541038498,-0.002579440300259739
1772462077244076500,0.43807666015625,-0.027880525094270706,-0.00012772716605104504,0.004388718211930245
1772462077254124300,0.448124267578125,-0.038511224702000614,0.0021099139592144637,-0.00016695406474173067
1772462077264172500,0.458172607421875,-0.0395575188845396,0.0003316339740063995,0.0009642784548923373
1772462077274220500,0.468220458984375,-0.02070727246403694,0.005786492713261395,0.006090224900189786
1772462077284268500,0.4782685546875,-0.028639234507083892,-0.003914935820875689,0.014740107687935232
1772462077294317600,0.488317626953125,-0.04509703283309936,-0.005889158503292128,0.012265205474384129
1772462077304365300,0.498365234375,-0.04913257195949554,-0.0014798815605230628,0.010749759410135448
1772462077314413600,0.50841357421875,-0.01741115352809429,0.006460711313551292,0.013099135547876357
1772462077324461600,0.518461669921875,-0.012328735697269439,0.005241499116364866,0.004109335014969111
1772462077334509600,0.528509521484375,-0.042855975908041,0.015725054471520707,-0.0037054851881228386
1772462077344557600,0.5385576171875,-0.047343934977054594,0.008922498317202553,0.004555179086327552
1772462077354605300,0.548605224609375,-0.027444471764564514,0.00479741774383001,-0.010631448526401072
1772462077364653600,0.558653564453125,-0.02923895396590233,-0.006144631101703271,-0.0005206994058564305
1772462077374701600,0.56870166015625,-0.03432429440617561,-0.005529631875362247,0.010210665831062941
1772462077384749300,0.578749267578125,-0.028636896419525146,-0.006762333741784096,0.02165226169656962
1772462077394798600,0.588798583984375,-0.023400164809823036,-0.009679609427973628,0.019368936532363296
1772462077404846300,0.598846435546875,-0.01786006633937359,0.0032766561836469915,0.009494425586797297
1772462077414894600,0.60889453125,-0.007982815447449684,-0.0003337072000838816,-0.0030361345591954883
1772462077424942600,0.618942626953125,-0.029676760861277577,0.005466704440675676,-0.016385701204184443
1772462077434990300,0.628990234375,-0.06199497614204883,0.0022970431623049077,-0.0023667291313409803
1772462077445038600,0.63903857421875,-0.04658230295479297,0.0023876714546699077,0.012282923794165252
1772462077455086600,0.649086669921875,0.0008487257838249206,0.007225402942579239,0.017995346624217926
1772462077465134600,0.659134521484375,-0.014267010283470154,0.006934585036151111,0.018418266477715224
1772462077475182600,0.6691826171875,-0.05347264699041843,-0.0007770396539475768,0.00713575189774856
1772462077485231400,0.6792314453125,-0.04150456129908561,-0.008004881148785352,-0.003706763829756528
1772462077495279600,0.689279541015625,-0.018611761489510534,-0.0019424484378192572,-0.001346208710875362
1772462077505327400,0.699327392578125,-0.003796469673514366,-0.009271193023864178,0.0009359108769334852
1772462077515375600,0.709375732421875,-0.026840076130628585,-0.0010510616892017424,0.012475889082998036
1772462077525423600,0.719423583984375,-0.023402502897381782,-0.0007367898419499397,0.017870843461714685
1772462077535471400,0.729471435546875,-0.021909633991122245,0.0010398370422888548,0.02393925838889554
1772462077545519600,0.73951953125,-0.029247721794247627,-0.006212435640906915,0.0028518092345446344
1772462077555567600,0.749567626953125,-0.04600304176211357,-0.011392011969583109,-0.004468450650945305
1772462077565615400,0.759615478515625,-0.04196165741682052,-0.0062973739780019964,-0.004409176478069275
1772462077575663600,0.76966357421875,-0.02670212896466255,0.005149418652430176,0.00021760653974488376
1772462077585712400,0.77971240234375,-0.03224047386944294,0.01789145699148066,-0.0030378150596283376
1772462077595760600,0.7897607421875,-0.050796705779433245,0.015099935709964483,-0.010743457533512264
1772462077605808400,0.799808349609375,-0.032095512440800666,0.0064966685429215425,0.000029956746846437452
1772462077615856400,0.8098564453125,-0.012501169654726982,-0.004773260550107807,0.01633795307232067
1772462077625904600,0.819904541015625,-0.005770400094985962,-0.01758512185551226,0.009070336689520626
1772462077635952400,0.829952392578125,-0.021335633495450017,-0.01706465077851899,0.01392499191276729
1772462077646000400,0.84000048828125,-0.048718145939707753,-0.007774040668131783,0.02119467238849029
1772462077656048600,0.850048583984375,-0.058442252096533774,-0.0009157905375119298,0.0169491072406061
1772462077666096400,0.860096435546875,-0.041673488125205035,0.0010515274800825863,0.017317063770163805
1772462077676144600,0.87014453125,-0.02490706224143505,0.0014277495144866406,0.008513250796031206
1772462077686193400,0.880193359375,-0.016825462594628332,0.0042755858268123115,-0.0029644940950907766
1772462077696241700,0.89024169921875,-0.019821137279272077,0.022037114562001078,-0.02666857375493273
1772462077706289400,0.900289306640625,-0.03957622358500957,0.021240913549857212,-0.006840257816202938
1772462077716337400,0.91033740234375,-0.05124561859071254,0.011436225570645183,0.003153258132841438
1772462077726385700,0.9203857421875,-0.024011574706435203,-0.0027063820150215177,0.00985447280453518
1772462077736433400,0.930433349609375,-0.002616319978237152,-0.015384205144597216,0.013509926572162658
1772462077746481400,0.9404814453125,-0.028209026396274563,-0.018096441511670128,0.006154339644964784
1772462077756529700,0.95052978515625,-0.06277589738667011,-0.017909175311261787,0.0010490523952059448
1772462077766577400,0.960577392578125,-0.015493337208032608,-0.0019276801269501446,-0.005889953087735921
1772462077776625400,0.97062548828125,-0.011901450195908546,0.004633276690682396,0.00475451931701973
1772462077786674400,0.98067431640625,-0.05454056848287582,0.009068482659151778,0.0031161592591553923
1772462077796722400,0.990722412109375,-0.04855214172303676,0.01099699390316382,0.007392886730283498
1772462077806770700,1.000770751953125,-0.029698388171195984,0.016491399201517924,0.0016775778234004973
1772462077816818400,1.010818359375,-0.062166825577616686,0.007052841120958328,-0.005655468478426337
1772462077826866400,1.020866455078125,-0.08744798182845115,0.001630980469007045,0.002466591042932123
1772462077836914400,1.03091455078125,-0.02998480389714241,0.001166121169924736,0.013020060695987193
1772462077846962400,1.04096240234375,0.03510813826024532,-0.00010820961482822894,0.026849044888373464
1772462077857010700,1.0510107421875,0.012363807010650634,-0.0032063034943304956,0.03137450468987226
1772462077867058400,1.061058349609375,-0.041803836506605144,-0.007524011429818346,0.018191983441170304
1772462077877107700,1.071107666015625,-0.043002106380462646,-0.016639018378127365,0.00304492065384984
1772462077887155500,1.081155517578125,-0.02130640740096569,-0.007893630193499849,-0.010952789435256271
1772462077897203500,1.091203369140625,-0.006341477981209755,0.006752141141332686,-0.01153139304080978
1772462077907251700,1.101251708984375,-0.045098201876878734,0.020338557882653548,-0.0034780879067257044
1772462077917299500,1.111299560546875,-0.05542027392685413,0.020747120417235417,0.012919358534179626
1772462077927347500,1.121347412109375,-0.03567044831812381,0.00748596270806156,0.014199297075811773
1772462077937396500,1.131396484375,-0.011430910074710846,-0.0032270631545688955,0.009977423330768943
1772462077947444500,1.141444580078125,-0.027442718198895454,-0.011052678746310994,-0.0018793840058147907
1772462077957492500,1.151492431640625,-0.042405309531092644,-0.0198101592275314,0.0026249051434919235
1772462077967540500,1.16154052734375,-0.017719196563959122,-0.008063086742581799,0.015363847343157976
1772462077977589500,1.171589599609375,-0.02071194863915443,0.00310594839239493,0.019987324159033596
1772462077987637500,1.181637451171875,-0.03313070070743561,-0.0018063461690675465,0.005525960347242653
1772462077997685500,1.191685546875,-0.04554945277571678,-0.004231052565341815,-0.004169047579262406
1772462078007733500,1.2017333984375,-0.04465162715315819,0.0024239300781395286,-0.00773618374262005
1772462078017781500,1.211781494140625,-0.011736030501127242,0.011265590844629332,-0.001775247777905315
1772462078027829800,1.221829833984375,-0.00979249521791935,0.005260477811470627,0.010884272509999572
1772462078037877500,1.23187744140625,-0.051693946880102155,0.010540372709464282,0.009000522856321184
1772462078047925500,1.241925537109375,-0.06710778911113739,0.004632701301947236,0.0166217019171454
1772462078057973500,1.251973388671875,-0.016975684720277787,0.0031034002422820773,0.0041516580530442295
1772462078068021500,1.262021484375,-0.0036591070294380184,-0.013407753972476347,0.007835643795412033
1772462078078070500,1.272070556640625,-0.03537994093894958,-0.013347456886293366,0.007889931265916675
1772462078088118500,1.282118408203125,-0.04226034810245037,-0.006304013781342655,0.014993041269388049
1772462078098166500,1.29216650390625,-0.021011223846673963,0.008366691065346822,0.007531162689812481
1772462078108214500,1.302214599609375,-0.017272037318348882,0.002539838942233473,-0.00017413272419944406
1772462078118262500,1.312262451171875,-0.03926876507103443,-0.003325655557680875,-0.006322718481812626
1772462078128310500,1.322310546875,-0.04166121316552162,-0.007382529733050614,-0.007001805053465068
1772462078138358500,1.332358642578125,-0.023855507361888885,0.0024660156541969624,0.0014720635802485049
1772462078148406500,1.342406494140625,-0.01068389109969139,-0.0030302345413714647,0.008345821807254105
1772462078158454800,1.352454833984375,-0.028193828827142713,0.0009416282316669822,0.021015900021791458
1772462078168503600,1.362503662109375,-0.037321722656488414,-0.005809736591530963,0.02520120461611077
1772462078178551600,1.372551513671875,-0.04660100765526294,0.0043525052542332555,0.004029821771662682
1772462078188599600,1.382599609375,-0.020716624814271927,-0.0004847695759497583,-0.004183715425431728
1772462078198647600,1.3926474609375,-0.037921442115306854,-0.0010041172749362885,-0.0008694032456725836
1772462078208695600,1.402695556640625,-0.03343114495873451,0.0015979732485488056,-0.0002070120804943144
1772462078218743600,1.41274365234375,-0.05019055657982826,0.007381726015452295,-0.0004749605679884553
1772462078228791600,1.42279150390625,-0.02924538370668888,0.005309513718122616,0.004365757461450993
1772462078238839600,1.432839599609375,-0.021467735442519186,0.0026743063763249664,0.0006199402629397809
1772462078248887600,1.442887451171875,-0.0279068285793066,0.0031800365419127046,0.000315367825794965
1772462078258936600,1.4529365234375,-0.034787820264697074,0.0010739676407538353,0.0038370939448475836
1772462078268984600,1.462984619140625,-0.029846856731176374,0.0018178265443071723,0.0015543350362218916
1772462078279032600,1.473032470703125,-0.03478489765524864,0.00468653211472556,0.002953844836913049
1772462078289080600,1.48308056640625,-0.027602877196669578,0.005060872719297185,0.011780472431052475
1772462078299128600,1.493128662109375,-0.020119243443012236,0.005043190932134166,0.006597681231983006
1772462078309176300,1.50317626953125,-0.032683541461825366,-0.005444410410476848,0.00793559703854844
1772462078319224600,1.513224609375,-0.04061374993920326,-0.0023835980677511543,0.0052328043532557785
1772462078329272600,1.5232724609375,-0.03253156577050686,0.0003827065741177648,-0.005591207603178918
1772462078339320600,1.533320556640625,-0.021455460482835767,-0.0014003957166802137,-0.00279635272026062
1772462078349368600,1.54336865234375,-0.03836158709824085,0.012063609354523941,-0.0032961189359426496
1772462078359417300,1.553417236328125,-0.01950783354640007,0.007461476720776408,0.006066131638549268
1772462078369465600,1.563465576171875,-0.02833645216822624,0.004119436283875256,0.010055128209479153
1772462078379513600,1.573513671875,-0.038061142846941946,-0.003984219931112602,0.011746223101578652
1772462078389561600,1.5835615234375,-0.03521393672227859,-0.0026024832491297273,0.012958685897570103
1772462078399609600,1.593609619140625,-0.023398411244153976,-0.005384734378801659,-0.0005558620507828891
1772462078409657600,1.60365771484375,-0.018313070803880692,-0.0025446064488962293,-0.00019464578926563263
1772462078419705600,1.61370556640625,-0.03956102601587772,0.0025795316318050023,0.008828929149080067
1772462078429753600,1.623753662109375,-0.03342179260849953,0.005207158455345779,0.000262103268597275
1772462078439801300,1.63380126953125,-0.022494740402698516,0.006793532597646117,0.012048804511036723
1772462078449849600,1.643849609375,-0.02309504438340664,-0.003600645707314834,0.005076134220510721
1772462078459898400,1.6538984375,-0.03491349247097969,-0.0016010419884696602,0.0008003748637624085
1772462078469946600,1.663946533203125,-0.026979776862263678,-0.00046982773514464495,0.008078804901521653
1772462078479994600,1.67399462890625,-0.02682897021472454,-0.006545823180582374,0.0004985606392845511
1772462078490042400,1.68404248046875,-0.048673722276091576,-0.007520851358352228,-0.003883800897095352
1772462078500090600,1.694090576171875,-0.025778584378957747,-0.009758656880399211,0.012402896912023424
1772462078510138600,1.704138671875,-0.010811901393532752,-0.005431751858303323,0.02372903143800795
1772462078520186600,1.7141865234375,-0.024280454775691032,-0.0008314093228429556,0.009157814043574035
1772462078530234600,1.724234619140625,-0.04598199897408485,0.0040347080093342804,0.006998316188436001
1772462078540282400,1.734282470703125,-0.03834814309477806,-0.003969890011660754,-0.0015279767522588372
1772462078550331600,1.74433154296875,-0.01635141534209251,-0.004558887147065252,-0.011245634901989252
1772462078560379400,1.75437939453125,-0.010220365241169928,0.0013475695508997887,0.0005967603167518973
1772462078570427600,1.764427734375,-0.030125673672556877,0.006544389275321736,0.00719665177213028
1772462078580475600,1.7744755859375,-0.03132394354641437,0.010998025949625298,0.011324928949587046
1772462078590523400,1.7845234375,-0.02459375850856304,0.0016071246693842112,0.006572418926563114
1772462078600571600,1.794571533203125,-0.016516835036873817,-0.008671975888544693,0.0016793131227605044
1772462078610619600,1.80461962890625,-0.031032851645350454,-0.012422496661636978,0.0005899652497842907
1772462078620667400,1.81466748046875,-0.03955985697209835,-0.004161302664224058,0.007115184033755212
1772462078630715600,1.824715576171875,-0.03207505417466163,-0.0022211740476544943,0.013217610828392207
1772462078640764400,1.834764404296875,-0.027283143723011015,0.008074494052585214,0.007199190789088606
1772462078650812700,1.844812744140625,-0.02518763274848461,0.008112798502668737,0.010513576034083962
1772462078660860400,1.8548603515625,-0.03551730358302593,0.0013717176114674656,-0.0002891739386133849
1772462078670908400,1.864908447265625,-0.029532968476414678,-0.0008862995815463364,0.005062178760394454
1772462078680956700,1.874956787109375,-0.030881460475921628,0.003982283702353016,0.0036708522661589083
1772462078691004400,1.88500439453125,-0.03207563869655132,-0.002747252881526947,-0.005185439813882112
1772462078701052400,1.895052490234375,-0.033570261168479915,0.0015290818639565257,0.005964570960216224
1772462078711100700,1.9051005859375,-0.01890343791246414,-0.0018038254184182731,0.005194664299953728
1772462078721148400,1.9151484375,-0.02698503755927086,-0.0038770880285184826,0.0012776369866915047
1772462078731196700,1.92519677734375,-0.03237082225084305,-0.013469010039884596,0.0010205569530837236
1772462078741245400,1.935245361328125,-0.0361111778229475,-0.007655236594052985,0.0075212988829240195
1772462078751293700,1.945293701171875,-0.027736148187518118,-0.0036612441875971853,0.00932520649973303
1772462078761341700,1.955341796875,-0.02429799043238163,0.0059463320506270975,0.005317852288205176
1772462078771389400,1.965389404296875,-0.015770985105633736,0.012081345940614118,0.011961509820073843
1772462078781437700,1.975437744140625,-0.02788870840072632,0.0022015560317318887,-0.003382865637633949
1772462078791485400,1.9854853515625,-0.03477145365178585,-0.0001857135641388595,-0.003276720115728676
1772462078801533400,1.995533447265625,-0.03506780624985695,-0.0017319474922958761,0.0032601891060359775
1772462078811581700,2.005581787109375,-0.018608838880062102,-0.0031432755949441344,0.011016721516940742
1772462078821629400,2.01562939453125,-0.013369184660911559,-0.0039398145338054745,0.011534845373220741
1772462078831678700,2.0256787109375,-0.028783611413836476,0.0102691180200316,0.006372457641363144
1772462078841726500,2.0357265625,-0.028034838873147963,-0.004131053656432777,0.007279032825957983
1772462078851774500,2.0457744140625,-0.025792028382420538,-0.004918039315659552,0.004060490904562175
1772462078861822700,2.05582275390625,-0.026245617368817326,-0.0012474519109819083,0.010211707010678946
1772462078871870500,2.065870361328125,-0.018315408891439438,-0.0025991770471911874,0.017917312951944767
1772462078881918500,2.07591845703125,-0.01577156962752342,-0.004980281763756648,0.003962674819584936
1772462078891966500,2.085966552734375,-0.028936756148934362,0.006312343218270689,0.0022354126355610786
1772462078902014500,2.096014404296875,-0.04360474844872951,0.00886368080205284,0.004801445464976132
1772462078912062700,2.106062744140625,-0.023405425506830214,0.002959123800229281,-0.004207425094582141
1772462078922111500,2.116111572265625,-0.01083119061589241,-0.0017505882606841624,0.002529463678691536
1772462078932159700,2.12615966796875,-0.020559388425946235,-0.005591645994596183,0.013549217402935028
1772462078942206700,2.136206787109375,-0.04076397206485271,-0.00024867753144353625,0.013102368684578687
1772462078952254700,2.146254638671875,-0.036873394367098807,-0.0015397037226706743,0.004637231346592306
1772462078962302700,2.156302734375,-0.01727262184023857,-0.008175543274264781,0.0036645138569176196
1772462078972350700,2.166350830078125,-0.012781740161776542,-0.007608155182469636,0.0026717947588302195
1772462078982398700,2.176398681640625,-0.03537175763249397,-0.008050912247598171,-0.00023623817497864363
1772462078992446700,2.18644677734375,-0.036415129205584526,-0.0011207659245468676,-0.004012578375916928
1772462079002494500,2.196494384765625,-0.032523966985940934,0.0028514165089000014,0.00890497179366648
1772462079012542700,2.206542724609375,-0.028932664495706556,0.008913620891002937,0.0034324404004029926
1772462079022591500,2.216591552734375,-0.03282499575912952,0.00658640178614296,0.002200633583124727
1772462079032639700,2.2266396484375,-0.03836217162013054,-0.00537093418231234,0.008317947419639676
1772462079042687700,2.236687744140625,-0.027885201269388198,-0.007290540600661188,-0.00025974691472947597
1772462079052735500,2.246735595703125,-0.024294483301043508,-0.0018109858115669339,0.00384787106718868
1772462079062783700,2.25678369140625,-0.040157238343358034,-0.004070994032267481,0.00893297404544428
1772462079072831700,2.266831787109375,-0.03072890026271343,-0.0024594215166289356,0.007476601224672049
1772462079082879700,2.276879638671875,-0.032227614387869835,-0.002330516173643991,0.009020542731042951
1772462079092927700,2.286927734375,-0.012328735697269439,0.000914502762723714,0.007761482580658048
1772462079102975500,2.2969755859375,-0.0277414088845253,-0.0029304822276346384,-0.0012678279787302017
1772462079113024800,2.307024658203125,-0.03582534661889076,0.007915266636572778,-0.0030065979374572635
1772462079123072500,2.317072509765625,-0.031337387549877166,0.002444388344278559,0.007312003513798117
1772462079133120800,2.327120849609375,-0.029242461097240446,-0.0022444453253876416,0.01041877389010042
1772462079143168800,2.337168701171875,-0.02400339139997959,-0.0004529953313525766,0.011227313794009387
1772462079153216500,2.347216552734375,-0.03178630036115646,-0.002771693203039467,0.006551230008061975
1772462079163264800,2.3572646484375,-0.0380716642409563,-0.002775035937596112,0.006890015242062508
1772462079173312800,2.367312744140625,-0.03163900084495544,0.00005552957952022552,0.005035710878577083
1772462079183360500,2.377360595703125,-0.03418225558698177,0.0025416381736751642,-0.0023983298460021614
1772462079193409800,2.387409912109375,-0.029244214662909506,0.0059580864205025135,-0.0018164383048191665
1772462079203457500,2.39745751953125,-0.03298983093202114,0.008097180808428674,0.0034299013834446666
1772462079213505800,2.407505859375,-0.03134206372499466,0.0015235380391590296,-0.00622897578375414
1772462079223553500,2.417553466796875,-0.035680385190248486,0.0021537713672500104,-0.009430256043095142
1772462079233601500,2.4276015625,-0.027450901505351066,0.011050075797270983,-0.0012859298910014331
1772462079243649800,2.43764990234375,-0.029250059881806373,0.0029156865173019467,0.004907298725936562
1772462079253697500,2.447697509765625,-0.026857611787319182,-0.003945869815256446,0.0017097447936423123
1772462079263745800,2.457745849609375,-0.027907413101196286,-0.004192264058068394,0.009116787913441657
1772462079273793800,2.467793701171875,-0.03479483452737331,-0.010539304130384697,0.014998338499013334
1772462079283841500,2.477841552734375,-0.02312836213111877,-0.0024226331701967863,0.0070458451245911415
1772462079293890800,2.487890869140625,-0.0334533567905426,-0.004166809956403449,0.009908522813022137
1772462079303938600,2.4979384765625,-0.04003799587786198,-0.0032337668899912386,0.011380586393270642
1772462079313986800,2.50798681640625,-0.03600128770768642,0.007401124835666268,0.003723660165630281
1772462079324034800,2.518034912109375,-0.033009120154380796,0.00512011035955511,-0.004172773906309157
1772462079334082600,2.52808251953125,-0.04408522544205189,0.0002977225712500512,-0.0018484226119704543
1772462079344130800,2.538130859375,-0.02882218985855579,-0.00012559000789187847,-0.008216971263196319
1772462079354178600,2.548178466796875,-0.03450958784520626,-0.002586271899845451,-0.00465082148052752
1772462079364226600,2.5582265625,-0.0268786545753479,-0.0029735359180718657,-0.0022414039849303663
1772462079374274800,2.56827490234375,-0.027481296643614768,0.003251275147218257,0.01498582607731223
1772462079384323600,2.578323486328125,-0.02538987732231617,-0.002772021996602416,0.001545603740494698
1772462079394371800,2.588371826171875,-0.0271878666549921,-0.005486706049088389,0.00015380232222378254
1772462079404419600,2.598419677734375,-0.026142741516232488,-0.002809842389496043,0.009197013542801141
1772462079414467600,2.608467529296875,-0.023446342039108274,0.0021116766580380497,0.00605878858231008
1772462079424515800,2.618515869140625,-0.030926468661427495,0.007781995645724236,-0.0023186704722233113
1772462079434563600,2.6285634765625,-0.03182663237154484,0.004949201638903469,0.0056839091216214
1772462079444611800,2.63861181640625,-0.0393090970814228,0.005354174843756482,0.008245923363044857
1772462079454659600,2.64865966796875,-0.032277883270382876,0.0036353425613604483,-0.00303094692742452
1772462079464708600,2.65870849609375,-0.02315408109426498,0.008040874910773708,-0.005189586266037076
1772462079474756600,2.668756591796875,-0.02435059740245342,0.0008029869459569454,0.00019970555687323212
1772462079484804600,2.6788046875,-0.04020984531342983,0.00547355430657044,0.007267415453400462
1772462079494852900,2.688852783203125,-0.040509705042839045,0.0023436496498528865,0.003767846367228776
1772462079504900600,2.698900634765625,-0.020304536882042885,0.00688617931716144,0.010212602059822528
1772462079514948600,2.708948486328125,-0.016118191108107565,0.00009468341297470032,0.015060462216101586
1772462079524996900,2.718996826171875,-0.03243278157114982,-0.004668466735072434,0.010443835266120732
1772462079535044600,2.729044677734375,-0.03437631685435772,-0.00019920323337428272,0.007806417700927704
1772462079545092600,2.739092529296875,-0.03287701820731163,0.008395661431504413,-0.0007616137559525668
1772462079555141600,2.7491416015625,-0.019559855994582175,0.005678319631051272,0.0031571305903606117
1772462079565189600,2.759189697265625,-0.021955226698517797,0.00028005905039608475,0.004966591165121644
1772462079575237600,2.769237548828125,-0.02435118192434311,-0.004091945488750934,0.00803228061236441
1772462079585285600,2.77928564453125,-0.026896774753928182,0.005914503007102757,0.011999942134320735
1772462079595333600,2.789333740234375,-0.039915830802917475,-0.006540854744520038,0.00933013840317726
1772462079605381600,2.799381591796875,-0.036624972563982006,-0.0030612416009884328,0.00704880426665768
1772462079615429600,2.8094296875,-0.042459085544943806,0.0018691366064362226,-0.0018530805207788944
1772462079625477600,2.8194775390625,-0.029587913534045218,0.0068840512921568,0.007112444087397307
1772462079635525600,2.829525634765625,-0.021658289578557012,0.006728659801045432,0.007738412232324481
1772462079645574700,2.83957470703125,-0.031979192584753034,0.00754263393189758,0.006249580180365592
1772462079655622700,2.84962255859375,-0.034223172119259834,0.01053556867018342,0.005139682709705084
1772462079665670700,2.859670654296875,-0.02269932306408882,0.003444039506651461,0.0025251345634460447
1772462079675719000,2.869718994140625,-0.021051555857062337,0.0043053964431863274,0.009457801637146622
1772462079685766700,2.8797666015625,-0.02389057867527008,0.0036616917121689765,0.006897687091864645
1772462079695814700,2.889814697265625,-0.03271978181898594,-0.001248739685770124,0.0028633170092478392
1772462079705862700,2.899862548828125,-0.03212240044772625,-0.00279257159428671,0.008778258407767862
1772462079715910700,2.90991064453125,-0.030178280642628667,-0.0002514631435740739,-0.0012794270849786698
1772462079725958700,2.919958740234375,-0.026886837881803512,0.008819750328781083,0.0033634850837290283
1772462079736007700,2.930007568359375,-0.03197100927829742,0.0004383000857196748,0.005136029447894543
1772462079746055700,2.9400556640625,-0.04364274237155914,0.0011196608128491788,0.008394501520879566
1772462079756103700,2.950103759765625,-0.03092062344253063,0.0035731001132633536,0.0023340689707547426
1772462079766151700,2.960151611328125,-0.03256605256199836,0.002388831365294754,-0.0025741430706344545
1772462079776199700,2.97019970703125,-0.025534838750958442,0.0052720038524828846,-0.0001318279524333775
1772462079786247700,2.98024755859375,-0.03197393188774585,0.0035414993986021726,0.0019169030046090484
1772462079796295700,2.990295654296875,-0.033169863674044606,0.006710521356156096,0.010484222075436265
1772462079806343700,3.00034375,-0.0387123002320528,-0.0018788451496977358,0.008376490940153598
1772462079816391700,3.0103916015625,-0.024494974309206007,0.006204288867069408,0.004552073813788592
1772462079826440400,3.0204404296875,-0.021945289826393127,0.0026251608718186616,0.004759962677117437
1772462079836488700,3.03048876953125,-0.03047404871881008,-0.00603269515982829,-0.0008951952740550041
1772462079846536700,3.04053662109375,-0.03496259230971336,0.00022846586047671735,-0.006881156082171947
1772462079856584700,3.050584716796875,-0.03361293126642704,-0.003788030638732016,0.007606529480963945
1772462079866632700,3.0606328125,-0.009369301369786262,0.008277807205496356,0.008927530685346572
1772462079876680700,3.0706806640625,-0.024034371060132977,0.010224009369825943,0.013092596209235488
1772462079886728700,3.080728759765625,-0.038251696982979776,-0.0018487879381515085,0.011854414450097828
1772462079896776700,3.090776611328125,-0.03406301312148571,-0.0038008809871505943,0.005822988798748701
1772462079906825700,3.10082568359375,-0.01775368335545063,-0.006483051009522751,0.009728453538380562
1772462079916873700,3.110873779296875,-0.025986089649796484,0.0027531985651236025,0.008936061051674186
1772462079926921700,3.120921630859375,-0.04648410327732563,0.004333243431337177,0.005411101795919239
1772462079936970500,3.130970458984375,-0.029725276178121565,0.005357316648913547,0.006517419070005416
1772462079947018500,3.1410185546875,-0.006531447595357894,0.007810555019928142,-0.0003995755105279386
1772462079957066500,3.15106640625,-0.007882277682423592,0.001710749440640211,0.003211418060865253
1772462079967114500,3.161114501953125,-0.04903320323824882,0.0022804390873759984,-0.0011720029214397072
1772462079977162200,3.171162353515625,-0.06549217060804367,0.004292984486185014,0.0036863603625446554
1772462079987210500,3.18121044921875,-0.0370610258936882,0.0007427994576282799,0.012229202579241245
1772462079997259300,3.19125927734375,0.005133271235227585,0.013869407534319906,0.01050837013600394
1772462080007307500,3.2013076171875,-0.001602174499630928,0.002339539730316028,0.014536091282125562
1772462080017355500,3.21135546875,-0.030029812082648277,-0.008379514014301821,0.019022899573668837
1772462080027403300,3.2214033203125,-0.05531856711804867,0.0021084709207993,0.013776176292914897
1772462080037451500,3.231451416015625,-0.03242342922091484,0.004609530488913879,0.0042214901525527235
1772462080047499500,3.24149951171875,-0.017754267877340316,0.002063828061474487,-0.00805104011176154
1772462080057547300,3.25154736328125,-0.028530513435602187,0.002051617033872753,-0.0015428820604458451
1772462080067595500,3.261595458984375,-0.0316711495488882,0.008808370418241247,0.003413662634696811
1772462080077644300,3.271644287109375,-0.03855331027805805,0.005995596286142244,0.007361852271202951
1772462080087692500,3.281692626953125,-0.03136778268814087,0.00938400574857369,-0.0010947181678377092
1772462080097740300,3.291740234375,-0.03196691762506962,0.008446660966379568,0.003969853479042649
1772462080107788300,3.301788330078125,-0.03196691762506962,0.01000274956827052,0.00503772017257288
1772462080117836500,3.31183642578125,-0.027481296643614768,0.003345666299248114,-0.0011926073180511592
1772462080127884300,3.32188427734375,-0.016107669714093206,-0.0011558281047735362,0.00691966146165505
1772462080137932500,3.3319326171875,-0.014164718952775001,-0.004636592025775462,0.018541911123692988
1772462080147980500,3.34198046875,-0.03107318365573883,0.003051195131009444,0.013940774003788828
1772462080158028300,3.3520283203125,-0.042591772013902664,0.004679380854731426,0.009515632771607488
1772462080168077600,3.36207763671875,-0.032115386185050006,0.002347184180654585,-0.0003212313110008836
1772462080178125300,3.372125244140625,-0.02208323699235916,-0.0011249306430108845,-0.008543773798458278
1772462080188173600,3.382173583984375,-0.013255202892422675,0.000977475863182917,0.005747238415107131
1772462080198221600,3.3922216796875,-0.021485855621099472,0.00633102051927708,0.008776998032443225
1772462080208269300,3.402269287109375,-0.03181260384619236,-0.0016213267246726899,0.006368877444788814
1772462080218317600,3.412317626953125,-0.032408816173672673,0.005320016845827922,-0.00037206644909456373
1772462080228365300,3.422365234375,-0.027321137645840644,0.0008777966146823018,0.00406984325479716
1772462080238413300,3.432413330078125,-0.02074000568985939,-0.0005038852683734149,-0.0011770809553563594
1772462080248462300,3.44246240234375,-0.028069910186529157,0.0024416575310751793,0.011297858279570937
1772462080258510300,3.45251025390625,-0.03614858722388744,0.008021192962769418,0.014927410420961677
1772462080268558600,3.46255859375,-0.03150982150733471,0.004493795154755935,0.003965451298560947
1772462080278606300,3.4726064453125,-0.022231121030449864,0.007072733131516724,0.0032211357372812924
1772462080288654300,3.482654296875,-0.02133037279844284,0.009577939151786266,0.0022684563886374233
1772462080298702600,3.49270263671875,-0.020730653339624403,0.012744275961909442,0.008742036316916346
1772462080308750300,3.502750244140625,-0.02940612722635269,0.004370780696440488,0.014261475591827184
1772462080318798300,3.51279833984375,-0.03763327282369137,-0.003170291466033086,0.010444620717409998
1772462080328846300,3.522846435546875,-0.028354572346806526,-0.0064032911710441105,0.009263685570843517
1772462080338895400,3.532895263671875,-0.03852876035869121,-0.0001585789620410651,0.005197294648457318
1772462080348943400,3.542943359375,-0.03433715388774872,0.002355495351273566,0.0039104331756941975
1772462080358991400,3.552991455078125,-0.01742693561911583,0.004831794937467202,0.0027774653567001224
1772462080369039600,3.56303955078125,-0.021166706669330595,0.01621418969533406,0.0053602301252074535
1772462080379087400,3.57308740234375,-0.014134908336400985,0.014184090373525395,0.003944335445296019
1772462080389135400,3.58313525390625,-0.03792845637798309,0.0037378622209187596,0.00730270596249029
1772462080399183600,3.59318359375,-0.049753334206342696,-0.005505703010503202,0.010738288168050348
1772462080409231400,3.6032314453125,-0.037784079471230504,0.0019064455426763742,0.003158409231994301
1772462080419280600,3.61328076171875,-0.01997837366759777,0.00589248297153972,0.007738722759578377
1772462080429328400,3.623328369140625,-0.022521628409624097,0.004399677997361869,0.015082747113145887
1772462080439376400,3.63337646484375,-0.040483986079692835,0.005601610266184434,0.006209978822339326
1772462080449424400,3.64342431640625,-0.04616904597878456,-0.00737768002799712,0.003414119292423129
1772462080459472400,3.653472412109375,-0.03030512189269066,-0.0071863039080519225,0.004215425737947225
1772462080469520400,3.663520263671875,-0.02267185053527355,-0.007857271105330438,-0.013268153705541044
1772462080479568400,3.673568359375,-0.03823416132628917,0.003918607348995283,-0.0013908150375820695
1772462080489616400,3.683616455078125,-0.03479834165871143,0.012935186290973797,0.004195570260006934
1772462080499664400,3.693664306640625,-0.022377836024761198,0.0010360285168513656,-0.0015112630794756113
1772462080509713400,3.70371337890625,-0.009659808748960495,0.0013732976472005248,0.001902710082475096
1772462080519761400,3.713761474609375,-0.0304600201934576,-0.004094694568263366,0.001021598132699728
1772462080529809400,3.723809326171875,-0.033605332481861115,0.002662424142286181,-0.0011768800259567796
1772462080539857400,3.733857421875,-0.04003858039975166,0.00005306362779811024,0.003975990958884358
1772462080549905700,3.74390576171875,-0.03315525062680244,-0.00017841617367230354,0.003996412692405283
1772462080559953400,3.753953369140625,-0.019237784433364866,0.005561086459551006,0.0011659202405251562
1772462080570001400,3.76400146484375,-0.021187164935469627,0.002269506701407954,-0.003565729657560587
1772462080580049400,3.77404931640625,-0.022982816180586813,-0.005512105351826176,0.004209470921196043
1772462080590098400,3.784098388671875,-0.03315934228003025,-0.0045710068431217225,0.00659183601308614
1772462080600146400,3.794146484375,-0.038244682720303534,0.0036801406843122095,0.016359306387603283
1772462080610194400,3.8041943359375,-0.025079496198892593,0.003539389639906585,0.007711195431835949
1772462080620242400,3.814242431640625,-0.029869068562984463,-0.005669113411288708,-0.002922993040923029
1772462080630290400,3.82429052734375,-0.029569793355464932,-0.0010577106256969273,-0.005727382937166839
1772462080640338400,3.83433837890625,-0.03226677735447883,0.0010658391332253813,-0.002849726875312626
1772462080650386400,3.844386474609375,-0.026730186015367505,0.0007885017628781497,0.008182868064194918
1772462080660434400,3.854434326171875,-0.02029343096613884,0.0049393652314785865,0.012282047011330724
1772462080670483500,3.8644833984375,-0.023736849418282507,0.003265175808407366,0.008036956787481904
1772462080680531500,3.874531494140625,-0.029869653084874152,0.0011875840830616652,0.00018392346585169433
1772462080690579500,3.884579345703125,-0.02523380997776985,-0.007055170075362548,-0.00037513518901541825
1772462080700627200,3.894627197265625,-0.0198462717205286,-0.004024296213174239,-0.00453430069508031
1772462080710675500,3.904675537109375,-0.028524083694815634,-0.0012785959679167717,0.006249854175001382
1772462080720723500,3.914723388671875,-0.04722936868667602,0.007992505724402145,0.009665105978585779
1772462080730771200,3.924771240234375,-0.04558277052342891,0.013404785697255282,0.014648520414344966
1772462080740819500,3.9348193359375,-0.04109364241063595,0.006888681801501661,0.003685958503745496
1772462080750867500,3.944867431640625,-0.017302432456612588,0.0032165508937090632,0.00007189619243144989
1772462080760916500,3.95491650390625,-0.01580956355035305,-0.00834926500651054,-0.006593096388410776
1772462080770964500,3.964964599609375,-0.032721535384655,-0.0053515901610255235,0.003841971049364656
1772462080781012500,3.975012451171875,-0.03257014421522617,-0.005209076417796313,0.00658009077636525
1772462080791060500,3.985060546875,-0.02254384024143219,0.00015950141064822673,0.00250916980933398
1772462080801108500,3.9951083984375,-0.03451309497654438,0.002056421073153615,0.00659048430621624
1772462080811156500,4.005156494140625,-0.037058687806129455,0.0006751958478242159,0.0054736273718066514
1772462080821204500,4.01520458984375,-0.03256839064955711,0.0012433602577541023,0.002907028286810964
1772462080831252200,4.025252197265625,-0.03197042475640774,0.010710952636552975,0.005900218753423541
1772462080841301500,4.035301513671875,-0.03840016554296016,0.00882233501151204,-0.006340765595156699
1772462080851349200,4.045349365234375,-0.03675473642349243,0.007968019737116992,0.0030821291253902016
1772462080861397500,4.0553974609375,-0.028375030612945554,0.0010297814391553401,-0.0020175138348713516
1772462080871445500,4.065445556640625,-0.010866846451163292,-0.0016900537124834953,0.007364482619706541
1772462080881493200,4.0754931640625,-0.01819558190405369,-0.012393645026488228,0.008650832635816187
1772462080891541500,4.08554150390625,-0.038244682720303534,-0.011100280747702345,0.0079687503894791
1772462080901589500,4.095589599609375,-0.03599953414201736,-0.002376939998101443,-0.0027670352942310273
1772462080911637200,4.10563720703125,-0.024176994401216505,-0.0037571605764329433,0.0006194470725953579
1772462080921686500,4.1156865234375,-0.027771219500899315,0.0013124525717459617,0.0020449132984504104
1772462080931734300,4.125734375,-0.028222470399737357,0.013506620370224117,0.007665584458131342
1772462080941782000,4.135781982421875,-0.034956747090816497,0.006621957156714052,0.011403967268858103
1772462080951830000,4.145830078125,-0.033760230782628055,0.004250679714418948,-0.0008956701980903744
1772462080961878000,4.1558779296875,-0.026432664373517035,0.00596623319434002,0.001310699006076902
1772462080971926000,4.165926025390625,-0.026885084316134452,0.0031986407776828855,0.010738014173414558
1772462080981973800,4.175973876953125,-0.023144728744029997,0.004716698924126103,0.008773911026213317
1772462080992022000,4.18602197265625,-0.03257365134656429,-0.0023588837516028433,-0.003876987563818693
1772462081002070800,4.19607080078125,-0.02584112822115421,0.00035760866547934707,-0.0027140447316691277
1772462081012119000,4.206119140625,-0.025693244183063506,-0.0017370072599034755,0.01098652730807662
1772462081022167000,4.2161669921875,-0.03347498410046101,0.004380589704401791,0.009015300300344824
1772462081032215000,4.226215087890625,-0.020908347994089124,0.005868353177281096,0.009805500829964876
1772462081042263000,4.236262939453125,-0.028238252490758894,0.007695395074505358,0.008815539944544435
1772462081052311000,4.24631103515625,-0.03586801671683788,0.004308309919480234,0.011228026180062443
1772462081062359000,4.256359130859375,-0.04289630791842937,0.0032937351826112715,-0.0013716536793857812
1772462081072407000,4.266406982421875,-0.028979426246881483,0.006163682862045243,0.006303356194216758
1772462081082455000,4.276455078125,-0.030624270844459532,-0.007175362388929352,0.0009386690896004438
1772462081092504000,4.286504150390625,-0.033767829567193985,0.0002557831256650388,0.004936689217202365
1772462081102552000,4.296552001953125,-0.03272095086276531,0.002217822179943323,0.011800583637319504
1772462081112600000,4.30660009765625,-0.031226328390836715,0.0033906105526722964,0.01083597638886422
1772462081122648000,4.31664794921875,-0.022401801422238347,0.0044941239483188835,0.0015799626678228377
1772462081132695800,4.32669580078125,-0.021653028881549834,-0.003956619538133963,0.007850658701453357
1772462081142744000,4.336744140625,-0.020158406409621236,0.00023067608387209473,-0.0017922354453243313
1772462081152792000,4.3467919921875,-0.015969138026237485,0.005231388714304194,0.00778566717384383
1772462081162839800,4.35683984375,-0.01821545564830303,0.0041269620032049715,0.01315126759391278
1772462081172889000,4.36688916015625,-0.025697920358180998,0.004993780566146597,-0.0033367980062030253
1772462081182936800,4.376936767578125,-0.03482406062185764,-0.005950359771773219,0.0017540953920222818
1772462081192985000,4.386985107421875,-0.04185702799856662,-0.0034942901228554543,0.006048267188295721
1772462081203033000,4.397033203125,-0.02838964366018772,-0.005629457254335284,0.0064919558351859445
1772462081213081000,4.4070810546875,-0.00040799627900123595,-0.0008780158103909343,-0.004908595633879304
1772462081223129000,4.417129150390625,-0.012075637719035148,0.006201740716956556,0.002277918336726725
1772462081233176800,4.4271767578125,-0.04529635479748249,0.004183249634550884,0.004905417296104133
1772462081243225000,4.43722509765625,-0.05367547608613968,0.011411383390333502,0.007871317896991968
1772462081253273900,4.44727392578125,-0.042456162935495374,0.003834436196880415,0.00698156598303467
1772462081263322000,4.457322021484375,-0.020163667106628418,-0.006441504289582371,0.0031768216715194284
1772462081273370000,4.4673701171875,-0.020314473754167554,-0.001529474589601159,-0.0019099618071690202
1772462081283417900,4.47741796875,-0.041565351575613016,0.003090970018971711,0.005936185115948319
1772462081293466000,4.487466064453125,-0.041564182531833645,0.006939078548178076,0.007212214667443186
1772462081303514000,4.49751416015625,-0.023010873231291768,-0.00046624753857031463,0.002837817241810262
1772462081313561900,4.507561767578125,-0.019568623822927473,-0.005484112233202904,0.003578570872824639
1772462081323610000,4.517610107421875,-0.02570435009896755,0.0014591401665937154,0.006073730423115193
1772462081333659000,4.527658935546875,-0.023908698853850364,-0.00041673670788295567,0.005880710335355251
1772462081343707100,4.53770703125,-0.03288520151376724,0.007030885017476975,0.009373466088250279
1772462081353755000,4.5477548828125,-0.02390577624440193,0.003820718198781833,-0.004360770759079605
1772462081363803000,4.557802978515625,-0.029739304703474044,0.009699483172222972,0.0030679727358743545
1772462081373851100,4.56785107421875,-0.021657705056667326,-0.00311458835657686,0.0030730142371729013
1772462081383899000,4.57789892578125,-0.036920156118273734,-0.013584690575115382,0.0019563582321628927
1772462081393947000,4.58794677734375,-0.027341595911979672,0.00538595822150819,0.019058372745849192
1772462081403995100,4.5979951171875,-0.029586744490265843,0.0044795839663129295,0.004975925249047577
1772462081414044000,4.6080439453125,-0.025398645150661467,0.007815322526590899,0.004162727436330169
1772462081424092200,4.618092041015625,-0.029288053804636,0.0001994589617010206,0.004167111350502819
1772462081434140000,4.628139892578125,-0.02943886045217514,-0.0009233893220778554,0.006192479698266834
1772462081444188200,4.638188232421875,-0.028691841477155682,0.005904639200214296,0.0022471578722819685
1772462081454236000,4.64823583984375,-0.02135784532725811,0.0009650639061816037,-0.0011433430825360119
1772462081464284000,4.658283935546875,-0.028390228182077405,-0.00011769896238110959,0.005069320887234062
1772462081474332200,4.668332275390625,-0.039760932502150535,-0.000544290343998,0.0006354666256345808
1772462081484380000,4.6783798828125,-0.022704583761096,-0.0051186216553673145,-0.0012199337163940071
1772462081494429200,4.68842919921875,-0.018964228188991544,-0.0023250636803917586,-0.004487411079742014
1772462081504477000,4.698476806640625,-0.0385685078471899,0.008397287133010104,0.004547799497470259
1772462081514525000,4.70852490234375,-0.03482464514374733,0.0011515811879187821,-0.005232603423856198
1772462081524573200,4.7185732421875,-0.023598317730426786,-0.007436735005164519,0.004750628593191504
1772462081534621000,4.728620849609375,-0.02868599625825882,-0.0024881361544597893,0.009083762426674365
1772462081544669000,4.7386689453125,-0.03018295681774616,-0.0004772895223926753,0.009088566465955227
1772462081554717200,4.74871728515625,-0.029285131195187566,-0.0011680756649933754,0.007607753323670476
1772462081564765000,4.758764892578125,-0.03302431772351265,-0.004885187358828261,0.001005889106914401
1772462081574813000,4.76881298828125,-0.02225274834036827,-0.002828236562712118,0.005137472486309707
1772462081584862000,4.778862060546875,-0.029587913534045218,0.0009200283212121576,0.00001324307406321168
1772462081594910000,4.788909912109375,-0.02600070269703865,-0.0012890625630039721,-0.00028314605662599205
1772462081604958000,4.7989580078125,-0.036927170380949975,0.0053602666578255595,0.0026277912203222513
1772462081615006000,4.809005859375,-0.03707973059415817,0.005090455006808043,0.007482592574041337
1772462081625054200,4.81905419921875,-0.02301438036262989,-0.0034095344488508997,0.009407368357852101
1772462081635102000,4.82910205078125,-0.021513912671804428,-0.0008959624590352178,0.005956789512559771
1772462081645150000,4.83914990234375,-0.0331873993307352,0.004405678479885682,0.007857161507476122
1772462081655198200,4.8491982421875,-0.030199323430657385,-0.0005658628549892455,0.010724369240552187
1772462081665247000,4.8592470703125,-0.01898059480190277,0.005497656701365486,0.010163429155852645
1772462081675295200,4.869295166015625,-0.024065935242176054,-0.0018513726208824663,0.0023651764950715004
1772462081685343000,4.879343017578125,-0.04531447497606277,-0.008718454511929303,0.0009706351304426789
1772462081695391000,4.889390869140625,-0.044565117913484574,0.00796419294537045,0.0080153294775635
1772462081705439000,4.89943896484375,-0.030651743373274802,0.010625228848168626,0.005511036772746593
1772462081715487000,4.909487060546875,-0.01613631128668785,0.0057050980401225386,-0.0032906573095358906
1772462081725535000,4.919534912109375,-0.017336334726214406,0.00851952527319081,-0.008805292545165867
1772462081735583000,4.9295830078125,-0.030208091259002683,-0.0038454781807027755,0.002445182928722352
1772462081745632000,4.939632080078125,-0.03603986615240574,0.0028858667677734047,0.0022755254502408204
1772462081755680000,4.949679931640625,-0.030353637209534642,-0.0028662578850053248,0.006448701215349137
1772462081765728000,4.95972802734375,-0.02855564787685871,0.002375442160759121,0.007048073614295572
1772462081775776000,4.96977587890625,-0.03124970926642418,0.013150701338332146,0.009916541722696274
1772462081785824000,4.979823974609375,-0.02990063274502754,0.004396700588986277,0.0056340968968346715
1772462081795872000,4.9898720703125,-0.033791794964671135,0.004662804179266095,-0.0009404774541966616
1772462081805920000,4.999919921875,-0.02780921342372894,0.010369765382912009,-0.0026743885747157036
1772462081815968000,5.009968017578125,-0.032899230039119716,0.0028762860886752603,0.008617569687031208
1772462081826017000,5.02001708984375,-0.039784897899627684,0.005506369730783626,-0.002963270252384245
1772462081836065000,5.03006494140625,-0.040831776604056354,0.003229410375282168,0.002887118009943515
1772462081846113000,5.040113037109375,-0.01988426564335823,0.0026153975296299902,0.0043097164252772924
1772462081856161000,5.0501611328125,-0.022578327032923697,-0.00023242051638662815,0.008473028383497148
1772462081866209000,5.060208984375,-0.04442191005051136,0.004126231350842863,0.0009697035486809909
1772462081876257000,5.070257080078125,-0.04621756129562855,0.0033978531442116944,0.0026323029986582694
1772462081886305000,5.080304931640625,-0.01644143171310425,-0.00031206162385642527,0.005211085711792111
1772462081896353000,5.09035302734375,-0.0067155719906091685,0.00610155914495699,0.004288363109994679
1772462081906402000,5.100402099609375,-0.04607259986698627,0.004156160698225721,0.009095489397086202
1772462081916450000,5.110449951171875,-0.042031800043582916,0.0054516712683252986,0.0008624985808506607
1772462081926498000,5.120498046875,-0.018539280775189397,0.002646806448046118,-0.001539849853143096
1772462081936546000,5.130546142578125,-0.007319383102655411,-0.0023536687203682956,-0.006401245344430208
1772462081946594000,5.140593994140625,-0.034553426986932756,0.004144735121913254,-0.0009313442996703088
1772462081956641800,5.150641845703125,-0.053107905331254,0.0017974322102498263,-0.002988605623040348
1772462081966690000,5.16068994140625,-0.02706979323327541,-0.0009945091963745652,0.0030038579910993575
1772462081976738000,5.170738037109375,-0.004320201286673545,0.0023547098999843,0.005518690356239676
1772462081986787000,5.180787109375,-0.026614450681209562,-0.010080417914362623,0.004393156925030052
1772462081996835000,5.1908349609375,-0.04022913453578949,-0.0009776128605008124,0.000563132041785866
1772462082006882800,5.2008828125,-0.03334755832850933,-0.003088823727658018,-0.003675784169603139
1772462082016931000,5.21093115234375,-0.018083353701233863,0.0003049834290985018,-0.0020216785533353687
1772462082026979000,5.22097900390625,-0.018685411247611045,0.0025393548850435764,0.007578326299786567
1772462082037027000,5.231027099609375,-0.028258710756897926,-0.00046843036250211295,0.0008211253908462822
1772462082047075000,5.241074951171875,-0.0393354005664587,0.0031920375069603322,0.00386562591958791
1772462082057123000,5.251123046875,-0.03305120573043823,0.001827142361924052,0.003544029282405972
1772462082067172000,5.261172119140625,-0.02063186914026737,0.004645076726330444,0.005758362597320228
1772462082077219800,5.2712197265625,-0.019583821392059324,-0.0075405150400474664,0.0039531763388775286
1772462082087268000,5.28126806640625,-0.030810148805379866,0.0017312077067792415,-0.0036080526956357058
1772462082097316000,5.291316162109375,-0.03485504028201103,-0.005999021219089627,0.0056242513562552625
1772462082107363800,5.30136376953125,-0.037246319332718845,0.0019419369811657814,0.011421996115893125
1772462082117412000,5.311412109375,-0.027072715842723846,-0.006544407541630789,0.00299476136919111
1772462082127460000,5.321460205078125,-0.02079261265993118,0.003787153855897486,0.0028739297348074613
1772462082137507800,5.3315078125,-0.030818916633725164,0.01097465420719236,0.0022483451823703945
1772462082147557000,5.34155712890625,-0.03201251033246517,0.001925415104627609,0.0007178659457713365
1772462082157604900,5.35160498046875,-0.029317864421010014,-0.0016435842222534119,0.007884597503673286
1772462082167653000,5.361653076171875,-0.0278197348177433,-0.0017965097616426645,0.0010103460863232611
1772462082177701000,5.371701171875,-0.023624621215462684,-0.0005789415322709828,0.005645020149648189
1772462082187748900,5.381748779296875,-0.03499707910120487,0.0027924071975052355,0.005067329859547317
1772462082197797000,5.391797119140625,-0.029908231529593467,-0.00025810294691473246,0.008795921928621829
1772462082207844900,5.401844970703125,-0.021680501410365104,0.009008002909878268,-0.00026889833556488155
1772462082217892900,5.411892822265625,-0.01733925733566284,0.00341767208953388,-0.0006740998692810536
1772462082227942000,5.42194189453125,-0.024522446838021277,0.005637275234609842,0.005290087498445064
1772462082237990000,5.431989990234375,-0.03963526029586792,-0.0025257647511083632,0.002285133528802544
1772462082248038100,5.4420380859375,-0.036188919234275814,-0.0008697959713172167,0.006191621181741357
1772462082258086000,5.4520859375,-0.018678981506824493,-0.0007423154004383832,0.003871197143848985
1772462082268134100,5.462134033203125,-0.014639935249090194,0.005837072123028338,0.0036726423644460734
1772462082278182100,5.47218212890625,-0.021527941197156904,0.005863466939609497,-0.0009749642456881702
1772462082288230000,5.48222998046875,-0.05265431634485721,0.0009851020472124218,0.002875756365712732
1772462082298278100,5.492278076171875,-0.048614101043343544,-0.0014908413459546863,0.0037509317650459705
1772462082308327000,5.502326904296875,-0.02362169860601425,0.004575911347102374,0.004122760752122849
1772462082318375200,5.512375244140625,-0.021826047360897063,-0.0028513617099728433,0.002443995618633926
1772462082328423000,5.5224228515625,-0.0260159002661705,-0.0007146328090690076,-0.0022270466660149393
1772462082338471000,5.532470947265625,-0.037839024528861044,-0.0005024696294218302,0.01638149995310232
1772462082348519200,5.542519287109375,-0.03199614371955395,-0.00006532032117247581,0.0074479596520774065
1772462082358567000,5.55256689453125,-0.018676058897376058,-0.0052307767929509275,0.0060573272775858635
1772462082368615000,5.562614990234375,-0.01343757372200489,0.00025674210689030587,-0.0024486535274423657
1772462082378663200,5.5726630859375,-0.03887713540494442,-0.0057811498178634785,-0.0017469532651826739
1772462082388712000,5.5827119140625,-0.0466594598442316,0.002998770824028179,-0.003456515395734459
1772462082398760200,5.59276025390625,-0.026906711626052855,0.00523916102880612,0.008230031674169004
1772462082408808000,5.602807861328125,-0.03274140912890434,-0.0010470431012101471,0.008277012621052562
1772462082418856000,5.61285595703125,-0.02511222942471504,-0.007765574233885854,0.00665489131193608
1772462082428904000,5.622904052734375,-0.016733108136057852,-0.004254944897582754,0.002609360514488071
1772462082438952000,5.632951904296875,-0.01194528933763504,-0.0005773888960015029,0.0041112529774196445
1772462082449000200,5.643000244140625,-0.03214987297654152,0.0024787107389885933,-0.0037628048659302292
1772462082459048000,5.6530478515625,-0.04052548713386059,0.004765661765541881,-0.0046627859129570425
1772462082469097000,5.663096923828125,-0.029150106638669966,0.002854768376611173,-0.0005521905226632953
1772462082479145000,5.67314501953125,-0.016732523614168167,0.0033122115542180836,-0.0022680362635292112
1772462082489193000,5.68319287109375,-0.03333937502205372,0.008292584649519994,0.004382854726724326
1772462082499241200,5.6932412109375,-0.05503507400155067,-0.0025418299699202177,0.005619063724484294
1772462082509289000,5.7032890625,-0.027202479702234265,-0.004456796745769679,0.00023631124021485447
1772462082519337000,5.7133369140625,-0.010746434941887855,-0.0057113633841276166,-0.0010684329491108654
1772462082529385200,5.72338525390625,-0.020469956576824187,-0.0008022380272857845,0.0066539779964834445
1772462082539433000,5.733432861328125,-0.037078561550378794,0.0008944280890747905,0.005314418222103268
1772462082549482000,5.74348193359375,-0.03004793226122856,0.0005059584944508969,0.004643240962270647
1772462082559530000,5.753530029296875,-0.01927519383430481,0.0015919910323340446,-0.00031233561849221584
1772462082569578000,5.763577880859375,-0.03364040379524231,-0.000198563912557438,0.006966149218194186
1772462082579626000,5.7736259765625,-0.0284036721855402,0.008100943668093531,-0.009041220192890614
1772462082589674000,5.783674072265625,-0.022416998991370198,0.003195836899243295,-0.008746274100616574
1772462082599722000,5.793721923828125,-0.03079261314868927,-0.0033748923937324433,-0.0002702683087438345
1772462082609770000,5.80377001953125,-0.03976794676482677,-0.00012995565575547516,0.006154102182947099
1772462082619818000,5.81381787109375,-0.033331776237487794,-0.002578353454871103,0.011197484911326319
1772462082629867000,5.823866943359375,-0.020465280401706695,-0.004655351525172591,0.014413579147309064
1772462082639915000,5.8339150390625,-0.02570259653329849,-0.008607404486043378,0.00815629058452323
1772462082649963000,5.843962890625,-0.030490415331721303,0.002365843215351924,0.011881686049513519
1772462082660011000,5.854010986328125,-0.026301146948337552,0.0015200583072844892,-0.003384381741285324
1772462082670059000,5.86405908203125,-0.027348025652766225,0.0006139032477978616,-0.0027632176356390116
1772462082680107000,5.87410693359375,-0.03288637055754661,0.0024836335092782973,-0.0028020883413031696
1772462082690155000,5.884155029296875,-0.030489830809831617,0.004276261680247262,0.002207958373054862
1772462082700203000,5.894203125,-0.032736732953786846,0.005406708748592064,0.0035182555203326043
1772462082710252000,5.904251953125,-0.021364859589934348,-0.0001495645385235548,0.002726575419679284
1772462082720300000,5.914300048828125,-0.012836685219407082,0.0025596578875556586,-0.0038898653117008506
1772462082730348000,5.92434814453125,-0.022860651105642317,-0.004849275795230642,0.0033800526260398325
1772462082740396000,5.93439599609375,-0.018068740653991697,-0.0020575718506239352,0.011564181065559386
1772462082750444000,5.944444091796875,-0.029143676897883414,-0.000265519068390131,0.003883508636150509
1772462082760492000,5.954491943359375,-0.04724748886525631,-0.0018283479383215306,0.005740315483976155
1772462082770540000,5.9645400390625,-0.0393137732565403,-0.0003094952074345201,0.004005052656587213
1772462082780589000,5.974589111328125,-0.022407646641135214,0.0010388871942181139,0.0017103658481501041
1772462082790637000,5.984636962890625,-0.022106033346056937,0.0021142796070780603,0.001038731930591166
1772462082800685000,5.99468505859375,-0.02015957545340061,0.005118977848393842,0.0005004603354260325
1772462082810733000,6.004733154296875,-0.02988894230723381,-0.004692349934158847,0.0026513547590002414
1772462082820781000,6.014781005859375,-0.0337801045268774,-0.00031086518061347303,0.0011612805980257689
1772462082830828800,6.024828857421875,-0.039622985336184496,-0.002285708917537704,-0.003850026491656899
1772462082840877000,6.034876953125,-0.028855507606267927,0.00005986782792024314,0.001591561774071306
1772462082850925000,6.044925048828125,-0.018833879807591436,0.002866157420305535,0.0021856552097015082
1772462082860974000,6.05497412109375,-0.025267712247371673,0.0009218458189629017,0.0049558505753986536
1772462082871022000,6.06502197265625,-0.030803134542703628,0.005111424729600548,0.003805237501859665
1772462082881069800,6.07506982421875,-0.02422200258672237,0.008288776124082506,0.0025171339200809597
1772462082891118000,6.0851181640625,-0.018089783442020415,-0.0007666004583239555,0.0007904014590196312
1772462082901166000,6.095166015625,-0.02347439908981323,0.00018314714771695435,-0.0012135770408436654
1772462082911214000,6.105214111328125,-0.03694645960330963,0.006775101891811936,0.007300495739094913
1772462082921262000,6.115261962890625,-0.042486558073759076,-0.0003139339205343276,0.004821794133260846
1772462082931309800,6.125309814453125,-0.030216274565458296,0.004626536422641948,0.003919529797602445
1772462082941358800,6.13535888671875,-0.031111762100458143,-0.0053904334672261025,0.0016146321224048733
1772462082951406800,6.14540673828125,-0.03126023066043854,-0.0029681656232103705,-0.006107614426407963
1772462082961454800,6.155454833984375,-0.028265140497684478,-0.0013871526426170021,-0.0027721133281476793
1772462082971503000,6.165503173828125,-0.025128596037626266,0.004016030708327889,-0.0023578334388323127
1772462082981550800,6.17555078125,-0.01300795013308525,0.017108919178508222,-0.0020996026277542114
1772462082991598800,6.185598876953125,-0.02437865445315838,0.0033085491592530158,0.012169398683402687
1772462083001647000,6.195647216796875,-0.030512627163529395,0.004876456063101068,0.0036994573061354457
1772462083011694800,6.20569482421875,-0.02482464465498924,-0.004673919228324666,0.0052822329855524
1772462083021744000,6.215744140625,-0.031709727993607516,-0.006661092723859474,-0.0019337080089375375
1772462083031791900,6.2257919921875,-0.037841947138309476,-0.005897049548802897,-0.0045148653422482305
1772462083041839900,6.23583984375,-0.025121581774950025,0.0033888752533122895,0.0024102394795045257
1772462083051887900,6.245887939453125,-0.02467266896367073,-0.0021894728682935235,0.0005013188519515097
1772462083061935900,6.255935791015625,-0.03215279558598995,-0.0026191786556039004,0.005823682918492704
1772462083071983900,6.26598388671875,-0.027365561309456825,0.006210015354957431,0.01226575346365571
1772462083082031900,6.276031982421875,-0.02512567342817783,-0.004100530654005706,0.0012334325187839568
1772462083092079900,6.286079833984375,-0.025126842471957206,-0.0008811576155479996,-0.009568805997259915
1772462083102129000,6.29612890625,-0.018691256466507912,0.001039563047653064,0.004597191597148776
1772462083112177000,6.306177001953125,-0.027518706044554708,0.002136756300367415,0.008195435284823178
1772462083122225000,6.316224853515625,-0.03544949904382229,0.0059219830606598405,0.006410542895738035
1772462083132273000,6.32627294921875,-0.030962709018588063,0.002229914476536214,0.0012479177018627525
1772462083142321000,6.33632080078125,-0.014349427869915962,-0.0032379864073824134,0.0060000258660875255
1772462083152369000,6.346368896484375,-0.02347790622115135,-0.012431401487300172,0.0007189436580054461
1772462083162417000,6.3564169921875,-0.03095978640913963,0.006716138246189803,0.004248341626860201
1772462083172465000,6.36646484375,-0.03769406310021877,0.0065453391233924775,0.006621244770660996
1772462083182514000,6.376513916015625,-0.040683308044075966,-0.00199097288781777,0.010318729315418749
1772462083192562000,6.38656201171875,-0.037840193572640415,0.003979653353849426,0.0054398894989863035
1772462083202610000,6.39660986328125,-0.03604395780563354,-0.0010515000806190073,0.009165906018484384
1772462083212658000,6.406657958984375,-0.024522446838021277,0.0014043686388991773,0.00028546587787568566
1772462083222706000,6.416705810546875,-0.02706862418949604,0.003446112732728943,-0.005451050213817507
1772462083232754000,6.42675390625,-0.030665187376737593,0.011419320101616904,-0.001526131855044514
1772462083242802000,6.436802001953125,-0.021388824987411497,0.011451770199649035,-0.0014029256004840134
1772462083252851000,6.446850830078125,-0.01824468174278736,-0.0020134313147980717,-0.003587886690441519
1772462083262899000,6.45689892578125,-0.03036591216921806,-0.0009565426730085163,0.009551982726622372
1772462083272947000,6.466947021484375,-0.043538697475194926,0.0014537516054231672,0.001924428723938763
1772462083282995000,6.476994873046875,-0.0314186360925436,0.0012006810266524553,-0.004228248686902225
1772462083293043000,6.48704296875,-0.031418051570653915,-0.001041188749158755,0.0011850998650304973
1772462083303090700,6.497090576171875,-0.03485679384768009,0.00008330350243486464,-0.002117266148608178
1772462083313139000,6.507138916015625,-0.02079261265993118,0.0025771752779372033,0.0009371895185671746
1772462083323187000,6.51718701171875,-0.0336626156270504,0.0066637870044447475,0.0014464542149566113
1772462083333236000,6.527236083984375,-0.022444471520185468,0.010741375174280256,0.004892375151440501
1772462083343284000,6.537283935546875,-0.03516308331787586,0.002213785325642675,0.0005219415148720145
1772462083353331700,6.547331787109375,-0.02229366487264633,-0.0003906980843283236,0.0032070524130016565
1772462083363380000,6.5573798828125,-0.013016133439540863,0.009842563171032815,0.0013797091216780244
1772462083373428000,6.567427978515625,-0.034414310777187346,0.005908849584450945,0.004515833456628024
1772462083383476000,6.57747607421875,-0.03306932590901852,0.0017569814688526092,-0.000015453297458589077
1772462083393524000,6.58752392578125,-0.036060908940434455,-0.005087888590386137,0.001985383397247642
1772462083403572000,6.597572021484375,-0.029928689795732495,0.00219491622839123,0.00006440700571984052
1772462083413621000,6.60762109375,-0.01870177786052227,-0.0024651571376714853,0.0024510098813101647
1772462083423668700,6.617668701171875,-0.01466273160278797,-0.002495241748681292,0.009714132752083241
1772462083433717000,6.627717041015625,-0.01990472390949726,0.004377119105681776,0.005610880418028682
1772462083443765000,6.637764892578125,-0.03337269276976585,0.007229887321451679,-0.003173241474945098
1772462083453812700,6.647812744140625,-0.04026128323972225,0.007099794668378308,-0.0007575403690338134
1772462083463861000,6.657861083984375,-0.022452070304751395,0.008727779462700709,-0.007418459562957286
1772462083473909000,6.667908935546875,-0.025593875461816785,0.0030323351669125256,0.0024804551715031263
1772462083483956700,6.677956787109375,-0.03532207327187061,0.0036217980931978672,0.0063084159618243575
1772462083494006000,6.688006103515625,-0.03936345761716366,-0.00018387780007906256,-0.0009413177044130861
1772462083504053800,6.6980537109375,-0.04444762901365757,0.0013343356099911033,0.004215699732583016
1772462083514102000,6.70810205078125,-0.03861410055458545,-0.0007399864460341631,-0.00018295535147190093
1772462083524150000,6.71814990234375,-0.034272271957993504,0.003258618203457445,0.007053590039629489
1772462083534197800,6.72819775390625,-0.017062778481841085,0.0019786979281343517,-0.0009663242815062403
1772462083544246000,6.73824609375,-0.010330255356431006,0.0020228658634237943,0.0015666830611415206
1772462083554293800,6.748293701171875,-0.023348142361640928,0.00855661501372233,0.0041014987683855
1772462083564342000,6.758342041015625,-0.03756546828448772,0.009130314115295185,0.00598486482957378
1772462083574390800,6.768390869140625,-0.02319382858276367,0.005951218288298696,0.013972867908794432
1772462083584439000,6.77843896484375,-0.027534488135576247,-0.006660316405724734,0.003493997861910611
1772462083594487000,6.788487060546875,-0.02992459814250469,-0.003902322934474796,0.0036214784327894445
1772462083604534800,6.79853466796875,-0.025585692155361175,-0.007124746446544304,0.009007390988525002
1772462083614583000,6.8085830078125,-0.027532734569907187,0.0033067316615022716,-0.006734276691079139
1772462083624631000,6.818631103515625,-0.025890228059887884,0.00068632916319184,-0.006079210315831005
1772462083634678800,6.8286787109375,-0.03531973518431186,0.012973426808975636,-0.00016302680829539894
1772462083644727000,6.83872705078125,-0.029186346995830535,0.0015419139460660517,-0.002796224856097251
1772462083654775800,6.84877587890625,-0.032333412849903105,0.0038824400570709257,-0.011823434789944439
1772462083664824000,6.858823974609375,-0.027697569742798803,0.0010782876228448003,0.002918700458295643
1772462083674871800,6.868871826171875,-0.028597148931026457,0.0033925011156592517,0.008554879714362322
1772462083684919800,6.878919921875,-0.03024257805049419,0.0052550618508365,0.011992763474863022
1772462083694968000,6.888968017578125,-0.03847381530106067,0.0017823807715903967,0.011635584067646414
1772462083705015800,6.899015869140625,-0.023660861572623253,-0.0038659547131508587,0.0029361265171319244
1772462083715063800,6.909063720703125,-0.020667524975538254,-0.003608628084370866,-0.0015001206309534609
1772462083725112800,6.91911279296875,-0.04236380847692489,0.003631661900086328,-0.005383355272468179
1772462083735160800,6.929160888671875,-0.04176467353999615,0.0035491895147133617,-0.004430657657515258
1772462083745209000,6.939208984375,-0.0260550632327795,0.00851937914271839,-0.0009096256582066416
1772462083755256800,6.9492568359375,-0.030839374899864196,0.00467576412553899,0.005466814038529992
1772462083765304800,6.959304931640625,-0.03323591464757919,0.002957808625977486,0.008518255764711647
1772462083775352800,6.969352783203125,-0.0357797539114952,-0.0023561986041720955,0.004791143266670406
1772462083785400800,6.97940087890625,-0.030541268736124037,0.0006823197083547711,0.0022564736898988483
1772462083795449000,6.989448974609375,-0.028296120157837865,0.0025597309527918694,0.0019452523162588476
1772462083805497900,6.999497802734375,-0.025455343773961067,0.002995071896445006,-0.0068697213727049525
1772462083815546000,7.009546142578125,-0.02830021181106567,-0.0017821524427272379,0.002895228251162916
1772462083825593900,7.01959375,-0.03248655758500099,-0.005467234163638204,0.004793371756374835
1772462083835641900,7.029641845703125,-0.03293137874305248,0.007178102335287258,0.002208469829708338
1772462083845690000,7.039690185546875,-0.028142390900850293,0.006025288171507418,0.003155870215035975
1772462083855737900,7.04973779296875,-0.030832945159077644,0.005407138006854802,-0.006627838908229023
1772462083865785900,7.059785888671875,-0.03532207327187061,-0.0000011325111612677574,0.011469780780375003
1772462083875834000,7.069834228515625,-0.043105566754937166,-0.0008821531293913722,0.0035968919808045028
1772462083885883000,7.0798828125,-0.02889057891964912,0.004273384736571461,-0.0019757387860678136
1772462083895931000,7.089930908203125,-0.004200374299287796,-0.0010065010282676666,-0.0010945903036743401
1772462083905979000,7.099978759765625,-0.022608137649297713,-0.004173659822298214,-0.0043205666128546
1772462083916027000,7.11002685546875,-0.03293196326494217,0.0038739462233614175,0.003779573337640613
1772462083926075000,7.120074951171875,-0.0333791225105524,0.0041760070430114865,0.017452892044279723
1772462083936123000,7.130122802734375,-0.018416531178355216,0.002355102625628933,0.0069450516312383115
1772462083946170600,7.140170654296875,-0.013626958814263342,-0.0076369885513093315,0.00004515431597828865
1772462083956218400,7.15021826171875,-0.03143324913978576,-0.003278373216697946,0.004264543842989951
1772462083966267600,7.160267578125,-0.03726736212074756,0.005742498307907954,-0.001237889498192817
1772462083976315400,7.1703154296875,-0.02260170790851116,0.0017192067417316139,0.0038340617375448344
1772462083986363600,7.18036376953125,-0.02798924616575241,-0.004988455937057734,-0.0017131240608170627
1772462083996411600,7.19041162109375,-0.03352525298297405,0.004982765981787815,0.0055242615805007516
1772462084006459400,7.20045947265625,-0.04071194961667061,0.00434686096473597,0.0045302455744706096
1772462084016507600,7.210507568359375,-0.040862171742320055,0.0028452790290582923,-0.0043321474527940156
1772462084026555600,7.2205556640625,-0.025000585743784904,0.001303036289429292,-0.002699431684426963
1772462084036603400,7.230603271484375,-0.027545594051480292,0.003510921597247943,0.00367498045200482
1772462084046652700,7.240652587890625,-0.04101239386796951,0.00009194346661679446,0.002508841015771031
1772462084056700400,7.250700439453125,-0.03487608307003975,0.002053708526259288,0.005646755449008196
1772462084066748700,7.260748779296875,-0.02664893747270107,-0.002254336531739682,0.006900189576204866
1772462084076796400,7.27079638671875,-0.032039398339390755,-0.00377219374878332,0.0035278270662762222
1772462084086844400,7.280844482421875,-0.02979600332677364,-0.00026064196387305856,0.0018093692432157695
1772462084096892700,7.290892578125,-0.03024316257238388,0.0034542229739483446,-0.006067209350783378
1772462084106940400,7.3009404296875,-0.028746202012896536,0.0029659736661240455,-0.012626366936974227
1772462084116988700,7.31098876953125,-0.03383621862828731,0.006986433954397216,-0.0029472872319631278
1772462084127037400,7.321037353515625,-0.027255671194195745,0.006479461679793894,0.0005417421938851475
1772462084137085400,7.33108544921875,-0.023215455892682074,0.00456893361704424,0.0008597403681837022
1772462084147133700,7.3411337890625,-0.030399814438819884,0.005516306602908298,-0.000420965358428657
1772462084157181400,7.351181396484375,-0.0306996741682291,-0.0010647066220641137,0.0041877522797323765
1772462084167229700,7.361229736328125,-0.03608370529413223,-0.008962684197118506,0.0036491153583861884
1772462084177277400,7.37127734375,-0.038327100306749344,-0.003761818485241383,0.0006820822463370859
1772462084187325400,7.381325439453125,-0.030844635596871374,-0.008624437819235026,0.0032183227256871757
1772462084197374500,7.39137451171875,-0.02784896091222763,-0.006181839573243633,-0.0023848493099212645
1772462084207422500,7.40142236328125,-0.013631050467491149,0.007899539344478398,-0.0007111439440399407
1772462084217470700,7.411470703125,-0.02291325807571411,0.009821438184613361,-0.003877097161673009
1772462084227518500,7.4215185546875,-0.03219195855259895,0.0037338527660816904,0.0015885478330776096
1772462084237566500,7.43156640625,-0.042965866023302074,0.0016054259026423096,0.0011728614379651844
1772462084247614700,7.44161474609375,-0.038030747708678245,0.00019265476157888768,-0.0034846637779846787
1772462084257662500,7.451662353515625,-0.02202010862827301,-0.004516381445899605,0.009241473739035427
1772462084267710500,7.46171044921875,-0.04356967713534832,0.0011756927158683538,0.011469269323721528
1772462084277759500,7.471759521484375,-0.025016952356696126,0.005933216840727254,-0.004868902944307774
1772462084287807500,7.481807373046875,-0.025018705922365186,0.001232921062130481,0.007112097027525305
1772462084297855500,7.49185546875,-0.012295417949557304,0.0015799718009773642,0.002976056668721139
1772462084307903500,7.501903564453125,-0.033391397470235826,0.00008518493226729333,0.003468260632455349
1772462084317951500,7.511951416015625,-0.036081367206573484,0.0014188629551324993,-0.0025966654296964405
1772462084327999500,7.52199951171875,-0.03787643392980099,0.010967932205460966,0.0034003830280154943
1772462084338047500,7.532047607421875,-0.037729134413599964,0.004338330598408356,0.009298683818988502
1772462084348095700,7.542095703125,-0.028304887986183164,0.007838146279752253,0.01219257862959057
1772462084358144500,7.55214453125,-0.03144669314324856,0.004680705162137746,0.010124741113279014
1772462084368192500,7.562192626953125,-0.03533727084100246,-0.005463507836591452,-0.0015388634724542497
1772462084378240500,7.572240478515625,-0.04506605317294597,-0.001211184154357761,-0.0007081117367371916
1772462084388288500,7.58228857421875,-0.0289046074450016,-0.00039805027372203766,-0.005902648172527551
1772462084398336800,7.592336669921875,-0.012146949389576911,0.004103982986416667,0.0021259791780263186
1772462084408384500,7.602384521484375,-0.025166005438566206,-0.0017342947130091488,-0.0077770820085890585
1772462084418432500,7.6124326171875,-0.03653904784619808,0.002739590164879337,0.00297167275454849
1772462084428480500,7.62248046875,-0.03399754666984081,0.0008467530224472284,-0.0005742562239989638
1772462084438529500,7.632529541015625,-0.02666588860750198,-0.00047649493794888257,0.005985102291591465
1772462084448577500,7.64257763671875,-0.029059505745768547,0.003676743150828406,0.004953147161658853
1772462084458625500,7.65262548828125,-0.02561550277173519,0.00023084961380809545,-0.00035904257073998447
1772462084468673500,7.662673583984375,-0.030703765821456907,-0.0033324871572665868,0.0008260572942905128
1772462084478721500,7.672721435546875,-0.0301028773188591,0.00036663222215138375,0.0013560725177638232
1772462084488769500,7.68276953125,-0.02128068843781948,-0.0007904105921741574,0.005968790477607399
1772462084498817500,7.692817626953125,-0.03265256180167198,0.011396733810473233,0.009251830736268311
1772462084508866600,7.702866455078125,-0.061679334321618075,0.0034977333221118895,-0.00533968052752316
1772462084518914600,7.71291455078125,-0.055688569474220274,-0.005662446208484471,-0.0050770292696543035
1772462084528962600,7.722962646484375,-0.02590659467279911,0.007441648642299696,-0.006855912043061107
1772462084539010600,7.733010498046875,-0.02635316939651966,0.0019561207701452076,-0.016078754146862773
1772462084549058600,7.74305859375,-0.03413081766068935,-0.004133866668026894,0.0016713490120135246
1772462084559106600,7.7531064453125,-0.040865094351768494,-0.003907537965709343,0.008868329577706753
1772462084569154600,7.763154541015625,-0.00793897630572319,-0.006023717268928885,0.005569452429097146
1772462084579202600,7.77320263671875,0.002087327668070793,-0.004269274817034602,-0.004454750919155776
1772462084589251600,7.78325146484375,-0.006740706431865692,0.0033854320540558547,-0.005678484027832746
1772462084599299300,7.79329931640625,-0.03532499588131904,0.001062779526459053,-0.0005285904513671994
1772462084609347600,7.80334765625,-0.042805122503638264,0.006065236589405686,-0.0004961129538714886
1772462084619395600,7.8133955078125,-0.046987376624345774,0.017854485981957987,-0.008976009469572454
1772462084629443600,7.823443603515625,-0.04414250858724117,0.015439360264781862,0.0012138327691704033
1772462084639491600,7.83349169921875,-0.017800445106625557,0.013118844895344227,0.012300532516092061
1772462084649539600,7.84353955078125,0.01556640244424343,-0.008087673194566741,0.012690664344839751
1772462084659587600,7.853587646484375,-0.0032861820638179777,-0.02102760872589424,0.006698145931772887
1772462084669636600,7.86363671875,-0.05970248129069805,-0.02104128105822019,0.001638360057864338
1772462084679684600,7.8736845703125,-0.06942600292563438,-0.010309413497801869,-0.0005131919528357685
1772462084689732600,7.883732666015625,-0.0016366612911224365,-0.0009334814578294754,-0.008046327404025942
1772462084699780400,7.8937802734375,0.01856266165077686,0.011928666996397077,-0.014527085991762577
1772462084709828600,7.90382861328125,-0.030516718816757202,0.008600728150084615,-0.016728815553430466
1772462084719876600,7.913876708984375,-0.07181611293256282,0.004088356159022078,-0.017172157140448688
1772462084729924400,7.92392431640625,-0.03904138605594635,0.002625060407118872,0.0004957293613813817
1772462084739973600,7.9339736328125,-0.002233458140492439,0.0011260448878630995,0.010280278734862805
1772462084750021400,7.944021484375,-0.0038841479569673536,0.005868508440908044,0.009083908557146787
1772462084760069600,7.954069580078125,-0.05192191041707992,0.0016190343028865753,0.0057870224362239235
1772462084770117600,7.96411767578125,-0.05955342820882797,-0.007685978792188688,0.0032259215102531016
1772462084780165400,7.974165283203125,-0.01675415092408657,-0.018967205597367136,0.0012149470140226184
1772462084790213600,7.984213623046875,0.0024006314009428023,-0.016904473514435813,0.001548526349943131
1772462084800261400,7.994261474609375,-0.02902092730104923,-0.011123853419534861,0.005212528750207275
1772462084810309600,8.0043095703125,-0.06911737536787986,0.001685386670520529,-0.0016284779846668243
1772462084820358400,8.0143583984375,-0.046971010011434555,0.01986598106799647,0.0035943164312280712
1772462084830406400,8.024406494140624,0.0012122983992099762,0.009571162351127713,0.002107822466827929
1772462084840454700,8.03445458984375,-0.020182956328988075,0.0056505548412911595,-0.02518047235533595
1772462084850502400,8.04450244140625,-0.056093643143773075,-0.006355789634352549,-0.011239296492747962
1772462084860550700,8.054550537109375,-0.04352291538417339,-0.02211807084372267,0.002988678688276559
1772462084870598700,8.0645986328125,-0.010599135425686836,-0.008051058378070592,0.010048004348948597
1772462084880646400,8.074646484375,0.003163432466983795,-0.000922603870788589,0.012187190068420022
1772462084890694700,8.084694580078125,-0.004924012398719787,-0.007674233555467799,0.004639386771060526
1772462084900743400,8.094743408203126,-0.02348667404949665,-0.010341169476089998,-0.0010404489636421203
1772462084910791700,8.104791748046875,-0.039653380474448205,0.0019020068295765667,0.0014815985935740172
1772462084920839400,8.11483935546875,-0.07780804682374,0.009715219597471878,0.00737197180641815
1772462084930887400,8.124887451171874,-0.07525777781903743,0.008465183003759012,-0.0036933015599846836
1772462084940936400,8.1349365234375,-0.017944237491488456,0.012450097054615616,-0.01698158473810181
1772462084950984400,8.144984375,0.010484569135308265,0.009175897689536213,-0.012276731515396386
1772462084961032400,8.155032470703125,-0.01435819569826126,0.0012074395610019563,-0.0014695245632901787
1772462084971080200,8.165080078125,-0.045182373028993604,-0.012752952458709478,0.010073230121750385
1772462084981129500,8.17512939453125,-0.02872866635620594,-0.011407730128522961,0.018275570071395485
1772462084991177200,8.18517724609375,-0.001048047748208046,-0.012171133982762693,0.009110559102054685
1772462085001225500,8.1952255859375,-0.009577975684404372,-0.014453902024542912,0.015514069468807429
1772462085011273500,8.2052734375,-0.042353287082910536,-0.006259891511825844,0.0028228206020779905
1772462085021321200,8.2153212890625,-0.03876256911456585,-0.00040459874551743266,-0.009258516205381602
1772462085031369500,8.225369384765624,-0.02514671621620655,0.014952608794299885,-0.007771821311581879
1772462085041417500,8.23541748046875,-0.026494039171934127,0.01749429263374768,-0.008103373087197541
1772462085051466500,8.245466552734374,-0.04415302998125553,0.00963304860619828,-0.00634219036726281
1772462085061514500,8.255514404296875,-0.03667173431515693,0.0026104108272586015,0.0023248627509921786
1772462085071562200,8.265562255859376,-0.02499941670000553,-0.0047836084141861645,0.0027099713447503743
1772462085081610500,8.275610595703125,-0.030837621334195136,-0.013394446966331451,0.005797763025946915
1772462085091658200,8.285658203125,-0.03158639387488365,-0.010756837604893371,0.0023680077729746696
1772462085101706200,8.295706298828126,-0.030238486397266385,-0.007174403407704085,0.004955722711235284
1772462085111754500,8.30575439453125,-0.03696984047889709,0.0002870185141451657,0.003135539813060313
1772462085121802200,8.31580224609375,-0.021712650114297866,0.005543970927968621,0.0008892769899219273
1772462085131851500,8.3258515625,-0.027697569742798803,-0.000349324894323945,-0.0013038856728002429
1772462085141899300,8.335899169921875,-0.02979132715165615,0.0081815802894067,-0.003807265062164515
1772462085151947300,8.345947265625,-0.04370645525753498,-0.0011690529125276952,-0.004244268239941448
1772462085161995500,8.35599560546875,-0.04311258101761341,-0.0012287837431300432,0.001453925135359168
1772462085172043300,8.366043212890625,-0.012140519648790359,0.0046278972626663745,-0.006503153082635253
1772462085182091500,8.376091552734374,-0.006456044271588325,-0.005694348317245021,0.004499740838352591
1772462085192139300,8.38613916015625,-0.033843817412853236,-0.003955706222681328,-0.0030959019224159417
1772462085202187300,8.396187255859376,-0.0440191744685173,-0.006128538483427837,0.013343155170511453
1772462085212236300,8.406236328125,-0.03264788562655449,0.00020782493124715982,0.006836476690229028
1772462085222284300,8.4162841796875,-0.025766309419274328,-0.0014305351266171783,-0.002203464861027896
1772462085232332500,8.42633251953125,-0.016492869639396668,0.0036021161451935766,0.002474098495952785
1772462085242380300,8.43638037109375,-0.017689385947585106,0.009150845446670428,-0.000495711095072329
1772462085252428300,8.44642822265625,-0.03773907128572464,-0.003451446494972333,-0.004877524642180651
1772462085262476500,8.4564765625,-0.032799861317873,-0.0023176658252254127,-0.0017163571975193916
1772462085272524300,8.466524169921875,-0.03593874386548996,-0.0027662407097872343,0.0007943835143931209
1772462085282572300,8.476572265625,-0.027114216896891592,-0.00751886946382001,0.008587010151986032
1772462085292621300,8.486621337890625,-0.035792613393068315,-0.01285547211826779,0.0032515674081631005
1772462085302669300,8.49666943359375,-0.054496729341149325,0.003920150852110236,0.002067216461803764
1772462085312717300,8.50671728515625,-0.04162555733025074,0.003745853731129318,-0.0015923472253605723
1772462085322765300,8.516765380859376,-0.026660627910494804,0.0013859561993740499,-0.009313479529321192
1772462085332813300,8.526813232421874,-0.006906710648536682,0.0039912159274797885,0.0005841930961236357
1772462085342861300,8.536861328125,-0.03398702527582645,-0.0010194792408496141,0.0009990940399467944
1772462085352909300,8.546909423828126,-0.036084289816021915,-0.00554136797892861,0.006983812739048152
1772462085362958300,8.556958251953125,-0.019628245055675505,-0.006801505841547623,0.008929539979342371
1772462085373006300,8.56700634765625,-0.023071663507819175,0.00012536167902871967,0.006139361271541566
1772462085383054600,8.5770546875,-0.037732641544938085,0.000671369056077674,0.0039884303153492505
1772462085393102300,8.587102294921875,-0.036983284482359886,0.0014488197019789366,0.002952438331115991
1772462085403150300,8.597150390625,-0.019928104785084725,0.003225738847162574,-0.0043622868627309795
1772462085413198600,8.607198486328125,-0.024425416204333306,0.008736903484072536,-0.01104594761142507
1772462085423246300,8.617246337890625,-0.030411504876613614,0.0036396168776787817,-0.005687525850813836
1772462085433294300,8.62729443359375,-0.04432838654816151,-0.0035121545731090008,-0.0008501322896219789
1772462085443343400,8.63734326171875,-0.032961773881316186,0.0034128680502530187,0.0028416349004022775
1772462085453391400,8.647391357421874,-0.032062194693088526,-0.006031927974848077,0.0025943638747557996
1772462085463439400,8.657439453125,-0.02891980501413345,-0.0024432832325808704,0.0018414448819123208
1772462085473487400,8.6674873046875,-0.029966683718562124,-0.004078053960716352,0.005758490461483598
1772462085483535400,8.677535400390624,-0.02428454642891884,-0.005079422156140208,-0.0027536095570772886
1772462085493583400,8.687583251953125,-0.01695288836658001,-0.0024745003547519445,-0.006646598407626152
1772462085503631400,8.69763134765625,-0.03415887471139431,0.010442127366224303,-0.005489500794373452
1772462085513679400,8.707679443359375,-0.028773090019822117,0.002423427754640579,-0.0021221980520524084
1772462085523728400,8.717728271484376,-0.030711364606022834,0.007474765460612252,0.003707750210445374
1772462085533776400,8.7277763671875,-0.024725275933742522,0.001304095735354349,0.00466391842411831
1772462085543824400,8.737824462890625,-0.03101122433543205,-0.0005804119701497256,-0.004236157998722046
1772462085553872400,8.747872314453126,-0.02308101585805416,-0.003941348903765901,-0.007372117936890572
1772462085563920400,8.75792041015625,-0.022934885385632514,-0.008460799089586362,-0.001528725670929998
1772462085573968400,8.767968505859375,-0.03505553129017353,-0.006886453311797231,0.005183923710230738
1772462085584016400,8.778016357421874,-0.032360300856828686,0.0003454615699592978,0.002369505610316992
1772462085594064400,8.788064453125,-0.020540099203586577,0.0018479842205531894,-0.0034959523569792505
1772462085604113400,8.798113525390624,-0.01559738210439682,0.0010472531637642532,0.0015709391111508012
1772462085614161400,8.808161376953125,-0.020984920361638067,0.004804148878715932,-0.0024173816063441335
1772462085624209400,8.81820947265625,-0.02278524778187275,0.009391001744940876,-0.007799987960141152
1772462085634257400,8.82825732421875,-0.03355740168690681,-0.0021275592137593776,-0.0065880731534212825
1772462085644305400,8.838305419921875,-0.027422844454646107,0.006163344935327768,0.0007455576702952385
1772462085654353400,8.848353515625,-0.023383213675022125,0.001668353337328881,0.006857501211948692
1772462085664401400,8.8584013671875,-0.026376550272107124,0.006425493869697675,0.010074399165529758
1772462085674450400,8.868450439453126,-0.02846855411529541,0.0006565368131268769,0.0035624599882401525
1772462085684498400,8.87849853515625,-0.033553894555568696,0.0005188271091785281,0.003043623745907098
1772462085694546400,8.88854638671875,-0.027570143970847127,-0.003403177773300558,0.00014297040095552802
1772462085704594400,8.898594482421874,-0.029367548781633376,-0.0031753512336406857,-0.005189275738783181
1772462085714642200,8.90864208984375,-0.03699906657338142,-0.0021531868453603235,-0.006852989433612674
1772462085724690400,8.9186904296875,-0.03445230470001697,-0.0006218308259267359,0.0006901011560112237
1772462085734738400,8.928738525390624,-0.03161269735991955,0.00018686434160917995,-0.000797360922768712
1772462085744786200,8.9387861328125,-0.03161211283802986,-0.0025258012837264684,-0.007874258772749453
1772462085754835500,8.94883544921875,-0.0338543388068676,-0.0019241638624574989,0.0035335261547006663
1772462085764883200,8.95888330078125,-0.02353109771311283,0.00342087782677263,-0.0031237763100303707
1772462085774931500,8.968931396484376,-0.021733692902326584,-0.010326081504812464,-0.007542743529751896
1772462085784979500,8.9789794921875,-0.02876607575714588,-0.004171833191392943,0.010432272692490368
1772462085795027500,8.98902734375,-0.03340133434236049,-0.006327120662294328,-0.0002278904717415571
1772462085805075500,8.999075439453126,-0.03235270207226276,-0.006530452081514522,-0.00005437880204990506
1772462085815123200,9.009123291015625,-0.023524667972326278,-0.009600488910311832,0.00293906739288941
1772462085825171500,9.01917138671875,-0.017239304092526435,0.0022136117957066745,-0.013804872664436698
1772462085835220200,9.02922021484375,-0.02367313653230667,0.0002502027682494372,-0.0003245740455575287
1772462085845268500,9.0392685546875,-0.03608896599113941,0.000021919570863246917,0.00383457319419831
1772462085855316500,9.04931640625,-0.03758183489739895,0.0011294698208104818,0.0003870813551358878
1772462085865364200,9.0593642578125,-0.02486439214348793,-0.002022628401406109,0.0036147381647489963
1772462085875412500,9.06941259765625,-0.021722586986422536,-0.012487332925619557,0.012274649156164377
1772462085885460500,9.07946044921875,-0.0299503171056509,-0.010246851389296352,0.014162143403198569
1772462085895508200,9.08950830078125,-0.02276946569085121,-0.0012726137517020107,0.00391531028021127
1772462085905556500,9.099556396484376,-0.03459025186598301,-0.0023150994088035077,0.0013008534654974937
1772462085915605200,9.109605224609375,-0.0389303268969059,-0.001224719489365816,-0.0010996683375909923
1772462085925653500,9.119653564453126,-0.026810850036144255,0.0002551072722300887,-0.0015909772521816193
1772462085935701200,9.129701171875,-0.026212299621105193,0.007878880148939787,-0.002945040475949645
1772462085945748700,9.139748779296875,-0.028760230538249013,0.0021851711525116115,0.0013954729463905096
1772462085955796700,9.149796630859376,-0.02352232988476753,-0.0012885237068869172,0.002901639725640416
1772462085965845000,9.159844970703125,-0.027862989437580105,-0.005264085407508537,0.008707878318987786
1772462085975892700,9.169892822265625,-0.035793782436847686,-0.006512715495424344,0.0027193236949853597
1772462085985941800,9.179941650390624,-0.0277151053994894,0.0015311368237249552,0.005680675984919071
1772462085995989800,9.18998974609375,-0.01948386814892292,-0.008621067685214803,0.0019446495280601083
1772462086006037800,9.200037841796876,-0.029655718073248863,0.0030693701085168865,-0.0009808642635121942
1772462086016085800,9.210085693359375,-0.03428863857090473,0.0013045615262351929,0.00741740011703223
1772462086026133800,9.2201337890625,-0.04730126487910747,-0.0000616579262074083,0.00009783435128629207
1772462086036181800,9.230181640625,-0.04041676606237888,-0.0032978816347662356,0.0005482997988350689
1772462086046229800,9.240229736328125,-0.03293605491816997,-0.006330773924104869,0.0026373262336477636
1772462086056277800,9.25027783203125,-0.025302783560752867,-0.00507683747340925,0.003126662386860698
1772462086066326800,9.260326904296875,-0.03038520139157772,0.002404659122088924,0.0009041092328727245
1772462086076374800,9.270374755859375,-0.02768821739256382,-0.003058501654630527,0.00045262087201699614
1772462086086422800,9.2804228515625,-0.028137130203843116,-0.0015334018460474907,0.004367145700939
1772462086096470800,9.290470703125,-0.036814357656240464,-0.0008773490901105106,-0.00005571224261075258
1772462086106518800,9.300518798828126,-0.025439561682939527,-0.0029103527550585566,0.000806366213131696
1772462086116566800,9.31056689453125,-0.029632921719551085,0.0010339370244648307,-0.008281688796170056
1772462086126614800,9.32061474609375,-0.008549801680445671,0.009389449108671396,-0.003799246152490377
1772462086136663800,9.330663818359374,-0.02352583701610565,-0.0021836550488602367,0.004681746341753751
1772462086146711800,9.3407119140625,-0.03221358586251735,-0.009422648125374689,0.01268228010898456
1772462086156759800,9.350759765625,-0.06992810722887516,-0.010579298214055597,0.02032260226169601
1772462086166807800,9.360807861328125,-0.03895429229438305,-0.009691382064158096,0.012549885900970548
1772462086176855800,9.370855712890625,0.006691022071242332,0.002248107720352709,0.005999076018016785
1772462086186903800,9.38090380859375,-0.007809796968102455,0.0061055959992576386,0.001209138327743858
1772462086196951800,9.390951904296875,-0.04774082534015178,0.010111945563787594,-0.011491718617547303
1772462086206999800,9.400999755859376,-0.05102759192585945,0.0031360878023318946,-0.002412650632299483
1772462086217048800,9.411048828125,0.013616437420248985,0.008343063594587146,-0.005889752158336341
