time,seconds_elapsed,z,y,x
1772462546385556000,0.081555908203125,-1.0046844482421875,-0.0096435546875,0.0282135009765625
1772462546395604200,0.091604248046875,-1.0040435791015625,-0.0096282958984375,0.027252197265625
1772462546405652000,0.10165185546875,-1.001708984375,-0.009613037109375,0.027435302734375
1772462546415701200,0.111701171875,-1.000213623046875,-0.0092010498046875,0.0279388427734375
1772462546425749000,0.1217490234375,-1.00360107421875,-0.0087432861328125,0.0286712646484375
1772462546435797000,0.131796875,-1.006317138671875,-0.0088653564453125,0.0290985107421875
1772462546445846000,0.141845947265625,-1.0045013427734375,-0.0100250244140625,0.0295562744140625
1772462546455894000,0.15189404296875,-1.0032501220703125,-0.01025390625,0.0279388427734375
1772462546465943000,0.161943115234375,-1.002838134765625,-0.0098724365234375,0.028411865234375
1772462546475991000,0.171990966796875,-1.0029754638671875,-0.009674072265625,0.02862548828125
1772462546486039000,0.1820390625,-1.0019378662109375,-0.0094757080078125,0.0284271240234375
1772462546496088000,0.192088134765625,-0.9994964599609375,-0.0102081298828125,0.028961181640625
1772462546506136000,0.202135986328125,-0.99951171875,-0.0087127685546875,0.028076171875
1772462546516185000,0.21218505859375,-1.0029754638671875,-0.00860595703125,0.02679443359375
1772462546526233000,0.222233154296875,-1.004425048828125,-0.0087127685546875,0.02679443359375
1772462546536281000,0.232281005859375,-1.0022430419921875,-0.0085601806640625,0.0269317626953125
1772462546546329900,0.242329833984375,-1.0011749267578125,-0.008758544921875,0.028656005859375
1772462546556378000,0.252378173828125,-1.0008697509765625,-0.009307861328125,0.02935791015625
1772462546566427000,0.262427001953125,-1.0045013427734375,-0.010345458984375,0.0280914306640625
1772462546576475100,0.27247509765625,-1.0044403076171875,-0.0096282958984375,0.0286102294921875
1772462546586523100,0.282523193359375,-1.0027923583984375,-0.01007080078125,0.028900146484375
1772462546596572200,0.292572265625,-1.0009613037109375,-0.010589599609375,0.0280303955078125
1772462546606620200,0.3026201171875,-1.00146484375,-0.0093841552734375,0.0284423828125
1772462546616669200,0.312669189453125,-1.0036468505859375,-0.0087127685546875,0.0281982421875
1772462546626717200,0.32271728515625,-1.003753662109375,-0.0088348388671875,0.0286407470703125
1772462546636765000,0.332764892578125,-1.001617431640625,-0.0087890625,0.02728271484375
1772462546646814200,0.342814208984375,-1.001373291015625,-0.0096588134765625,0.0268096923828125
1772462546656862000,0.352862060546875,-1.0028839111328125,-0.009429931640625,0.02862548828125
1772462546666910200,0.36291015625,-1.0042877197265625,-0.0093536376953125,0.0285186767578125
1772462546676959000,0.372958984375,-1.00238037109375,-0.009979248046875,0.0273895263671875
1772462546687007200,0.38300732421875,-1.00091552734375,-0.0107269287109375,0.0279998779296875
1772462546697056000,0.393055908203125,-1.002197265625,-0.0100860595703125,0.0285797119140625
1772462546707104300,0.403104248046875,-1.0047454833984375,-0.009063720703125,0.0286407470703125
1772462546717152000,0.413152099609375,-1.00274658203125,-0.0093994140625,0.02716064453125
1772462546727201000,0.423200927734375,-1.001983642578125,-0.009429931640625,0.0273284912109375
1772462546737249000,0.4332490234375,-1.003265380859375,-0.0091094970703125,0.0277252197265625
1772462546747298000,0.443298095703125,-1.0041961669921875,-0.0093231201171875,0.0283355712890625
1772462546757346000,0.453345947265625,-1.002716064453125,-0.009521484375,0.02703857421875
1772462546767394000,0.46339404296875,-1.002227783203125,-0.009735107421875,0.0282440185546875
1772462546777443000,0.473443115234375,-1.002105712890625,-0.0088958740234375,0.027862548828125
1772462546787491000,0.483490966796875,-1.00274658203125,-0.009735107421875,0.027740478515625
1772462546797540000,0.4935400390625,-1.0029144287109375,-0.009307861328125,0.0277557373046875
1772462546807588000,0.503588134765625,-1.002288818359375,-0.008514404296875,0.027435302734375
1772462546817636000,0.513635986328125,-1.00311279296875,-0.009124755859375,0.02777099609375
1772462546827685000,0.52368505859375,-1.0025787353515625,-0.0087890625,0.0277862548828125
1772462546837733000,0.533733154296875,-1.001953125,-0.008544921875,0.028167724609375
1772462546847782100,0.5437822265625,-1.0026702880859375,-0.0085906982421875,0.0283966064453125
1772462546857830100,0.553830078125,-1.0036773681640625,-0.0100250244140625,0.02850341796875
1772462546867878000,0.5638779296875,-1.002716064453125,-0.0095672607421875,0.0289154052734375
1772462546877927200,0.57392724609375,-1.002655029296875,-0.0094146728515625,0.0284423828125
1772462546887975000,0.583974853515625,-1.0020751953125,-0.009307861328125,0.0280609130859375
1772462546898024200,0.594024169921875,-1.0024871826171875,-0.0099029541015625,0.0279693603515625
1772462546908072000,0.604072021484375,-1.0031585693359375,-0.0090789794921875,0.02703857421875
1772462546918120200,0.6141201171875,-1.003387451171875,-0.009185791015625,0.02764892578125
1772462546928169000,0.6241689453125,-1.0036773681640625,-0.00970458984375,0.028900146484375
1772462546938217200,0.63421728515625,-1.0034942626953125,-0.0096588134765625,0.02783203125
1772462546948265000,0.644264892578125,-1.001922607421875,-0.0097198486328125,0.02777099609375
1772462546958314000,0.65431396484375,-1.0024261474609375,-0.0097198486328125,0.0285491943359375
1772462546968362000,0.664362060546875,-1.004241943359375,-0.0101318359375,0.0281829833984375
1772462546978411000,0.674410888671875,-1.003509521484375,-0.0093994140625,0.0290679931640625
1772462546988459000,0.684458984375,-1.00146484375,-0.0098114013671875,0.0278167724609375
1772462546998507000,0.694507080078125,-1.00201416015625,-0.0091705322265625,0.0278167724609375
1772462547008556000,0.70455615234375,-1.002777099609375,-0.0086822509765625,0.0280303955078125
1772462547018604000,0.71460400390625,-1.0040130615234375,-0.008941650390625,0.027557373046875
1772462547028653000,0.724653076171875,-1.00323486328125,-0.0100250244140625,0.0272064208984375
1772462547038701000,0.734701171875,-1.0009918212890625,-0.0100250244140625,0.028900146484375
1772462547048749000,0.7447490234375,-1.0032958984375,-0.009613037109375,0.02911376953125
1772462547058798000,0.754798095703125,-1.0040435791015625,-0.0104217529296875,0.0283050537109375
1772462547068846000,0.76484619140625,-1.003936767578125,-0.0106964111328125,0.0284423828125
1772462547078895000,0.77489501953125,-1.003082275390625,-0.00927734375,0.02825927734375
1772462547088943000,0.784943115234375,-1.0013885498046875,-0.0086669921875,0.0270843505859375
1772462547098991000,0.7949912109375,-1.0030059814453125,-0.0077972412109375,0.02740478515625
1772462547109040000,0.8050400390625,-1.006622314453125,-0.0096282958984375,0.027557373046875
1772462547119087900,0.815087890625,-1.0062713623046875,-0.0100860595703125,0.0278778076171875
1772462547129137200,0.82513720703125,-0.998291015625,-0.0090789794921875,0.0283660888671875
1772462547139185000,0.835184814453125,-0.996246337890625,-0.00970458984375,0.0281829833984375
1772462547149233200,0.845233154296875,-1.003387451171875,-0.010040283203125,0.0279998779296875
1772462547159282000,0.855281982421875,-1.007659912109375,-0.0094451904296875,0.028167724609375
1772462547169330200,0.865330078125,-1.0038299560546875,-0.009246826171875,0.02734375
1772462547179379000,0.87537890625,-0.99591064453125,-0.0086822509765625,0.026885986328125
1772462547189427200,0.88542724609375,-0.9981689453125,-0.009246826171875,0.026885986328125
1772462547199475000,0.895474853515625,-1.00518798828125,-0.0093536376953125,0.0276641845703125
1772462547209524200,0.905524169921875,-1.007843017578125,-0.0093536376953125,0.0284881591796875
1772462547219572000,0.915572021484375,-1.002166748046875,-0.010009765625,0.028350830078125
1772462547229620000,0.925619873046875,-0.9987030029296875,-0.0099639892578125,0.0281829833984375
1772462547239669000,0.9356689453125,-1.001312255859375,-0.0087890625,0.028564453125
1772462547249717000,0.945717041015625,-1.005462646484375,-0.0102691650390625,0.0283660888671875
1772462547259766000,0.95576611328125,-1.0041351318359375,-0.0101318359375,0.028564453125
1772462547269814000,0.96581396484375,-1.0003509521484375,-0.0098876953125,0.0272216796875
1772462547279863000,0.975863037109375,-1.001190185546875,-0.0088348388671875,0.0280303955078125
1772462547289911000,0.9859111328125,-1.0038604736328125,-0.0090484619140625,0.028350830078125
1772462547299959000,0.995958984375,-1.0051422119140625,-0.0083770751953125,0.02764892578125
1772462547310008000,1.006008056640625,-1.0010528564453125,-0.008087158203125,0.027862548828125
1772462547320056000,1.01605615234375,-0.999267578125,-0.0088653564453125,0.0285491943359375
1772462547330104000,1.02610400390625,-1.0023345947265625,-0.0098724365234375,0.028411865234375
1772462547340153000,1.036153076171875,-1.0045166015625,-0.01068115234375,0.0282135009765625
1772462547350201000,1.046201171875,-1.004638671875,-0.010467529296875,0.028045654296875
1772462547360250000,1.05625,-1.0009307861328125,-0.0102386474609375,0.028472900390625
1772462547370298000,1.066298095703125,-1.0006866455078125,-0.00982666015625,0.0276031494140625
1772462547380346000,1.07634619140625,-1.004058837890625,-0.009674072265625,0.027557373046875
1772462547390395100,1.08639501953125,-1.0039520263671875,-0.0093994140625,0.0281524658203125
1772462547400443100,1.096443115234375,-1.0023040771484375,-0.008331298828125,0.0283660888671875
1772462547410492000,1.106491943359375,-1.000244140625,-0.00885009765625,0.0278167724609375
1772462547420540200,1.1165400390625,-1.0030517578125,-0.0096893310546875,0.0290374755859375
1772462547430588000,1.126587890625,-1.0043792724609375,-0.0095977783203125,0.0284271240234375
1772462547440637200,1.13663720703125,-1.0041961669921875,-0.0098114013671875,0.028594970703125
1772462547450685000,1.146684814453125,-1.001708984375,-0.009552001953125,0.0286407470703125
1772462547460734200,1.156734130859375,-1.0015716552734375,-0.00872802734375,0.0283660888671875
1772462547470782000,1.166781982421875,-1.00335693359375,-0.0097808837890625,0.02813720703125
1772462547480830000,1.176829833984375,-1.0043792724609375,-0.009796142578125,0.02764892578125
1772462547490879000,1.18687890625,-1.00225830078125,-0.0091552734375,0.028594970703125
1772462547500927000,1.196927001953125,-1.000823974609375,-0.00872802734375,0.02789306640625
1772462547510976000,1.20697607421875,-1.002197265625,-0.0092926025390625,0.0284881591796875
1772462547521024000,1.21702392578125,-1.00323486328125,-0.010009765625,0.0275726318359375
1772462547531072300,1.227072265625,-1.003814697265625,-0.010040283203125,0.027191162109375
1772462547541121000,1.23712109375,-1.00177001953125,-0.0091094970703125,0.027587890625
1772462547551169300,1.247169189453125,-1.001922607421875,-0.00982666015625,0.02764892578125
1772462547561218000,1.257218017578125,-1.0025787353515625,-0.009796142578125,0.0278778076171875
1772462547571266000,1.26726611328125,-1.00372314453125,-0.009552001953125,0.028472900390625
1772462547581314000,1.27731396484375,-1.0030059814453125,-0.0091552734375,0.0287322998046875
1772462547591363000,1.287363037109375,-1.001983642578125,-0.0090179443359375,0.027984619140625
1772462547601411000,1.2974111328125,-1.00335693359375,-0.009674072265625,0.02789306640625
1772462547611460000,1.307460205078125,-1.0038299560546875,-0.008819580078125,0.02880859375
1772462547621508000,1.317508056640625,-1.003753662109375,-0.0092620849609375,0.0290374755859375
1772462547631556000,1.32755615234375,-1.002716064453125,-0.0096588134765625,0.028289794921875
1772462547641605000,1.337605224609375,-1.002655029296875,-0.0096282958984375,0.0279541015625
1772462547651653000,1.347653076171875,-1.0029296875,-0.0095672607421875,0.0285186767578125
1772462547661702100,1.3577021484375,-1.0030364990234375,-0.009857177734375,0.0279541015625
1772462547671750100,1.367750244140625,-1.0024871826171875,-0.0096282958984375,0.0282135009765625
1772462547681798000,1.3777978515625,-1.001495361328125,-0.0084686279296875,0.0277557373046875
1772462547691847200,1.38784716796875,-1.002960205078125,-0.009124755859375,0.0276947021484375
1772462547701895000,1.39789501953125,-1.0033416748046875,-0.00958251953125,0.0287933349609375
1772462547711944200,1.407944091796875,-1.0023040771484375,-0.009857177734375,0.0274658203125
1772462547721992000,1.417991943359375,-1.0016937255859375,-0.009918212890625,0.0274658203125
1772462547732040000,1.4280400390625,-1.002716064453125,-0.009033203125,0.027587890625
1772462547742089000,1.4380888671875,-1.0032806396484375,-0.008270263671875,0.0281219482421875
1772462547752137000,1.448136962890625,-1.002288818359375,-0.0088958740234375,0.028106689453125
1772462547762186000,1.45818603515625,-1.0020904541015625,-0.009613037109375,0.0278472900390625
1772462547772234000,1.46823388671875,-1.0022430419921875,-0.00958251953125,0.027923583984375
1772462547782282200,1.4782822265625,-1.0027008056640625,-0.0092926025390625,0.0279998779296875
1772462547792331000,1.4883310546875,-1.002777099609375,-0.00958251953125,0.0278778076171875
1772462547802379000,1.49837890625,-1.0022735595703125,-0.0095672607421875,0.028076171875
1772462547812428000,1.508427978515625,-1.001922607421875,-0.00921630859375,0.0286865234375
1772462547822476000,1.51847607421875,-1.0037078857421875,-0.00946044921875,0.027740478515625
1772462547832524000,1.52852392578125,-1.003082275390625,-0.0095062255859375,0.0272979736328125
1772462547842572800,1.53857275390625,-1.003265380859375,-0.00970458984375,0.0278167724609375
1772462547852621000,1.54862109375,-1.00244140625,-0.008880615234375,0.0281219482421875
1772462547862669800,1.558669921875,-1.0024871826171875,-0.0091552734375,0.0283050537109375
1772462547872718000,1.568718017578125,-1.002655029296875,-0.009033203125,0.0283050537109375
1772462547882766000,1.57876611328125,-1.0031585693359375,-0.0099334716796875,0.0288238525390625
1772462547892815000,1.588815185546875,-1.002685546875,-0.00958251953125,0.0278472900390625
1772462547902863000,1.598863037109375,-1.0022125244140625,-0.00933837890625,0.028839111328125
1772462547912912100,1.608912109375,-1.00238037109375,-0.0100555419921875,0.0291595458984375
1772462547922960100,1.618960205078125,-1.0034942626953125,-0.0090789794921875,0.0276641845703125
1772462547933008000,1.6290078125,-1.0032196044921875,-0.0091400146484375,0.0275115966796875
1772462547943057200,1.63905712890625,-1.001861572265625,-0.00897216796875,0.0284576416015625
1772462547953105000,1.64910498046875,-1.0025177001953125,-0.0095062255859375,0.0286407470703125
1772462547963154200,1.659154296875,-1.0044403076171875,-0.009307861328125,0.0283050537109375
1772462547973202000,1.669201904296875,-1.0036468505859375,-0.0091400146484375,0.0282440185546875
1772462547983250200,1.679250244140625,-1.0022125244140625,-0.0094757080078125,0.027862548828125
1772462547993299000,1.689298828125,-1.0022125244140625,-0.00885009765625,0.0286102294921875
1772462548003347200,1.69934716796875,-1.003448486328125,-0.0086212158203125,0.028472900390625
1772462548013396000,1.70939599609375,-1.003326416015625,-0.009857177734375,0.0284576416015625
1772462548023444000,1.71944384765625,-1.0023345947265625,-0.0097808837890625,0.0290679931640625
1772462548033492000,1.729491943359375,-1.00048828125,-0.009735107421875,0.028839111328125
1772462548043541000,1.739541015625,-1.001922607421875,-0.00909423828125,0.027679443359375
1772462548053589000,1.749589111328125,-1.0039215087890625,-0.00860595703125,0.028106689453125
1772462548063638000,1.759637939453125,-1.0037078857421875,-0.008697509765625,0.0281524658203125
1772462548073686000,1.76968603515625,-1.002532958984375,-0.009307861328125,0.0279083251953125
1772462548083734000,1.779734130859375,-1.00201416015625,-0.008636474609375,0.0279541015625
1772462548093783000,1.789782958984375,-1.003173828125,-0.00933837890625,0.028045654296875
1772462548103831000,1.7998310546875,-1.0043792724609375,-0.009490966796875,0.0290069580078125
1772462548113880000,1.809880126953125,-1.0042724609375,-0.0093841552734375,0.0281982421875
1772462548123928000,1.819927978515625,-1.0005645751953125,-0.00946044921875,0.0281524658203125
1772462548133976000,1.82997607421875,-1.0016632080078125,-0.010009765625,0.0293426513671875
1772462548144025000,1.840025146484375,-1.0042724609375,-0.0094757080078125,0.0286865234375
1772462548154073000,1.850072998046875,-1.0039825439453125,-0.00909423828125,0.0282135009765625
1772462548164122000,1.8601220703125,-1.002227783203125,-0.0091400146484375,0.0278778076171875
1772462548174170000,1.870170166015625,-1.002227783203125,-0.0086822509765625,0.028350830078125
1772462548184217900,1.8802177734375,-1.0034027099609375,-0.0099945068359375,0.0284423828125
1772462548194267100,1.89026708984375,-1.003448486328125,-0.0104217529296875,0.0282745361328125
1772462548204315000,1.90031494140625,-1.0024566650390625,-0.0100555419921875,0.0280609130859375
1772462548214364200,1.9103642578125,-1.0012969970703125,-0.0094757080078125,0.0281982421875
1772462548224412000,1.920411865234375,-1.0023193359375,-0.00946044921875,0.0282135009765625
1772462548234460200,1.930460205078125,-1.002899169921875,-0.009185791015625,0.0281219482421875
1772462548244509000,1.940509033203125,-1.0025787353515625,-0.008941650390625,0.0279083251953125
1772462548254557200,1.95055712890625,-1.002899169921875,-0.00927734375,0.0278778076171875
1772462548264606000,1.96060595703125,-1.00274658203125,-0.009521484375,0.0280609130859375
1772462548274654200,1.970654296875,-1.0027008056640625,-0.009033203125,0.02728271484375
1772462548284702000,1.980701904296875,-1.0031280517578125,-0.0095062255859375,0.0282135009765625
1772462548294751000,1.9907509765625,-1.00262451171875,-0.0091400146484375,0.0277252197265625
1772462548304799000,2.000799072265625,-1.00238037109375,-0.00927734375,0.0281982421875
1772462548314848000,2.010847900390625,-1.002471923828125,-0.0098724365234375,0.0280914306640625
1772462548324896000,2.02089599609375,-1.002960205078125,-0.01025390625,0.028411865234375
1772462548334944000,2.030944091796875,-1.002471923828125,-0.009124755859375,0.0283203125
1772462548344993000,2.040992919921875,-1.0019989013671875,-0.009185791015625,0.02740478515625
1772462548355041000,2.051041015625,-1.0023040771484375,-0.0089569091796875,0.0277252197265625
1772462548365090000,2.061090087890625,-1.0032806396484375,-0.009521484375,0.0276336669921875
1772462548375138000,2.071137939453125,-1.001617431640625,-0.0089874267578125,0.0279693603515625
1772462548385186000,2.08118603515625,-1.00225830078125,-0.0093536376953125,0.028533935546875
1772462548395235000,2.091235107421875,-1.0026702880859375,-0.0095977783203125,0.027618408203125
1772462548405283000,2.101282958984375,-1.0026092529296875,-0.009735107421875,0.0278167724609375
1772462548415332000,2.11133203125,-1.0025787353515625,-0.0097503662109375,0.028411865234375
1772462548425380000,2.121380126953125,-1.001251220703125,-0.0100860595703125,0.0279693603515625
1772462548435428000,2.131427978515625,-1.001708984375,-0.0099945068359375,0.0279693603515625
1772462548445477000,2.14147705078125,-1.0041046142578125,-0.0089111328125,0.02801513671875
1772462548455525000,2.151525146484375,-1.0033721923828125,-0.0097808837890625,0.0278472900390625
1772462548465574100,2.16157421875,-1.0027923583984375,-0.0093841552734375,0.02801513671875
1772462548475622000,2.171621826171875,-1.002471923828125,-0.0096588134765625,0.0274658203125
1772462548485670100,2.181670166015625,-1.0029754638671875,-0.008819580078125,0.0279998779296875
1772462548495719000,2.191718994140625,-1.00335693359375,-0.0090484619140625,0.0282745361328125
1772462548505767200,2.20176708984375,-1.003265380859375,-0.008880615234375,0.0272674560546875
1772462548515816000,2.21181591796875,-1.0016326904296875,-0.008819580078125,0.0281829833984375
1772462548525864200,2.2218642578125,-1.002197265625,-0.009307861328125,0.0279998779296875
1772462548535912000,2.231911865234375,-1.0035400390625,-0.0094757080078125,0.0294647216796875
1772462548545961200,2.241961181640625,-1.0027618408203125,-0.009857177734375,0.0284576416015625
1772462548556009000,2.252009033203125,-1.0025482177734375,-0.009368896484375,0.027984619140625
1772462548566058200,2.262058349609375,-1.002593994140625,-0.009307861328125,0.02880859375
1772462548576106000,2.27210595703125,-1.0035552978515625,-0.0091705322265625,0.0272674560546875
1772462548586155000,2.282155029296875,-1.002685546875,-0.0102386474609375,0.02899169921875
1772462548596203000,2.292203125,-1.0022430419921875,-0.00933837890625,0.0289154052734375
1772462548606251000,2.3022509765625,-1.0030364990234375,-0.0096893310546875,0.02752685546875
1772462548616300000,2.312300048828125,-1.003387451171875,-0.0099945068359375,0.0279083251953125
1772462548626348000,2.32234814453125,-1.00250244140625,-0.0090789794921875,0.0278778076171875
1772462548636397000,2.33239697265625,-1.00189208984375,-0.0091400146484375,0.02813720703125
1772462548646445000,2.342445068359375,-1.002777099609375,-0.009033203125,0.028594970703125
1772462548656493000,2.3524931640625,-1.00335693359375,-0.0090789794921875,0.0284576416015625
1772462548666542000,2.3625419921875,-1.00250244140625,-0.0095672607421875,0.0285797119140625
1772462548676590000,2.372590087890625,-1.0026702880859375,-0.00970458984375,0.0280609130859375
1772462548686639000,2.38263916015625,-1.0031280517578125,-0.009185791015625,0.0281219482421875
1772462548696687000,2.39268701171875,-1.0028076171875,-0.0093994140625,0.028228759765625
1772462548706735000,2.402735107421875,-1.0018157958984375,-0.0096282958984375,0.02789306640625
1772462548716784000,2.4127841796875,-1.0030975341796875,-0.008819580078125,0.0276031494140625
1772462548726832000,2.42283203125,-1.0030059814453125,-0.009613037109375,0.02813720703125
1772462548736881000,2.432880859375,-1.002197265625,-0.0101165771484375,0.0274200439453125
1772462548746929000,2.442928955078125,-1.00225830078125,-0.010498046875,0.0276641845703125
1772462548756977200,2.45297705078125,-1.0032806396484375,-0.00958251953125,0.0273284912109375
1772462548767026000,2.46302587890625,-1.003570556640625,-0.009857177734375,0.028472900390625
1772462548777074200,2.47307421875,-1.002471923828125,-0.0098419189453125,0.0281524658203125
1772462548787123000,2.483123046875,-1.002166748046875,-0.0087890625,0.0282135009765625
1772462548797171200,2.493171142578125,-1.002777099609375,-0.008819580078125,0.028350830078125
1772462548807219000,2.503218994140625,-1.003082275390625,-0.009002685546875,0.02789306640625
1772462548817268200,2.513268310546875,-1.0027923583984375,-0.00927734375,0.0283660888671875
1772462548827315700,2.523315673828125,-1.0021820068359375,-0.009368896484375,0.0278778076171875
1772462548837365000,2.533364990234375,-1.0027618408203125,-0.0094757080078125,0.0278778076171875
1772462548847412700,2.543412841796875,-1.003265380859375,-0.0090484619140625,0.0281982421875
1772462548857461000,2.5534609375,-1.0030364990234375,-0.0094757080078125,0.027984619140625
1772462548867509800,2.563509765625,-1.0034637451171875,-0.0093841552734375,0.0277099609375
1772462548877558000,2.57355810546875,-1.002593994140625,-0.009368896484375,0.028594970703125
1772462548887606800,2.583606689453125,-1.002716064453125,-0.009429931640625,0.0281982421875
1772462548897655000,2.593655029296875,-1.0048828125,-0.0092315673828125,0.028076171875
1772462548907703000,2.603703125,-1.0033416748046875,-0.0104827880859375,0.0283050537109375
1772462548917752000,2.613751953125,-1.002105712890625,-0.0089263916015625,0.0279998779296875
1772462548927800000,2.623800048828125,-1.001861572265625,-0.009246826171875,0.02734375
1772462548937848800,2.633848876953125,-1.002593994140625,-0.0087738037109375,0.0279388427734375
1772462548947896800,2.643896728515625,-1.0032501220703125,-0.009735107421875,0.0283966064453125
1772462548957945900,2.65394580078125,-1.0033721923828125,-0.0090789794921875,0.027923583984375
1772462548967993900,2.663993896484375,-1.0014801025390625,-0.00982666015625,0.02813720703125
1772462548978041900,2.674041748046875,-1.00103759765625,-0.00946044921875,0.02740478515625
1772462548988091000,2.6840908203125,-1.003204345703125,-0.00872802734375,0.0291900634765625
1772462548998139000,2.694138916015625,-1.0032806396484375,-0.00933837890625,0.027984619140625
1772462549008188000,2.70418798828125,-1.00128173828125,-0.0096893310546875,0.02764892578125
1772462549018236000,2.71423583984375,-1.0020904541015625,-0.0089111328125,0.0276641845703125
1772462549028284000,2.724283935546875,-1.0044097900390625,-0.0090484619140625,0.02764892578125
1772462549038333000,2.7343330078125,-1.0042572021484375,-0.0088653564453125,0.02899169921875
1772462549048381000,2.744380859375,-1.0023193359375,-0.01025390625,0.028717041015625
1772462549058430000,2.754429931640625,-1.0023651123046875,-0.009521484375,0.028472900390625
1772462549068478000,2.76447802734375,-1.00347900390625,-0.0099334716796875,0.028472900390625
1772462549078526000,2.77452587890625,-1.0037841796875,-0.01007080078125,0.028411865234375
1772462549088575000,2.784574951171875,-1.0029449462890625,-0.009918212890625,0.0283966064453125
1772462549098623000,2.794623046875,-1.00311279296875,-0.0094757080078125,0.0279693603515625
1772462549108672000,2.804672119140625,-1.0028228759765625,-0.0084991455078125,0.028564453125
1772462549118719700,2.8147197265625,-1.0039215087890625,-0.009246826171875,0.0274810791015625
1772462549128768000,2.82476806640625,-1.003082275390625,-0.009429931640625,0.027435302734375
1772462549138816800,2.834816650390625,-1.0022430419921875,-0.008880615234375,0.02801513671875
1772462549148865000,2.844864990234375,-1.000885009765625,-0.0089874267578125,0.0275421142578125
1772462549158913800,2.854913818359375,-1.0025787353515625,-0.0090789794921875,0.029083251953125
1772462549168962000,2.864962158203125,-1.0027008056640625,-0.008758544921875,0.02777099609375
1772462549179010800,2.8750107421875,-1.0040435791015625,-0.00909423828125,0.0279693603515625
1772462549189059000,2.88505908203125,-1.002685546875,-0.0092315673828125,0.0282745361328125
1772462549199106800,2.89510693359375,-0.9995880126953125,-0.010345458984375,0.0283203125
1772462549209156000,2.905156005859375,-1.0030670166015625,-0.00933837890625,0.0272369384765625
1772462549219203800,2.915203857421875,-1.0042724609375,-0.008514404296875,0.0273590087890625
1772462549229252900,2.9252529296875,-1.003936767578125,-0.009124755859375,0.0279541015625
1772462549239300900,2.93530078125,-1.0015716552734375,-0.010162353515625,0.0274810791015625
1772462549249348900,2.945348876953125,-0.999969482421875,-0.0106201171875,0.0279541015625
1772462549259398000,2.95539794921875,-1.003143310546875,-0.00946044921875,0.0282135009765625
1772462549269446000,2.96544580078125,-1.0048370361328125,-0.009185791015625,0.02740478515625
1772462549279495000,2.975494873046875,-1.003570556640625,-0.0092315673828125,0.02813720703125
1772462549289543000,2.98554296875,-1.000579833984375,-0.009979248046875,0.0279693603515625
1772462549299591000,2.9955908203125,-1.0005645751953125,-0.009918212890625,0.0281524658203125
1772462549309640000,3.005639892578125,-1.004669189453125,-0.009124755859375,0.0277252197265625
1772462549319688000,3.01568798828125,-1.005096435546875,-0.009857177734375,0.028656005859375
1772462549329737000,3.025737060546875,-1.0032196044921875,-0.00958251953125,0.0284423828125
1772462549339785000,3.035784912109375,-1.0024566650390625,-0.009613037109375,0.0275726318359375
1772462549349833000,3.0458330078125,-1.002593994140625,-0.0092926025390625,0.0281219482421875
1772462549359882000,3.055882080078125,-1.0040283203125,-0.00921630859375,0.0277557373046875
1772462549369930000,3.065929931640625,-1.00335693359375,-0.0089874267578125,0.028106689453125
1772462549379979000,3.07597900390625,-1.0016632080078125,-0.0089569091796875,0.0281524658203125
1772462549390026800,3.08602685546875,-1.001190185546875,-0.0101318359375,0.0283355712890625
1772462549400076000,3.096075927734375,-1.002685546875,-0.0094451904296875,0.028717041015625
1772462549410123800,3.106123779296875,-1.0050201416015625,-0.0098724365234375,0.028289794921875
1772462549420172000,3.116172119140625,-1.0052032470703125,-0.009521484375,0.0282135009765625
1772462549430220800,3.126220703125,-1.0028076171875,-0.009979248046875,0.028594970703125
1772462549440269000,3.13626904296875,-1.0004119873046875,-0.010406494140625,0.028961181640625
1772462549450317800,3.14631787109375,-1.00244140625,-0.0091400146484375,0.0278167724609375
1772462549460366000,3.156365966796875,-1.0037078857421875,-0.009124755859375,0.0284423828125
1772462549470413800,3.166413818359375,-1.0044708251953125,-0.0091552734375,0.028564453125
1772462549480463000,3.176463134765625,-1.0022735595703125,-0.0093994140625,0.0283966064453125
1772462549490510800,3.1865107421875,-1.001953125,-0.0095977783203125,0.0281524658203125
1772462549500560000,3.196559814453125,-1.00335693359375,-0.0093536376953125,0.0284881591796875
1772462549510608000,3.20660791015625,-1.00299072265625,-0.009033203125,0.0271759033203125
1772462549520656000,3.21665576171875,-1.0018463134765625,-0.0095367431640625,0.027679443359375
1772462549530705000,3.226704833984375,-1.0017547607421875,-0.009552001953125,0.027679443359375
1772462549540753000,3.2367529296875,-1.0025634765625,-0.0097808837890625,0.0279541015625
1772462549550802000,3.246802001953125,-1.0032958984375,-0.01025390625,0.027740478515625
1772462549560850000,3.256849853515625,-1.0029144287109375,-0.009246826171875,0.0276947021484375
1772462549570899000,3.26689892578125,-1.0023956298828125,-0.0097503662109375,0.0276031494140625
1772462549580947000,3.276947021484375,-1.002838134765625,-0.0090179443359375,0.0282440185546875
1772462549590995000,3.286994873046875,-1.001556396484375,-0.0091705322265625,0.028106689453125
1772462549601044000,3.2970439453125,-1.003509521484375,-0.0091400146484375,0.0283355712890625
1772462549611092000,3.307092041015625,-1.0029296875,-0.0092315673828125,0.027801513671875
1772462549621141000,3.31714111328125,-1.002655029296875,-0.0093536376953125,0.027496337890625
1772462549631189000,3.32718896484375,-1.003204345703125,-0.0095672607421875,0.0294342041015625
1772462549641238000,3.337238037109375,-1.00244140625,-0.0087890625,0.02880859375
1772462549651285800,3.34728564453125,-1.00341796875,-0.0092315673828125,0.028533935546875
1772462549661334000,3.357333984375,-1.0032501220703125,-0.0089263916015625,0.027984619140625
1772462549671382800,3.3673828125,-1.0024261474609375,-0.0102081298828125,0.027923583984375
1772462549681430800,3.3774306640625,-1.0028533935546875,-0.010009765625,0.0281219482421875
1772462549691479800,3.387479736328125,-1.0032958984375,-0.009246826171875,0.02825927734375
1772462549701527800,3.39752783203125,-1.004425048828125,-0.0089874267578125,0.028076171875
1772462549711576000,3.407576171875,-1.0026702880859375,-0.00897216796875,0.0279998779296875
1772462549721624800,3.417624755859375,-1.0014495849609375,-0.0092620849609375,0.028411865234375
1772462549731673000,3.427673095703125,-1.003662109375,-0.00946044921875,0.029052734375
1772462549741721900,3.437721923828125,-1.00360107421875,-0.009674072265625,0.0280914306640625
1772462549751770000,3.44777001953125,-1.0027008056640625,-0.00982666015625,0.0277862548828125
1772462549761817900,3.45781787109375,-1.001495361328125,-0.0096282958984375,0.0277557373046875
1772462549771867100,3.4678671875,-1.002532958984375,-0.0093536376953125,0.0279541015625
1772462549781915000,3.477914794921875,-1.0035552978515625,-0.009246826171875,0.02789306640625
1772462549791964000,3.4879638671875,-1.0035552978515625,-0.0094146728515625,0.0279083251953125
1772462549802012000,3.498011962890625,-1.0026397705078125,-0.0089111328125,0.0290069580078125
1772462549812060000,3.508059814453125,-1.00189208984375,-0.00933837890625,0.028594970703125
1772462549822109000,3.51810888671875,-1.00323486328125,-0.0093841552734375,0.027587890625
1772462549832157700,3.52815771484375,-1.002960205078125,-0.0096282958984375,0.0276031494140625
1772462549842206500,3.53820654296875,-1.002227783203125,-0.0096435546875,0.0286102294921875
1772462549852254700,3.548254638671875,-1.0021820068359375,-0.00927734375,0.0281829833984375
1772462549862303500,3.558303466796875,-1.0026702880859375,-0.0094146728515625,0.029327392578125
1772462549872351700,3.568351806640625,-1.0028839111328125,-0.0094451904296875,0.0275421142578125
1772462549882399500,3.5783994140625,-1.00244140625,-0.0088348388671875,0.0277557373046875
1772462549892448800,3.58844873046875,-1.0035247802734375,-0.00946044921875,0.0282440185546875
1772462549902496500,3.59849658203125,-1.0034027099609375,-0.009674072265625,0.027923583984375
1772462549912545500,3.608545654296875,-1.0029144287109375,-0.00909423828125,0.0277099609375
1772462549922593500,3.618593505859375,-1.002716064453125,-0.00909423828125,0.02801513671875
1772462549932641500,3.6286416015625,-1.0038299560546875,-0.0095367431640625,0.0279693603515625
1772462549942690600,3.638690673828125,-1.00286865234375,-0.00970458984375,0.028228759765625
1772462549952738600,3.648738525390625,-1.00323486328125,-0.0094146728515625,0.028106689453125
1772462549962787600,3.65878759765625,-1.0031280517578125,-0.0092315673828125,0.027801513671875
1772462549972835600,3.668835693359375,-1.002960205078125,-0.0091705322265625,0.0286407470703125
1772462549982883300,3.67888330078125,-1.00250244140625,-0.009307861328125,0.02813720703125
1772462549992932600,3.6889326171875,-1.0034027099609375,-0.00958251953125,0.02850341796875
1772462550002980400,3.69898046875,-1.002655029296875,-0.009002685546875,0.02874755859375
1772462550013029600,3.709029541015625,-1.0026397705078125,-0.0087890625,0.0280303955078125
1772462550023077400,3.719077392578125,-1.0030975341796875,-0.0093994140625,0.0283050537109375
1772462550033126700,3.729126708984375,-1.002349853515625,-0.0095367431640625,0.0283050537109375
1772462550043174400,3.73917431640625,-1.00250244140625,-0.009521484375,0.027740478515625
1772462550053222700,3.74922265625,-1.002716064453125,-0.009246826171875,0.0279388427734375
1772462550063271400,3.759271484375,-1.0042877197265625,-0.0087127685546875,0.0281219482421875
1772462550073319400,3.7693193359375,-1.003387451171875,-0.00872802734375,0.027862548828125
1772462550083368400,3.779368408203125,-1.0026092529296875,-0.00946044921875,0.0279388427734375
1772462550093416400,3.78941650390625,-1.0036163330078125,-0.009490966796875,0.02825927734375
1772462550103465500,3.799465576171875,-1.0030517578125,-0.0096435546875,0.0277252197265625
1772462550113513500,3.809513427734375,-1.0037078857421875,-0.00933837890625,0.0276641845703125
1772462550123561700,3.819561767578125,-1.0030059814453125,-0.009368896484375,0.0283966064453125
1772462550133610500,3.829610595703125,-1.0019989013671875,-0.0097503662109375,0.02825927734375
1772462550143658800,3.83965869140625,-1.0034942626953125,-0.010009765625,0.028076171875
1772462550153707500,3.84970751953125,-1.0031280517578125,-0.0098114013671875,0.0276031494140625
1772462550163755800,3.859755859375,-1.003021240234375,-0.009429931640625,0.0284271240234375
1772462550173803500,3.869803466796875,-1.0023651123046875,-0.009368896484375,0.028106689453125
1772462550183852500,3.8798525390625,-1.0013427734375,-0.009490966796875,0.0280914306640625
1772462550193900500,3.889900634765625,-1.002655029296875,-0.0092926025390625,0.0280914306640625
1772462550203949600,3.899949462890625,-1.0034332275390625,-0.0093231201171875,0.0273590087890625
1772462550213997600,3.90999755859375,-1.0036163330078125,-0.0092315673828125,0.0288238525390625
1772462550224046600,3.920046630859375,-1.0023651123046875,-0.00946044921875,0.0289764404296875
1772462550234094600,3.930094482421875,-0.9995269775390625,-0.0086822509765625,0.0272979736328125
1772462550244142600,3.940142578125,-1.0025787353515625,-0.0103302001953125,0.028656005859375
1772462550254191600,3.950191650390625,-1.0029144287109375,-0.00994873046875,0.0283966064453125
1772462550264239600,3.960239501953125,-1.0027618408203125,-0.0098724365234375,0.0280914306640625
1772462550274288600,3.97028857421875,-1.0061187744140625,-0.0096435546875,0.0280303955078125
1772462550284336600,3.980336669921875,-1.0081939697265625,-0.008514404296875,0.0281524658203125
1772462550294384400,3.99038427734375,-1.0000457763671875,-0.007904052734375,0.0275421142578125
1772462550304433700,4.00043359375,-0.9973297119140625,-0.0086822509765625,0.027496337890625
1772462550314481400,4.0104814453125,-1.00408935546875,-0.0089263916015625,0.0283660888671875
1772462550324530700,4.02053076171875,-1.00860595703125,-0.0092926025390625,0.0283050537109375
1772462550334578400,4.030578369140625,-1.0023040771484375,-0.0098724365234375,0.0281982421875
1772462550344626700,4.040626708984375,-0.9971466064453125,-0.0091400146484375,0.0283355712890625
1772462550354675500,4.050675537109375,-1.000244140625,-0.0091705322265625,0.028228759765625
1772462550364723500,4.060723388671875,-1.0071868896484375,-0.01025390625,0.0282440185546875
1772462550374772500,4.0707724609375,-1.00640869140625,-0.0096435546875,0.02783203125
1772462550384820500,4.080820556640625,-1.001312255859375,-0.0085296630859375,0.0276336669921875
1772462550394868700,4.09086865234375,-0.9998931884765625,-0.009002685546875,0.027923583984375
1772462550404917500,4.10091748046875,-1.001312255859375,-0.0086822509765625,0.0276336669921875
1772462550414965500,4.110965576171875,-0.9942169189453125,-0.009002685546875,0.02679443359375
1772462550425014500,4.1210146484375,-1.0122833251953125,-0.0089569091796875,0.0288848876953125
1772462550435062500,4.1310625,-1.014678955078125,-0.01116943359375,0.0312347412109375
1772462550445111600,4.141111572265625,-0.992919921875,-0.011810302734375,0.0294189453125
1772462550455159600,4.15115966796875,-0.9921875,-0.0108795166015625,0.0304412841796875
1772462550465207600,4.16120751953125,-1.0066986083984375,-0.0086822509765625,0.02886962890625
1772462550475256300,4.17125634765625,-1.0140228271484375,-0.0078887939453125,0.026763916015625
1772462550485304600,4.1813046875,-1.0030364990234375,-0.008392333984375,0.02655029296875
1772462550495353300,4.191353271484375,-0.99273681640625,-0.0092010498046875,0.0273284912109375
1772462550505401600,4.201401611328125,-0.99798583984375,-0.0086517333984375,0.0299072265625
1772462550515449600,4.21144970703125,-1.0135040283203125,-0.010284423828125,0.0296173095703125
1772462550525498600,4.22149853515625,-1.01068115234375,-0.0111083984375,0.0290069580078125
1772462550535546600,4.231546630859375,-0.99688720703125,-0.0089874267578125,0.0271453857421875
1772462550545595600,4.241595703125,-0.994110107421875,-0.0087432861328125,0.0261077880859375
1772462550555643600,4.2516435546875,-1.0051727294921875,-0.0095977783203125,0.0259857177734375
1772462550565692700,4.261692626953125,-1.0139007568359375,-0.00872802734375,0.0265350341796875
1772462550575740700,4.27174072265625,-1.0037078857421875,-0.008209228515625,0.02813720703125
1772462550585788400,4.281788330078125,-0.9942626953125,-0.0092926025390625,0.0298919677734375
1772462550595837700,4.291837646484375,-0.9982452392578125,-0.0105133056640625,0.029571533203125
1772462550605885400,4.301885498046875,-1.0088958740234375,-0.0107421875,0.029693603515625
1772462550615934700,4.311934814453125,-1.00823974609375,-0.0097198486328125,0.02923583984375
1772462550625982500,4.321982421875,-0.999664306640625,-0.0092315673828125,0.028106689453125
1772462550636030500,4.332030517578125,-0.9987335205078125,-0.0097198486328125,0.0288238525390625
1772462550646079500,4.34207958984375,-1.0041046142578125,-0.0110321044921875,0.028564453125
1772462550656127500,4.35212744140625,-1.0089111328125,-0.00946044921875,0.0287628173828125
1772462550666176500,4.362176513671875,-1.00482177734375,-0.0085296630859375,0.02880859375
1772462550676224500,4.372224609375,-0.9978485107421875,-0.009002685546875,0.0278472900390625
1772462550686273500,4.3822734375,-0.9999237060546875,-0.0081787109375,0.027374267578125
1772462550696321500,4.392321533203125,-1.0063629150390625,-0.00885009765625,0.027008056640625
1772462550706369500,4.40236962890625,-1.0048370361328125,-0.0082855224609375,0.0277252197265625
1772462550716418600,4.41241845703125,-1.000335693359375,-0.0091400146484375,0.0282440185546875
1772462550726466600,4.422466552734375,-1.0001983642578125,-0.01104736328125,0.02783203125
1772462550736515600,4.432515625,-1.0051422119140625,-0.00994873046875,0.0284271240234375
1772462550746563300,4.442563232421875,-1.00775146484375,-0.009307861328125,0.0282440185546875
1772462550756611600,4.452611572265625,-1.0032958984375,-0.008819580078125,0.027984619140625
1772462550766660400,4.462660400390625,-0.9995574951171875,-0.0089263916015625,0.027069091796875
1772462550776708600,4.47270849609375,-1.002166748046875,-0.0093841552734375,0.026397705078125
1772462550786757400,4.48275732421875,-1.0057373046875,-0.0094757080078125,0.02825927734375
1772462550796805600,4.4928056640625,-1.0049285888671875,-0.008941650390625,0.0295562744140625
1772462550806854400,4.5028544921875,-0.9999542236328125,-0.0093536376953125,0.0293426513671875
1772462550816902700,4.512902587890625,-1.0004119873046875,-0.011077880859375,0.0289459228515625
1772462550826950700,4.52295068359375,-1.0045013427734375,-0.01031494140625,0.0283660888671875
1772462550836999000,4.5329990234375,-1.005950927734375,-0.009063720703125,0.0282135009765625
1772462550847047200,4.543047119140625,-1.0029449462890625,-0.0093536376953125,0.027984619140625
1772462550857096000,4.553095947265625,-0.9998931884765625,-0.008880615234375,0.0267181396484375
1772462550867144200,4.563144287109375,-1.0014495849609375,-0.0088348388671875,0.0269775390625
1772462550877193000,4.57319287109375,-1.005096435546875,-0.009033203125,0.028289794921875
1772462550887241200,4.5832412109375,-1.0044097900390625,-0.0086212158203125,0.0280303955078125
1772462550897289000,4.5932890625,-0.9991607666015625,-0.009429931640625,0.0270233154296875
1772462550907338200,4.603338134765625,-0.9996185302734375,-0.009979248046875,0.02789306640625
1772462550917386000,4.613385986328125,-1.0038299560546875,-0.009918212890625,0.02801513671875
1772462550927435300,4.623435302734375,-1.0048980712890625,-0.009735107421875,0.029541015625
1772462550937483000,4.63348291015625,-1.00360107421875,-0.00982666015625,0.028900146484375
1772462550947532000,4.643531982421875,-1.00225830078125,-0.0108489990234375,0.0291290283203125
1772462550957580000,4.653580078125,-1.0025482177734375,-0.0104217529296875,0.029083251953125
1772462550967628000,4.6636279296875,-1.0041656494140625,-0.0091705322265625,0.02838134765625
1772462550977677000,4.673677001953125,-1.0042572021484375,-0.009552001953125,0.02801513671875
1772462550987725000,4.68372509765625,-1.0031585693359375,-0.0095367431640625,0.0267181396484375
1772462550997774000,4.693774169921875,-1.0013885498046875,-0.0093536376953125,0.027191162109375
1772462551007822000,4.703822021484375,-1.001617431640625,-0.009307861328125,0.0285186767578125
1772462551017871000,4.71387109375,-1.003814697265625,-0.009613037109375,0.0292205810546875
1772462551027919000,4.723919189453125,-1.005615234375,-0.009307861328125,0.028656005859375
1772462551037966800,4.733966796875,-1.0026397705078125,-0.00927734375,0.0282135009765625
1772462551048016100,4.74401611328125,-1.0014495849609375,-0.008636474609375,0.0277099609375
1772462551058064000,4.75406396484375,-1.0023040771484375,-0.00933837890625,0.027801513671875
1772462551068113200,4.764113037109375,-1.003814697265625,-0.009033203125,0.027496337890625
1772462551078161000,4.774160888671875,-1.002349853515625,-0.0095977783203125,0.028289794921875
1772462551088210200,4.784210205078125,-1.000885009765625,-0.010101318359375,0.027984619140625
1772462551098258000,4.7942578125,-1.0024871826171875,-0.0097198486328125,0.0276641845703125
1772462551108306000,4.804305908203125,-1.00445556640625,-0.00927734375,0.028228759765625
1772462551118355000,4.81435498046875,-1.0035858154296875,-0.0098724365234375,0.02752685546875
1772462551128403000,4.82440283203125,-1.001434326171875,-0.00946044921875,0.0277099609375
1772462551138452000,4.834451904296875,-1.001434326171875,-0.0100555419921875,0.02716064453125
1772462551148500000,4.8445,-1.003631591796875,-0.009307861328125,0.0284576416015625
1772462551158549000,4.854549072265625,-1.004913330078125,-0.0092620849609375,0.0283203125
1772462551168597000,4.864596923828125,-1.0014495849609375,-0.009735107421875,0.028289794921875
1772462551178645200,4.874645263671875,-1.0011444091796875,-0.0097503662109375,0.028564453125
1772462551188694000,4.884694091796875,-1.0023345947265625,-0.0093994140625,0.0288848876953125
1772462551198742300,4.8947421875,-1.00469970703125,-0.0101776123046875,0.02911376953125
1772462551208791000,4.904791015625,-1.0023345947265625,-0.009368896484375,0.0289764404296875
1772462551218839000,4.914839111328125,-1.0003509521484375,-0.008636474609375,0.0285797119140625
1772462551228887000,4.924886962890625,-1.00213623046875,-0.0093841552734375,0.029052734375
1772462551238936000,4.93493603515625,-1.003631591796875,-0.0097198486328125,0.0281829833984375
1772462551248984000,4.944984130859375,-1.00396728515625,-0.0104522705078125,0.0283355712890625
1772462551259033000,4.955033203125,-1.0020904541015625,-0.009613037109375,0.0277862548828125
1772462551269081000,4.9650810546875,-1.0017242431640625,-0.0095367431640625,0.0284423828125
1772462551279129900,4.9751298828125,-1.0023040771484375,-0.00927734375,0.0281219482421875
1772462551289178000,4.98517822265625,-1.003448486328125,-0.0096435546875,0.027984619140625
1772462551299226000,4.99522607421875,-1.003021240234375,-0.0095062255859375,0.0278778076171875
1772462551309275100,5.005275146484375,-1.0017242431640625,-0.0098419189453125,0.027557373046875
1772462551319323100,5.0153232421875,-1.0027923583984375,-0.010101318359375,0.027801513671875
1772462551329372000,5.025371826171875,-1.0052642822265625,-0.009521484375,0.0286102294921875
1772462551339420200,5.035420166015625,-1.003204345703125,-0.0100555419921875,0.0283660888671875
1772462551349469000,5.045468994140625,-1.001617431640625,-0.009307861328125,0.027862548828125
1772462551359517200,5.05551708984375,-1.001800537109375,-0.0091705322265625,0.028106689453125
1772462551369565000,5.06556494140625,-1.003326416015625,-0.0097808837890625,0.028228759765625
1772462551379614200,5.0756142578125,-1.00384521484375,-0.0091400146484375,0.0276947021484375
1772462551389662000,5.085661865234375,-1.00335693359375,-0.0096282958984375,0.028350830078125
1772462551399711200,5.095711181640625,-1.0015411376953125,-0.0092315673828125,0.02862548828125
1772462551409759000,5.105759033203125,-1.0027008056640625,-0.0098419189453125,0.0282135009765625
1772462551419807000,5.115806884765625,-1.00421142578125,-0.0093536376953125,0.027252197265625
1772462551429856000,5.12585595703125,-1.0022125244140625,-0.0086517333984375,0.0269775390625
1772462551439904000,5.135904052734375,-1.0010986328125,-0.0088958740234375,0.028228759765625
1772462551449953000,5.145953125,-1.002532958984375,-0.00885009765625,0.02862548828125
1772462551460001000,5.1560009765625,-1.0027008056640625,-0.0093994140625,0.028656005859375
1772462551470050000,5.166050048828125,-1.002197265625,-0.0094451904296875,0.0279541015625
1772462551480098000,5.17609814453125,-1.0022430419921875,-0.0089874267578125,0.0287322998046875
1772462551490146000,5.18614599609375,-1.0020904541015625,-0.010040283203125,0.0281524658203125
1772462551500195000,5.196195068359375,-1.003173828125,-0.0098114013671875,0.02783203125
1772462551510242800,5.206242919921875,-1.0025634765625,-0.0093841552734375,0.028350830078125
1772462551520292000,5.2162919921875,-1.0018310546875,-0.00909423828125,0.027984619140625
1772462551530339800,5.22633984375,-1.002288818359375,-0.0088348388671875,0.027679443359375
1772462551540389000,5.23638916015625,-1.0026397705078125,-0.0097808837890625,0.029083251953125
1772462551550436900,5.246436767578125,-1.003265380859375,-0.009857177734375,0.028411865234375
1772462551560485000,5.256485107421875,-1.003173828125,-0.009735107421875,0.02801513671875
1772462551570534000,5.266533935546875,-1.002960205078125,-0.0096588134765625,0.0277557373046875
1772462551580582100,5.27658203125,-1.002777099609375,-0.009002685546875,0.0282135009765625
1772462551590631000,5.286630859375,-1.002838134765625,-0.009033203125,0.028472900390625
1772462551600679200,5.29667919921875,-1.0023956298828125,-0.0100250244140625,0.027923583984375
1772462551610728000,5.30672802734375,-1.0023345947265625,-0.0101470947265625,0.0292816162109375
1772462551620776000,5.31677587890625,-1.0034942626953125,-0.0094146728515625,0.0283660888671875
1772462551630824200,5.32682421875,-1.00323486328125,-0.0099945068359375,0.02862548828125
1772462551640873000,5.336873046875,-1.003173828125,-0.0093231201171875,0.02825927734375
1772462551650921200,5.346921142578125,-1.0026397705078125,-0.00933837890625,0.0283966064453125
1772462551660970000,5.356969970703125,-1.00286865234375,-0.008392333984375,0.0281524658203125
1772462551671018200,5.367018310546875,-1.002960205078125,-0.008392333984375,0.027740478515625
1772462551681066000,5.37706591796875,-1.002044677734375,-0.009368896484375,0.028594970703125
1772462551691115300,5.387115234375,-1.0032806396484375,-0.0099945068359375,0.0285491943359375
1772462551701163000,5.3971630859375,-1.0023193359375,-0.0098876953125,0.028350830078125
1772462551711212000,5.4072119140625,-1.002471923828125,-0.009613037109375,0.0284423828125
1772462551721260000,5.417260009765625,-1.0024566650390625,-0.00958251953125,0.0288238525390625
1772462551731309000,5.42730908203125,-1.0032196044921875,-0.0098114013671875,0.0283355712890625
1772462551741357000,5.437357177734375,-1.0025787353515625,-0.00982666015625,0.0279083251953125
1772462551751405000,5.447405029296875,-1.0021514892578125,-0.0097503662109375,0.0274810791015625
1772462551761454000,5.4574541015625,-1.0023956298828125,-0.0089263916015625,0.0283966064453125
1772462551771502000,5.467502197265625,-1.002532958984375,-0.009033203125,0.0277252197265625
1772462551781551000,5.477551025390625,-1.0020904541015625,-0.0087738037109375,0.028289794921875
1772462551791599000,5.48759912109375,-1.0019683837890625,-0.0088043212890625,0.028289794921875
1772462551801648000,5.497648193359375,-1.0039215087890625,-0.0091400146484375,0.028076171875
1772462551811696000,5.507696044921875,-1.0029144287109375,-0.0101318359375,0.028350830078125
1772462551821743900,5.517743896484375,-1.0034942626953125,-0.01055908203125,0.02862548828125
1772462551831793700,5.527793701171875,-1.0034027099609375,-0.009979248046875,0.0279388427734375
1772462551841841700,5.537841552734375,-1.0027313232421875,-0.009735107421875,0.0284271240234375
1772462551851890700,5.547890625,-1.0027923583984375,-0.009796142578125,0.0286102294921875
1772462551861938700,5.557938720703125,-1.0025482177734375,-0.00885009765625,0.0282135009765625
1772462551871987700,5.56798779296875,-1.0018157958984375,-0.009307861328125,0.0280609130859375
1772462551882035700,5.57803564453125,-1.00335693359375,-0.0098114013671875,0.027679443359375
1772462551892084000,5.588083984375,-1.003204345703125,-0.00994873046875,0.02825927734375
1772462551902132700,5.5981328125,-1.0022430419921875,-0.0099334716796875,0.028106689453125
1772462551912181000,5.608180908203125,-1.0023040771484375,-0.0099334716796875,0.02874755859375
1772462551922229800,5.618229736328125,-1.0032958984375,-0.0098876953125,0.02899169921875
1772462551932277800,5.62827783203125,-1.0024566650390625,-0.0106964111328125,0.028839111328125
1772462551942326800,5.638326904296875,-1.0025177001953125,-0.00946044921875,0.028289794921875
1772462551952374800,5.648374755859375,-1.0023040771484375,-0.0097503662109375,0.0284423828125
1772462551962422800,5.6584228515625,-1.0036468505859375,-0.0096588134765625,0.0285491943359375
1772462551972471800,5.668471923828125,-1.0048980712890625,-0.0091400146484375,0.0283660888671875
1772462551982519800,5.678519775390625,-1.0023193359375,-0.0094757080078125,0.0285186767578125
1772462551992568800,5.68856884765625,-1.0023651123046875,-0.0099639892578125,0.027801513671875
1772462552002616800,5.698616943359375,-1.0036163330078125,-0.0101776123046875,0.0278778076171875
1772462552012664800,5.708664794921875,-1.0033416748046875,-0.0098114013671875,0.027862548828125
1772462552022713900,5.7187138671875,-1.0020294189453125,-0.01019287109375,0.028228759765625
1772462552032761900,5.728761962890625,-1.00189208984375,-0.00909423828125,0.0280914306640625
1772462552042810600,5.738810546875,-1.002166748046875,-0.00958251953125,0.0284881591796875
1772462552052859000,5.74885888671875,-1.00335693359375,-0.00946044921875,0.028839111328125
1772462552062907600,5.75890771484375,-1.0029754638671875,-0.0090789794921875,0.0282745361328125
1772462552072956000,5.768955810546875,-1.0023040771484375,-0.00946044921875,0.0288543701171875
1772462552083003600,5.779003662109375,-1.001556396484375,-0.0103759765625,0.028289794921875
1772462552093053000,5.789052978515625,-1.002410888671875,-0.0098724365234375,0.0283050537109375
1772462552103100700,5.7991005859375,-1.003570556640625,-0.00921630859375,0.027923583984375
1772462552113150000,5.80914990234375,-1.0037384033203125,-0.009490966796875,0.028778076171875
1772462552123197700,5.81919775390625,-1.002044677734375,-0.01007080078125,0.0287017822265625
1772462552133247000,5.8292470703125,-1.003082275390625,-0.008544921875,0.0277557373046875
1772462552143294700,5.839294677734375,-1.002716064453125,-0.0098114013671875,0.02801513671875
1772462552153342700,5.8493427734375,-1.0027923583984375,-0.0092010498046875,0.0283050537109375
1772462552163391700,5.859391845703125,-1.0034332275390625,-0.008697509765625,0.0281982421875
1772462552173439700,5.869439697265625,-1.00360107421875,-0.0098114013671875,0.0283203125
1772462552183488800,5.87948876953125,-1.002838134765625,-0.010345458984375,0.0281829833984375
1772462552193536800,5.889536865234375,-1.00213623046875,-0.009368896484375,0.028472900390625
1772462552203585800,5.899585693359375,-1.0023345947265625,-0.010040283203125,0.0283966064453125
1772462552213633800,5.9096337890625,-1.0016632080078125,-0.0096435546875,0.02783203125
1772462552223681800,5.919681884765625,-1.0036468505859375,-0.0096435546875,0.0281982421875
1772462552233730800,5.929730712890625,-1.0030975341796875,-0.008514404296875,0.02752685546875
1772462552243778800,5.93977880859375,-1.0031585693359375,-0.0084381103515625,0.027801513671875
1772462552253827800,5.949827880859375,-1.002288818359375,-0.0093841552734375,0.028045654296875
1772462552263875800,5.959875732421875,-1.0018310546875,-0.0092315673828125,0.02813720703125
1772462552273924900,5.9699248046875,-1.0048675537109375,-0.0093231201171875,0.028564453125
1772462552283972900,5.979972900390625,-1.002838134765625,-0.0097198486328125,0.028289794921875
1772462552294020900,5.990020751953125,-1.00201416015625,-0.0098876953125,0.0281219482421875
1772462552304069600,6.000069580078125,-1.0025634765625,-0.0101165771484375,0.02899169921875
1772462552314118000,6.010117919921875,-1.0031585693359375,-0.00982666015625,0.02899169921875
1772462552324166700,6.020166748046875,-1.0028076171875,-0.010223388671875,0.027801513671875
1772462552334214700,6.030214599609375,-1.0024566650390625,-0.009185791015625,0.027923583984375
1772462552344263700,6.040263671875,-1.00274658203125,-0.008392333984375,0.0282745361328125
1772462552354311700,6.050311767578125,-1.0027313232421875,-0.0085601806640625,0.027740478515625
1772462552364360000,6.06035986328125,-1.003143310546875,-0.009246826171875,0.0278167724609375
1772462552374408700,6.07040869140625,-1.0031890869140625,-0.010284423828125,0.028076171875
1772462552384457000,6.08045703125,-1.003326416015625,-0.0086669921875,0.02899169921875
1772462552394505700,6.090505615234375,-1.0027923583984375,-0.0096435546875,0.0289154052734375
1772462552404554000,6.100553955078125,-1.001983642578125,-0.0103912353515625,0.027679443359375
1772462552414601700,6.110601806640625,-1.002197265625,-0.0102996826171875,0.0281219482421875
1772462552424651000,6.120651123046875,-1.00274658203125,-0.0089569091796875,0.0281982421875
1772462552434698800,6.13069873046875,-1.0038909912109375,-0.008544921875,0.028228759765625
1772462552444747800,6.140747802734375,-1.0022125244140625,-0.008819580078125,0.027618408203125
1772462552454795800,6.150795654296875,-1.000885009765625,-0.0102996826171875,0.0272674560546875
1772462552464844800,6.1608447265625,-1.0030364990234375,-0.009735107421875,0.0279388427734375
1772462552474892800,6.170892822265625,-1.005096435546875,-0.0092315673828125,0.0284881591796875
1772462552484941800,6.18094189453125,-1.003021240234375,-0.009857177734375,0.0285797119140625
1772462552494989800,6.19098974609375,-1.0009002685546875,-0.0100555419921875,0.029571533203125
1772462552505037800,6.201037841796875,-1.001708984375,-0.0091552734375,0.0289306640625
1772462552515086800,6.2110869140625,-1.0040435791015625,-0.0091552734375,0.029022216796875
1772462552525134800,6.221134765625,-1.0044708251953125,-0.009490966796875,0.028411865234375
1772462552535184000,6.231183837890625,-1.0019073486328125,-0.0094146728515625,0.0276336669921875
1772462552545232000,6.24123193359375,-1.002105712890625,-0.0091552734375,0.0278472900390625
1772462552555279600,6.251279541015625,-1.004669189453125,-0.00836181640625,0.0278167724609375
1772462552565329000,6.261328857421875,-1.0020294189453125,-0.0086517333984375,0.0283050537109375
1772462552575376600,6.271376708984375,-1.001434326171875,-0.0092010498046875,0.027862548828125
1772462552585426000,6.281426025390625,-1.000946044921875,-0.0102081298828125,0.02783203125
1772462552595473700,6.2914736328125,-1.0035247802734375,-0.0101470947265625,0.02880859375
1772462552605523000,6.30152294921875,-1.0038604736328125,-0.0092926025390625,0.0284271240234375
1772462552615570700,6.31157080078125,-1.002838134765625,-0.009796142578125,0.0283203125
1772462552625620000,6.321619873046875,-1.0012054443359375,-0.0092315673828125,0.0275421142578125
1772462552635667700,6.331667724609375,-1.0016326904296875,-0.009521484375,0.0283660888671875
1772462552645715700,6.3417158203125,-1.0040740966796875,-0.009429931640625,0.0275726318359375
1772462552655764700,6.3517646484375,-1.0037994384765625,-0.008636474609375,0.0276641845703125
1772462552665812700,6.361812744140625,-1.0024261474609375,-0.0092315673828125,0.0273284912109375
1772462552675861800,6.37186181640625,-1.00091552734375,-0.0097198486328125,0.0282745361328125
1772462552685909800,6.38190966796875,-1.0034942626953125,-0.010223388671875,0.0287933349609375
1772462552695958000,6.3919580078125,-1.004669189453125,-0.0089263916015625,0.0284881591796875
1772462552706006800,6.4020068359375,-1.002716064453125,-0.0094757080078125,0.0282440185546875
1772462552716054800,6.4120546875,-1.0009918212890625,-0.0101318359375,0.027587890625
1772462552726103800,6.422103759765625,-1.002532958984375,-0.009979248046875,0.0280914306640625
1772462552736151800,6.43215185546875,-1.00616455078125,-0.008544921875,0.027587890625
1772462552746200800,6.442200927734375,-1.0040130615234375,-0.0088958740234375,0.0279998779296875
1772462552756248800,6.452248779296875,-1.000152587890625,-0.0091400146484375,0.0281219482421875
1772462552766296800,6.462296875,-1.0002593994140625,-0.0089569091796875,0.0275726318359375
1772462552776345900,6.472345947265625,-1.0034027099609375,-0.009765625,0.0284271240234375
1772462552786393900,6.482393798828125,-1.003997802734375,-0.010040283203125,0.0287628173828125
1772462552796442600,6.492442626953125,-1.0017852783203125,-0.009796142578125,0.0288238525390625
1772462552806491000,6.502490966796875,-1.0008544921875,-0.0096282958984375,0.02874755859375
1772462552816539600,6.51253955078125,-1.002410888671875,-0.0091705322265625,0.0285491943359375
1772462552826587600,6.522587646484375,-1.0045928955078125,-0.0092926025390625,0.0279388427734375
1772462552836636200,6.53263623046875,-1.00335693359375,-0.009033203125,0.0285491943359375
1772462552846685000,6.542684814453125,-1.0024566650390625,-0.0085906982421875,0.027862548828125
1772462552856733000,6.55273291015625,-1.0013427734375,-0.0096282958984375,0.027435302734375
1772462552866782000,6.562781982421875,-1.003082275390625,-0.00982666015625,0.02838134765625
1772462552876830000,6.572829833984375,-1.0041961669921875,-0.0095977783203125,0.027862548828125
1772462552886879000,6.58287890625,-1.0027008056640625,-0.009429931640625,0.0287628173828125
1772462552896927000,6.592927001953125,-1.0012054443359375,-0.010345458984375,0.029205322265625
1772462552906975000,6.60297509765625,-1.0029296875,-0.0096893310546875,0.028472900390625
1772462552917024000,6.61302392578125,-1.0044097900390625,-0.0098876953125,0.0271148681640625
1772462552927072000,6.623072021484375,-1.003387451171875,-0.009185791015625,0.0278472900390625
1772462552937121000,6.63312109375,-1.002960205078125,-0.0092010498046875,0.02752685546875
1772462552947169000,6.6431689453125,-1.0030670166015625,-0.0091400146484375,0.0274200439453125
1772462552957218000,6.653218017578125,-1.0020294189453125,-0.00921630859375,0.028045654296875
1772462552967265800,6.663265869140625,-1.002960205078125,-0.0098114013671875,0.0286865234375
1772462552977314000,6.67331396484375,-1.0030364990234375,-0.0100555419921875,0.0289306640625
1772462552987362800,6.68336279296875,-1.002899169921875,-0.0096893310546875,0.028350830078125
1772462552997411000,6.6934111328125,-1.00238037109375,-0.0096893310546875,0.0285797119140625
1772462553007459800,6.7034599609375,-1.0026702880859375,-0.0097808837890625,0.0271453857421875
1772462553017508000,6.713508056640625,-1.0027008056640625,-0.0099639892578125,0.0281982421875
1772462553027556900,6.723556884765625,-1.002655029296875,-0.0092010498046875,0.02813720703125
1772462553037605000,6.733605224609375,-1.0020751953125,-0.009857177734375,0.0279693603515625
1772462553047652900,6.74365283203125,-1.0029449462890625,-0.0097198486328125,0.028656005859375
1772462553057702100,6.7537021484375,-1.0019378662109375,-0.0101165771484375,0.0286102294921875
1772462553067750000,6.76375,-1.0028228759765625,-0.0101776123046875,0.027923583984375
1772462553077799200,6.773799072265625,-1.0028228759765625,-0.0096588134765625,0.0276947021484375
1772462553087847000,6.783846923828125,-1.0025787353515625,-0.0091705322265625,0.02789306640625
1772462553097896000,6.79389599609375,-1.0042266845703125,-0.00921630859375,0.0282745361328125
1772462553107944000,6.80394384765625,-1.0026397705078125,-0.009033203125,0.028656005859375
1772462553117992000,6.813991943359375,-1.002410888671875,-0.0096893310546875,0.02783203125
1772462553128041000,6.824041015625,-1.0021209716796875,-0.008941650390625,0.0277557373046875
1772462553138089000,6.8340888671875,-1.0031890869140625,-0.0084991455078125,0.0277252197265625
1772462553148138000,6.844137939453125,-1.0032806396484375,-0.0095062255859375,0.0279388427734375
1772462553158186000,6.85418603515625,-1.0014190673828125,-0.0088653564453125,0.027862548828125
1772462553168235000,6.864235107421875,-1.00054931640625,-0.00982666015625,0.0284271240234375
1772462553178283000,6.874282958984375,-1.0018310546875,-0.010498046875,0.0290679931640625
1772462553188331000,6.8843310546875,-1.0042266845703125,-0.009765625,0.0291595458984375
1772462553198380000,6.894380126953125,-1.0042572021484375,-0.0095977783203125,0.0286712646484375
1772462553208428000,6.904427978515625,-1.0033721923828125,-0.009552001953125,0.0277862548828125
1772462553218477000,6.91447705078125,-1.0030670166015625,-0.00909423828125,0.027923583984375
1772462553228524800,6.92452490234375,-1.0028228759765625,-0.00830078125,0.0276031494140625
1772462553238574000,6.934573974609375,-1.0024566650390625,-0.00897216796875,0.0283660888671875
1772462553248621800,6.944621826171875,-1.0033721923828125,-0.0101776123046875,0.0286712646484375
1772462553258669800,6.954669921875,-1.0028076171875,-0.0101776123046875,0.0284881591796875
1772462553268718800,6.96471875,-1.0025177001953125,-0.0093994140625,0.0290679931640625
1772462553278766800,6.974766845703125,-1.0020294189453125,-0.008819580078125,0.0286865234375
1772462553288815900,6.98481591796875,-1.0027618408203125,-0.0099639892578125,0.0281524658203125
1772462553298863900,6.99486376953125,-1.0032958984375,-0.0096588134765625,0.02801513671875
1772462553308913000,7.004912841796875,-1.002777099609375,-0.0090789794921875,0.02825927734375
1772462553318961000,7.0149609375,-1.002960205078125,-0.0089569091796875,0.02862548828125
1772462553329010000,7.025010009765625,-1.0039215087890625,-0.0095062255859375,0.027923583984375
1772462553339058000,7.035057861328125,-1.0031890869140625,-0.0095977783203125,0.0278778076171875
1772462553349106200,7.045106201171875,-1.00408935546875,-0.0100860595703125,0.028228759765625
1772462553359155000,7.055155029296875,-1.0021514892578125,-0.00958251953125,0.02813720703125
1772462553369203000,7.065202880859375,-1.00225830078125,-0.00994873046875,0.028778076171875
1772462553379252000,7.075251953125,-1.0026397705078125,-0.0097503662109375,0.029052734375
1772462553389300000,7.085300048828125,-1.0040283203125,-0.00933837890625,0.028411865234375
1772462553399348000,7.095347900390625,-1.003570556640625,-0.009918212890625,0.028533935546875
1772462553409397000,7.10539697265625,-1.00439453125,-0.0098724365234375,0.0282745361328125
1772462553419445000,7.115445068359375,-1.002044677734375,-0.00909423828125,0.0283355712890625
1772462553429494000,7.125493896484375,-1.003631591796875,-0.0086212158203125,0.028106689453125
1772462553439542000,7.1355419921875,-1.0040130615234375,-0.009552001953125,0.0281219482421875
1772462553449591000,7.145591064453125,-1.003021240234375,-0.0093231201171875,0.02880859375
1772462553459639000,7.15563916015625,-1.0025787353515625,-0.0097808837890625,0.0274810791015625
1772462553469688000,7.16568798828125,-1.00201416015625,-0.0100250244140625,0.02838134765625
1772462553479735800,7.17573583984375,-1.003082275390625,-0.0097503662109375,0.0279388427734375
1772462553489784000,7.1857841796875,-1.00421142578125,-0.0093841552734375,0.027618408203125
1772462553499832800,7.195832763671875,-1.0024871826171875,-0.0092926025390625,0.0276031494140625
1772462553509881000,7.205881103515625,-1.00140380859375,-0.0103912353515625,0.02789306640625
1772462553519929900,7.215929931640625,-1.0025634765625,-0.0093841552734375,0.0289154052734375
1772462553529978000,7.22597802734375,-1.005157470703125,-0.0097808837890625,0.0282440185546875
1772462553540027000,7.23602685546875,-1.004974365234375,-0.0091400146484375,0.029022216796875
1772462553550075100,7.2460751953125,-1.0013580322265625,-0.00958251953125,0.0277862548828125
1772462553560123000,7.256122802734375,-1.0014801025390625,-0.0095672607421875,0.0273284912109375
1772462553570172200,7.266172119140625,-1.002838134765625,-0.009307861328125,0.0273284912109375
1772462553580220000,7.276219970703125,-1.004486083984375,-0.0088958740234375,0.0280914306640625
1772462553590269000,7.28626904296875,-1.0031890869140625,-0.009613037109375,0.028106689453125
1772462553600317000,7.29631689453125,-1.0003814697265625,-0.00909423828125,0.0286712646484375
1772462553610366000,7.306365966796875,-1.00177001953125,-0.009429931640625,0.0290374755859375
1772462553620414000,7.3164140625,-1.0042266845703125,-0.0098114013671875,0.0283355712890625
1772462553630462000,7.3264619140625,-1.0045166015625,-0.009552001953125,0.0279083251953125
1772462553640511000,7.336510986328125,-1.0018463134765625,-0.0090789794921875,0.027008056640625
1772462553650559000,7.34655908203125,-1.0006866455078125,-0.009246826171875,0.027984619140625
1772462553660608000,7.35660791015625,-1.00244140625,-0.0095367431640625,0.0276031494140625
1772462553670656000,7.366656005859375,-1.0045318603515625,-0.0096282958984375,0.029571533203125
1772462553680705000,7.376705078125,-1.0047149658203125,-0.009735107421875,0.0286712646484375
1772462553690753000,7.3867529296875,-1.0025634765625,-0.0097198486328125,0.029083251953125
1772462553700800800,7.39680078125,-1.001617431640625,-0.0111236572265625,0.028533935546875
1772462553710850000,7.40685009765625,-1.0021209716796875,-0.00927734375,0.027191162109375
1772462553720897800,7.416897705078125,-1.0038909912109375,-0.0083465576171875,0.0281219482421875
1772462553730947000,7.426947021484375,-1.0030975341796875,-0.009185791015625,0.0283050537109375
1772462553740994800,7.436994873046875,-1.0018768310546875,-0.0091400146484375,0.0287933349609375
1772462553751044000,7.447044189453125,-1.00213623046875,-0.0096435546875,0.028350830078125
1772462553761091800,7.457091796875,-1.0042266845703125,-0.0096893310546875,0.0281219482421875
1772462553771139800,7.467139892578125,-1.0039215087890625,-0.009735107421875,0.0283050537109375
1772462553781188900,7.47718896484375,-1.0012664794921875,-0.010009765625,0.0277862548828125
1772462553791236900,7.48723681640625,-1.000732421875,-0.009246826171875,0.0282440185546875
1772462553801286000,7.497285888671875,-1.0036468505859375,-0.009246826171875,0.02947998046875
1772462553811334000,7.507333984375,-1.003692626953125,-0.009796142578125,0.0283660888671875
1772462553821383000,7.5173828125,-1.002105712890625,-0.009307861328125,0.028106689453125
1772462553831434200,7.527434326171875,-1.0014801025390625,-0.0090789794921875,0.02838134765625
1772462553841482200,7.537482177734375,-1.0022430419921875,-0.0089874267578125,0.028717041015625
1772462553851531300,7.54753125,-1.00396728515625,-0.0092926025390625,0.0283203125
1772462553861579300,7.557579345703125,-1.0040283203125,-0.0092315673828125,0.027374267578125
1772462553871628300,7.567628173828125,-1.0019989013671875,-0.00921630859375,0.027679443359375
1772462553881676300,7.57767626953125,-1.0023345947265625,-0.0090484619140625,0.0282135009765625
1772462553891725000,7.58772509765625,-1.00341796875,-0.009033203125,0.0285797119140625
1772462553901773300,7.597773193359375,-1.003204345703125,-0.0091094970703125,0.0284881591796875
1772462553911821000,7.607821044921875,-1.001800537109375,-0.0098419189453125,0.0284881591796875
1772462553921870300,7.617870361328125,-1.0025482177734375,-0.009613037109375,0.0279693603515625
1772462553931918000,7.62791796875,-1.0039825439453125,-0.009521484375,0.0268402099609375
1772462553941967400,7.63796728515625,-1.0030517578125,-0.0099029541015625,0.027374267578125
1772462553952015000,7.64801513671875,-1.00244140625,-0.009246826171875,0.0282745361328125
1772462553962064400,7.658064453125,-1.0029449462890625,-0.0098876953125,0.0287322998046875
1772462553972112100,7.668112060546875,-1.0026702880859375,-0.00958251953125,0.0284423828125
1772462553982160100,7.67816015625,-1.0036773681640625,-0.0097503662109375,0.02874755859375
1772462553992209200,7.688209228515625,-1.0025177001953125,-0.00970458984375,0.0283355712890625
1772462554002257200,7.698257080078125,-1.0020751953125,-0.009124755859375,0.0282745361328125
1772462554012306200,7.70830615234375,-1.002532958984375,-0.0097198486328125,0.02911376953125
1772462554022354200,7.718354248046875,-1.0036163330078125,-0.009674072265625,0.0287017822265625
1772462554032403200,7.7284033203125,-1.0034637451171875,-0.009002685546875,0.0290985107421875
1772462554042451200,7.738451171875,-1.0025787353515625,-0.009246826171875,0.0282135009765625
1772462554052499000,7.7484990234375,-1.0029144287109375,-0.00982666015625,0.0283203125
1772462554062548200,7.75854833984375,-1.003936767578125,-0.0091705322265625,0.0281982421875
1772462554072596000,7.768595947265625,-1.0023040771484375,-0.0090789794921875,0.028106689453125
1772462554082645200,7.778645263671875,-1.0027923583984375,-0.009063720703125,0.02874755859375
1772462554092693000,7.78869287109375,-1.0045318603515625,-0.009307861328125,0.0291748046875
1772462554102742300,7.7987421875,-1.0032501220703125,-0.010009765625,0.028228759765625
1772462554112790000,7.8087900390625,-1.0032806396484375,-0.0102386474609375,0.0276641845703125
1772462554122838300,7.81883837890625,-1.0009918212890625,-0.008697509765625,0.0283203125
1772462554132887000,7.828886962890625,-1.0008544921875,-0.00836181640625,0.0286712646484375
1772462554142935300,7.838935302734375,-1.003143310546875,-0.0094757080078125,0.02813720703125
1772462554152984000,7.848984130859375,-1.0040283203125,-0.010223388671875,0.027374267578125
1772462554163032000,7.859031982421875,-1.0040435791015625,-0.0096893310546875,0.02813720703125
1772462554173081000,7.8690810546875,-1.001495361328125,-0.0096282958984375,0.02728271484375
1772462554183129000,7.879129150390625,-1.0015106201171875,-0.009002685546875,0.0279083251953125
1772462554193178000,7.88917822265625,-1.0027923583984375,-0.009246826171875,0.0281829833984375
1772462554203226000,7.89922607421875,-1.00335693359375,-0.009246826171875,0.0284423828125
1772462554213274400,7.9092744140625,-1.003509521484375,-0.0092926025390625,0.028106689453125
1772462554223323100,7.9193232421875,-1.0018768310546875,-0.00970458984375,0.0272216796875
1772462554233371100,7.92937109375,-1.0037384033203125,-0.0103912353515625,0.02789306640625
1772462554243420200,7.939420166015625,-1.003662109375,-0.00921630859375,0.0275115966796875
1772462554253468200,7.94946826171875,-1.00408935546875,-0.00860595703125,0.0284271240234375
1772462554263517200,7.95951708984375,-1.0020294189453125,-0.009246826171875,0.0278167724609375
1772462554273565000,7.96956494140625,-1.0012664794921875,-0.0097503662109375,0.02801513671875
1772462554283613200,7.97961328125,-1.003662109375,-0.0097808837890625,0.02740478515625
1772462554293662000,7.989661865234375,-1.0046844482421875,-0.0092926025390625,0.0282440185546875
1772462554303710200,7.999710205078125,-1.002777099609375,-0.0090484619140625,0.027923583984375
1772462554313759000,8.009759033203125,-1.000885009765625,-0.0099639892578125,0.0272216796875
1772462554323807200,8.01980712890625,-1.001983642578125,-0.009429931640625,0.0281829833984375
1772462554333855200,8.029855224609374,-1.003265380859375,-0.0091094970703125,0.0284423828125
1772462554343904300,8.039904296875,-1.0037384033203125,-0.009918212890625,0.0287322998046875
1772462554353952300,8.0499521484375,-1.00311279296875,-0.009979248046875,0.028472900390625
1772462554364001300,8.060001220703125,-1.000396728515625,-0.0093994140625,0.0278472900390625
1772462554374049300,8.07004931640625,-1.0023956298828125,-0.0087738037109375,0.02764892578125
1772462554384098000,8.08009814453125,-1.00506591796875,-0.008575439453125,0.028564453125
1772462554394146300,8.090146240234375,-1.0031280517578125,-0.0096282958984375,0.02764892578125
1772462554404194000,8.100194091796874,-1.001007080078125,-0.010101318359375,0.02886962890625
1772462554414243300,8.110243408203125,-1.00164794921875,-0.0098419189453125,0.0290985107421875
1772462554424291000,8.120291015625,-1.0048065185546875,-0.010162353515625,0.02838134765625
1772462554434340400,8.13034033203125,-1.0037078857421875,-0.0098114013671875,0.02874755859375
1772462554444388000,8.14038818359375,-1.00238037109375,-0.0095977783203125,0.0278778076171875
1772462554454437400,8.150437255859375,-1.0009002685546875,-0.009185791015625,0.0276336669921875
1772462554464485000,8.160485107421875,-1.002593994140625,-0.008941650390625,0.027801513671875
1772462554474533000,8.170533203125,-1.00421142578125,-0.009429931640625,0.0280609130859375
1772462554484582100,8.18058203125,-1.001190185546875,-0.009246826171875,0.02777099609375
1772462554494630100,8.190630126953126,-0.9998016357421875,-0.00897216796875,0.02886962890625
1772462554504679200,8.20067919921875,-1.002716064453125,-0.00933837890625,0.02911376953125
1772462554514727200,8.21072705078125,-1.0052642822265625,-0.0096893310546875,0.0285797119140625
1772462554524776200,8.220776123046875,-1.005035400390625,-0.010009765625,0.028472900390625
1772462554534824200,8.23082421875,-1.0013427734375,-0.009765625,0.0275115966796875
1772462554544873200,8.240873291015625,-1.0012664794921875,-0.008880615234375,0.027587890625
1772462554554921200,8.250921142578125,-1.0035247802734375,-0.009185791015625,0.0277252197265625
1772462554564969000,8.260968994140624,-1.003936767578125,-0.009002685546875,0.0288238525390625
1772462554575018200,8.271018310546875,-1.0028839111328125,-0.0084991455078125,0.0280303955078125
1772462554585066000,8.28106591796875,-1.0013885498046875,-0.0091705322265625,0.0283050537109375
1772462554595115300,8.291115234375,-1.0021514892578125,-0.0098114013671875,0.028045654296875
1772462554605163000,8.3011630859375,-1.004486083984375,-0.009979248046875,0.0281219482421875
1772462554615212300,8.31121240234375,-1.0036773681640625,-0.0101165771484375,0.029022216796875
1772462554625260000,8.321260009765625,-1.0008392333984375,-0.0105438232421875,0.0282745361328125
1772462554635308300,8.331308349609374,-1.0012359619140625,-0.0099334716796875,0.0289764404296875
1772462554645357000,8.341357177734375,-1.0025177001953125,-0.0095672607421875,0.02862548828125
1772462554655405300,8.3514052734375,-1.0042266845703125,-0.0094757080078125,0.0279541015625
1772462554665454000,8.3614541015625,-1.0041046142578125,-0.00830078125,0.0275726318359375
1772462554675502000,8.371502197265626,-1.0043182373046875,-0.0089263916015625,0.0275421142578125
1772462554685551000,8.381551025390625,-1.0041961669921875,-0.0091094970703125,0.0274658203125
1772462554695599000,8.39159912109375,-1.003082275390625,-0.008056640625,0.026947021484375
1772462554705647000,8.401647216796874,-1.0035858154296875,-0.0081634521484375,0.0270538330078125
1772462554715696000,8.411696044921875,-1.001220703125,-0.008880615234375,0.0279388427734375
1772462554725744000,8.421744140625,-1.001220703125,-0.010101318359375,0.0290069580078125
1772462554735793200,8.431793212890625,-1.0022430419921875,-0.0103302001953125,0.0302734375
1772462554745841200,8.441841064453126,-1.00335693359375,-0.0107269287109375,0.029449462890625
1772462554755890200,8.45189013671875,-1.0027923583984375,-0.0103912353515625,0.028167724609375
1772462554765938200,8.461938232421875,-1.0034027099609375,-0.0097808837890625,0.027862548828125
1772462554775986200,8.471986083984374,-1.0017547607421875,-0.008758544921875,0.0286712646484375
1772462554786035000,8.482034912109375,-1.00054931640625,-0.0091705322265625,0.0290069580078125
1772462554796083200,8.492083251953124,-1.0038299560546875,-0.008941650390625,0.0279083251953125
1772462554806132000,8.502132080078125,-1.0052032470703125,-0.00897216796875,0.028228759765625
1772462554816180200,8.51218017578125,-1.0040130615234375,-0.0085601806640625,0.0274810791015625
1772462554826229000,8.52222900390625,-1.0019073486328125,-0.009246826171875,0.028167724609375
1772462554836277000,8.532277099609376,-1.0023193359375,-0.0095367431640625,0.0286865234375
1772462554846325800,8.54232568359375,-1.00311279296875,-0.010223388671875,0.0283203125
1772462554856374000,8.5523740234375,-1.00341796875,-0.0098114013671875,0.0294952392578125
1772462554866422000,8.562422119140624,-1.0037078857421875,-0.009063720703125,0.0286712646484375
1772462554876470800,8.572470703125,-1.0045166015625,-0.009521484375,0.0284271240234375
1772462554886519000,8.58251904296875,-1.0034332275390625,-0.009185791015625,0.0288543701171875
1772462554896567800,8.59256787109375,-1.001983642578125,-0.0098876953125,0.02801513671875
1772462554906616000,8.602615966796876,-1.001434326171875,-0.009918212890625,0.0284271240234375
1772462554916664800,8.612664794921875,-1.002532958984375,-0.008941650390625,0.0286865234375
1772462554926713000,8.622713134765625,-1.004058837890625,-0.0105133056640625,0.028350830078125
1772462554936760800,8.6327607421875,-1.004913330078125,-0.01068115234375,0.0299835205078125
1772462554946810000,8.64281005859375,-1.0045928955078125,-0.0099639892578125,0.02886962890625
1772462554956857900,8.65285791015625,-1.0030975341796875,-0.009002685546875,0.028106689453125
1772462554966907100,8.6629072265625,-1.00128173828125,-0.009521484375,0.027099609375
1772462554976955000,8.672954833984376,-1.002410888671875,-0.0084686279296875,0.027069091796875
1772462554987004000,8.68300390625,-1.0040130615234375,-0.0087738037109375,0.0271148681640625
1772462554997052000,8.693052001953125,-1.00262451171875,-0.00970458984375,0.028533935546875
1772462555007101000,8.703100830078125,-1.0030364990234375,-0.010345458984375,0.0283050537109375
1772462555017149000,8.71314892578125,-1.003448486328125,-0.0102996826171875,0.029144287109375
1772462555027197000,8.723197021484374,-1.005645751953125,-0.01025390625,0.030792236328125
1772462555037246000,8.733245849609375,-1.002166748046875,-0.0105438232421875,0.0287017822265625
1772462555047294000,8.7432939453125,-1.0009307861328125,-0.010345458984375,0.0276336669921875
1772462555057343000,8.753343017578125,-1.002349853515625,-0.009185791015625,0.027801513671875
1772462555067391000,8.763390869140625,-1.0043487548828125,-0.0084991455078125,0.027496337890625
1772462555077440000,8.77343994140625,-1.0014190673828125,-0.008544921875,0.0272369384765625
1772462555087488000,8.783488037109375,-1.0000457763671875,-0.0097198486328125,0.028564453125
1772462555097535700,8.79353564453125,-1.0018463134765625,-0.0098419189453125,0.0284576416015625
1772462555107585000,8.8035849609375,-1.0055999755859375,-0.0100250244140625,0.0292205810546875
1772462555117632800,8.8136328125,-1.0039520263671875,-0.0101776123046875,0.0283203125
1772462555127682000,8.82368212890625,-0.9998779296875,-0.0103607177734375,0.0286865234375
1772462555137729800,8.833729736328126,-1.000396728515625,-0.0101776123046875,0.028076171875
1772462555147779000,8.843779052734375,-1.0046539306640625,-0.0098114013671875,0.027862548828125
1772462555157826800,8.853826904296875,-1.00531005859375,-0.00860595703125,0.0289306640625
1772462555167876000,8.8638759765625,-1.001861572265625,-0.0089263916015625,0.0284271240234375
1772462555177923800,8.873923828125,-1.0009765625,-0.0084381103515625,0.0279083251953125
1772462555187971800,8.883971923828126,-1.0042572021484375,-0.0096893310546875,0.0285797119140625
1772462555198020900,8.894020751953125,-1.0058135986328125,-0.0101165771484375,0.02825927734375
1772462555208068900,8.90406884765625,-1.0027008056640625,-0.0094451904296875,0.02789306640625
1772462555218118000,8.914117919921875,-1.001190185546875,-0.0097503662109375,0.02850341796875
1772462555228166000,8.924165771484375,-1.0009918212890625,-0.009368896484375,0.0283050537109375
1772462555238215000,8.93421484375,-1.0025634765625,-0.0094451904296875,0.0291290283203125
1772462555248263000,8.944262939453125,-1.00439453125,-0.0087127685546875,0.0278778076171875
1772462555258311000,8.954310791015626,-1.00396728515625,-0.00982666015625,0.028472900390625
1772462555268360000,8.96435986328125,-1.0026397705078125,-0.01031494140625,0.0273590087890625
1772462555278408000,8.974407958984376,-1.0020751953125,-0.0102386474609375,0.0276641845703125
1772462555288457000,8.98445703125,-1.0018463134765625,-0.0090789794921875,0.028564453125
1772462555298504700,8.994504638671875,-1.0037841796875,-0.008697509765625,0.029754638671875
1772462555308554000,9.004553955078125,-1.003692626953125,-0.009674072265625,0.0284271240234375
1772462555318601700,9.014601806640625,-1.0023651123046875,-0.010040283203125,0.02801513671875
1772462555328650000,9.02464990234375,-1.0027618408203125,-0.01007080078125,0.02801513671875
1772462555338698800,9.03469873046875,-1.0020904541015625,-0.009002685546875,0.028167724609375
1772462555348747000,9.0447470703125,-1.00244140625,-0.009124755859375,0.0289764404296875
1772462555358795800,9.054795654296875,-1.0023651123046875,-0.008758544921875,0.028167724609375
1772462555368844000,9.064843994140626,-1.0019073486328125,-0.00897216796875,0.0281524658203125
1772462555378892800,9.074892822265625,-1.00311279296875,-0.008880615234375,0.027862548828125
1772462555388940800,9.08494091796875,-1.0048980712890625,-0.00946044921875,0.0286102294921875
1772462555398989800,9.09498974609375,-1.003631591796875,-0.0089263916015625,0.02801513671875
1772462555409037800,9.105037841796875,-1.0013885498046875,-0.009246826171875,0.0285797119140625
1772462555419086000,9.115086181640624,-1.001800537109375,-0.0102081298828125,0.0295562744140625
1772462555429134800,9.125134765625,-1.00396728515625,-0.00994873046875,0.0298309326171875
1772462555439183000,9.13518310546875,-1.0051116943359375,-0.0093841552734375,0.0291748046875
1772462555449232000,9.14523193359375,-1.0025787353515625,-0.0095977783203125,0.0272369384765625
1772462555459280100,9.155280029296875,-1.0011138916015625,-0.009796142578125,0.0279693603515625
1772462555469329000,9.165328857421875,-1.0024566650390625,-0.00848388671875,0.0277557373046875
1772462555479377200,9.175377197265625,-1.0033721923828125,-0.008453369140625,0.0282440185546875
1772462555489425000,9.1854248046875,-1.00335693359375,-0.00946044921875,0.0281829833984375
1772462555499474000,9.195473876953125,-1.0022430419921875,-0.009613037109375,0.0271759033203125
1772462555509522000,9.20552197265625,-1.0011138916015625,-0.010589599609375,0.02783203125
1772462555519571000,9.215571044921875,-1.0041046142578125,-0.010101318359375,0.0285797119140625
1772462555529619000,9.225618896484375,-1.0035400390625,-0.0104217529296875,0.0280609130859375
1772462555539668000,9.23566796875,-1.00177001953125,-0.0100860595703125,0.0284423828125
1772462555549716000,9.245716064453125,-1.0029144287109375,-0.0095672607421875,0.02874755859375
1772462555559764700,9.2557646484375,-1.004608154296875,-0.009033203125,0.029876708984375
1772462555569813000,9.26581298828125,-1.0059814453125,-0.0089111328125,0.028656005859375
1772462555579861000,9.275861083984376,-1.0018768310546875,-0.0092315673828125,0.0280303955078125
1772462555589910000,9.285909912109375,-1.0006561279296875,-0.0100250244140625,0.027679443359375
1772462555599958000,9.2959580078125,-1.0021209716796875,-0.0089569091796875,0.0279541015625
1772462555610006800,9.3060068359375,-1.0047760009765625,-0.0089874267578125,0.027740478515625
1772462555620055000,9.316054931640625,-1.0035400390625,-0.0090484619140625,0.028045654296875
1772462555630103800,9.326103759765624,-1.0021209716796875,-0.0103607177734375,0.029083251953125
1772462555640152000,9.336152099609375,-1.0016937255859375,-0.010101318359375,0.02911376953125
1772462555650200800,9.346200927734374,-1.0030517578125,-0.0104217529296875,0.0286102294921875
1772462555660249000,9.3562490234375,-1.0034027099609375,-0.00982666015625,0.0282135009765625
1772462555670296800,9.366296875,-1.0024871826171875,-0.009002685546875,0.02813720703125
1772462555680346000,9.37634619140625,-1.0042877197265625,-0.0091552734375,0.027130126953125
1772462555690393900,9.386393798828125,-1.004547119140625,-0.00921630859375,0.027984619140625
1772462555700443100,9.396443115234375,-1.0038299560546875,-0.009124755859375,0.0279693603515625
1772462555710491000,9.406490966796875,-1.00042724609375,-0.00946044921875,0.0279693603515625
1772462555720540000,9.416539794921874,-1.0006256103515625,-0.009765625,0.0274810791015625
1772462555730588000,9.426587890625,-1.00396728515625,-0.0097503662109375,0.0281524658203125
1772462555740636000,9.436635986328126,-1.0049591064453125,-0.0101776123046875,0.0289306640625
1772462555750685000,9.446684814453125,-1.000946044921875,-0.009765625,0.02880859375
1772462555760733000,9.45673291015625,-1.000823974609375,-0.00921630859375,0.028076171875
1772462555770782000,9.466781982421875,-1.003753662109375,-0.0095367431640625,0.02850341796875
