time,seconds_elapsed,z,y,x
1772462546390580200,0.086580322265625,-0.00953784491866827,0.0049034119583666325,0.0024588967207819223
1772462546400628000,0.0966279296875,-0.00971601065248251,0.0062395199202001095,0.0007635282818228006
1772462546410677200,0.10667724609375,-0.008563661016523838,0.007513309828937054,0.0041617220267653465
1772462546420725000,0.11672509765625,-0.008205465972423553,0.008559932000935078,0.0021105550695210695
1772462546430773000,0.12677294921875,-0.009365538135170937,0.006916229147464037,0.0016759273130446672
1772462546440822000,0.136822021484375,-0.009179916232824326,0.005287173669785261,0.001401355373673141
1772462546450870000,0.1468701171875,-0.008254201151430607,0.006508233025670052,-0.0014165353495627642
1772462546460918300,0.156918212890625,-0.008137821219861507,0.006939132697880268,0.0007382282637991011
1772462546470967000,0.166967041015625,-0.007192665245383978,0.006031260825693607,0.00011904330312972888
1772462546481015300,0.177015380859375,-0.007245662156492472,0.007426491007208824,0.0014586133183911443
1772462546491064000,0.18706396484375,-0.008219047449529171,0.006298908498138189,0.00307595101185143
1772462546501112000,0.197112060546875,-0.008787632919847965,0.008888034150004387,0.002688460983335972
1772462546511160000,0.20716015625,-0.007952732034027576,0.008362592197954655,0.001449292292818427
1772462546521209000,0.217208984375,-0.009822270832955837,0.005393700208514929,0.0027361316606402397
1772462546531257000,0.227257080078125,-0.007731955498456955,0.010074205696582794,0.0019126823171973228
1772462546541306000,0.23730615234375,-0.007875233888626099,0.00888137612491846,0.0013281183782964945
1772462546551354000,0.24735400390625,-0.0070741549134254456,0.012013519182801247,0.003225088119506836
1772462546561402000,0.257402099609375,-0.011156247928738594,0.0073292856104671955,0.0033337450586259365
1772462546571451100,0.267451171875,-0.007216900121420622,0.0065287393517792225,0.004073038697242737
1772462546581499100,0.2774990234375,-0.00890880636870861,0.005902097560465336,0.0025843314360827208
1772462546591547100,0.287547119140625,-0.007917577400803566,0.007484015077352524,0.003126551164314151
1772462546601596200,0.29759619140625,-0.009754892438650131,0.007865645922720432,0.0035063179675489664
1772462546611644000,0.307643798828125,-0.00881106872111559,0.006541789043694735,0.0007249124464578927
1772462546621693200,0.317693115234375,-0.006404103245586157,0.007847269997000694,0.00192200334277004
1772462546631741000,0.327740966796875,-0.00785499345511198,0.01094798929989338,0.0019861855544149876
1772462546641790200,0.337790283203125,-0.008123972453176975,0.008005994372069836,0.0005661880713887513
1772462546651838000,0.347837890625,-0.008494950830936432,0.007674963679164648,0.004234426189213991
1772462546661886000,0.357885986328125,-0.008137554861605167,0.008533567190170288,0.003266899613663554
1772462546671935000,0.36793505859375,-0.006244580261409283,0.008190551772713661,0.004249339923262596
1772462546681983000,0.37798291015625,-0.00869016069918871,0.006432333029806614,0.0011646003695204854
1772462546692031200,0.38803125,-0.009608418680727482,0.009041432291269302,0.0017667410429567099
1772462546702080000,0.398080078125,-0.007258711848407984,0.007488809060305357,0.004522047471255064
1772462546712128300,0.408128173828125,-0.00908297672867775,0.008234760724008083,0.0020453077740967274
1772462546722177000,0.418177001953125,-0.007982026785612106,0.005803294479846954,0.0008705873624421656
1772462546732225300,0.428225341796875,-0.009676063433289528,0.007674165070056915,0.001957956003025174
1772462546742273000,0.43827294921875,-0.008942095562815666,0.006099704187363386,0.0010756507981568575
1772462546752322300,0.448322265625,-0.008241684176027775,0.006213687360286713,0.0023276028223335743
1772462546762370000,0.4583701171875,-0.006110090296715498,0.006856574676930904,0.002519616624340415
1772462546772419000,0.468419189453125,-0.008128766901791096,0.004820588044822216,0.0015821839915588498
1772462546782467000,0.478467041015625,-0.005882123950868845,0.009148490615189075,0.003640807466581464
1772462546792515000,0.48851513671875,-0.009031311608850956,0.007902930490672588,0.0018578211311250925
1772462546802564000,0.498564208984375,-0.006252569612115622,0.0062307314947247505,0.002796319080516696
1772462546812612000,0.508612060546875,-0.009877664037048817,0.006729541812092066,0.00250603468157351
1772462546822661000,0.5186611328125,-0.007191600278019905,0.007794806268066168,0.004412325099110603
1772462546832709000,0.528709228515625,-0.0073356772772967815,0.006816094275563955,0.004370513837784529
1772462546842756900,0.5387568359375,-0.006984672509133816,0.006864031311124563,0.0031348068732768297
1772462546852806100,0.54880615234375,-0.008192682638764381,0.008894159458577633,0.00318913534283638
1772462546862854000,0.55885400390625,-0.008256065659224987,0.005901298485696316,0.0025656893849372864
1772462546872903200,0.568903076171875,-0.006238454952836037,0.007215036079287529,0.002665291540324688
1772462546882951000,0.578950927734375,-0.00851226132363081,0.007399593014270067,0.0010335728293284774
1772462546892999000,0.5889990234375,-0.008409197442233562,0.008109858259558678,0.0006226470577530563
1772462546903048000,0.5990478515625,-0.006661098450422287,0.007948736660182476,0.004766792058944702
1772462546913096000,0.609095947265625,-0.008887235075235367,0.007242466323077679,0.0000601874417043291
1772462546923144200,0.619144287109375,-0.008445949293673038,0.006596117280423641,0.0009683253592811525
1772462546933193000,0.62919287109375,-0.01101323589682579,0.009159942157566547,0.0035084483679383993
1772462546943241200,0.6392412109375,-0.008902414701879025,0.00839588139206171,0.001374723738990724
1772462546953290000,0.6492900390625,-0.00899642426520586,0.007546066772192717,0.001386707997880876
1772462546963338200,0.659338134765625,-0.009677927009761333,0.007486412301659584,0.0007451524725183845
1772462546973386000,0.669385986328125,-0.008741294033825397,0.006621683482080698,0.000693220819812268
1772462546983435300,0.679435302734375,-0.006070675794035196,0.008020642213523388,0.0012093414552509785
1772462546993483000,0.68948291015625,-0.006351639050990343,0.0075964005663990974,0.0023752732668071985
1772462547003532000,0.699531982421875,-0.007098389323800802,0.008696818724274635,0.002546780975535512
1772462547013580000,0.709580078125,-0.012284895405173302,0.008677643723785877,-0.0001877528557088226
1772462547023628000,0.7196279296875,-0.009371397085487843,0.006706638727337122,0.005816610064357519
1772462547033677000,0.729677001953125,-0.00720624765381217,0.008535430766642094,0.0016788567882031202
1772462547043725000,0.73972509765625,-0.0065353973768651485,0.007539941463619471,0.0011467571603134274
1772462547053774000,0.749774169921875,-0.009229717776179314,0.006621683482080698,0.003942010924220085
1772462547063822000,0.759822021484375,-0.007829426787793636,0.005636313930153847,0.002925216220319271
1772462547073869800,0.769869873046875,-0.009454487822949886,0.005337507463991642,0.0033164345659315586
1772462547083919000,0.779919189453125,-0.008432899601757526,0.0067452541552484035,0.004043477587401867
1772462547093966800,0.789966796875,-0.008358864113688469,0.00780705688521266,0.00395665830001235
1772462547104016100,0.80001611328125,-0.008108792826533318,0.004461860284209251,0.0018136126454919577
1772462547114064000,0.81006396484375,-0.007396130822598934,0.006010488141328096,0.001253017340786755
1772462547124112100,0.820112060546875,-0.009880061261355877,0.0046762446872889996,0.0013787185307592154
1772462547134161000,0.830160888671875,-0.008252870291471481,0.007386809680610895,0.0034469293896108866
1772462547144209200,0.840209228515625,-0.008882973343133926,0.007662713527679443,0.0016429040115326643
1772462547154258000,0.8502578125,-0.008994027972221375,0.007680290378630161,0.004513525404036045
1772462547164306200,0.86030615234375,-0.006598780397325754,0.007129548583179712,0.0014879080699756742
1772462547174354200,0.870354248046875,-0.009321330115199089,0.006479204632341862,0.001574194524437189
1772462547184403000,0.88040283203125,-0.008037419989705086,0.010223343037068844,0.0017936390358954668
1772462547194451200,0.890451171875,-0.010222543962299824,0.008943960070610046,0.002548911375924945
1772462547204500000,0.9005,-0.00717721926048398,0.006579073145985603,0.0030485205352306366
1772462547214548200,0.91054833984375,-0.008713330142199993,0.008217450231313705,0.0025036376900970936
1772462547224596000,0.920595947265625,-0.008300806395709515,0.010037187486886978,0.0026501116808503866
1772462547234645200,0.930645263671875,-0.006460029631853104,0.009289904497563839,0.0020546286832541227
1772462547244693000,0.94069287109375,-0.008608668111264706,0.006931409239768982,0.0035119105596095324
1772462547254741000,0.950740966796875,-0.007930360734462738,0.007711715530604124,0.0012695288751274347
1772462547264790000,0.9607900390625,-0.009227054193615913,0.006244846619665623,0.0027268105186522007
1772462547274838000,0.970838134765625,-0.0073263561353087425,0.007025951519608498,0.0018916432745754719
1772462547284887000,0.980886962890625,-0.008099738508462906,0.00717508839443326,0.0021054951939731836
1772462547294935000,0.99093505859375,-0.009721603244543076,0.0081487400457263,0.002764361212030053
1772462547304983000,1.000983154296875,-0.009858223609626293,0.00765791954472661,0.00043302998528815806
1772462547315032000,1.011031982421875,-0.008246744982898235,0.006650712341070175,0.0008695221040397882
1772462547325080000,1.021080078125,-0.008609200827777386,0.008176703006029129,0.0018703379901126027
1772462547335129000,1.031129150390625,-0.00700944010168314,0.008706672117114067,0.00018029600323643535
1772462547345176800,1.0411767578125,-0.007065898738801479,0.005855492316186428,0.002296443795785308
1772462547355225000,1.05122509765625,-0.00908777117729187,0.008468053303658962,0.003471696749329567
1772462547365273900,1.06127392578125,-0.009867810644209385,0.010951184667646885,0.0013438310706987977
1772462547375322000,1.071322021484375,-0.008510930463671684,0.0079159801825881,0.002508431440219283
1772462547385371000,1.081370849609375,-0.006776147056370974,0.005408613942563534,0.005509813781827688
1772462547395419100,1.091419189453125,-0.007733553647994995,0.007162305526435375,0.0020964404102414846
1772462547405467100,1.101467041015625,-0.008881908841431141,0.0059657469391822815,0.0051873051561415195
1772462547415516200,1.11151611328125,-0.009681656025350094,0.009350092150270939,0.0017651431262493134
1772462547425564200,1.121564208984375,-0.007478156127035618,0.006744189187884331,0.00301736150868237
1772462547435613200,1.13161328125,-0.007502391003072262,0.007210774812847376,0.0020000338554382324
1772462547445661200,1.1416611328125,-0.007766043767333031,0.004799549002200365,0.0034107104875147343
1772462547455709000,1.151708984375,-0.008313323371112347,0.009155148640275002,0.001151018193922937
1772462547465758200,1.16175830078125,-0.007451790850609541,0.006705839652568102,0.0006804376607760787
1772462547475806000,1.171805908203125,-0.006186523009091616,0.009770072996616364,0.0034969968255609274
1772462547485855000,1.18185498046875,-0.00875168014317751,0.009046758525073528,0.0017209346406161785
1772462547495903000,1.191903076171875,-0.007962052710354328,0.006167348474264145,0.0006077333819121122
1772462547505951000,1.201950927734375,-0.007731955498456955,0.008701079525053501,-0.000014381069377122913
1772462547516000000,1.212,-0.007191067561507225,0.006484264507889748,0.00520754512399435
1772462547526048000,1.222048095703125,-0.005072522908449173,0.008687764406204224,0.002034655073657632
1772462547536097000,1.232096923828125,-0.007901865057647228,0.006531136110424995,0.004457332659512758
1772462547546145000,1.24214501953125,-0.007013434544205666,0.0062581622041761875,0.001353418454527855
1772462547556193000,1.252193115234375,-0.008310394361615181,0.009530387818813324,0.001535312389023602
1772462547566242000,1.262241943359375,-0.008406001143157482,0.009802296757698059,0.0016735304379835725
1772462547576290000,1.2722900390625,-0.008267517201602459,0.007820638827979565,0.0009403621661476791
1772462547586339000,1.282339111328125,-0.006356965284794569,0.007782289292663336,0.0020658141002058983
1772462547596387000,1.292386962890625,-0.007645935285836458,0.008198275230824947,0.0015936355339363217
1772462547606435000,1.30243505859375,-0.0070547135546803474,0.007861385121941566,0.0019323896849527955
1772462547616484000,1.312484130859375,-0.009100553579628468,0.009979663416743279,-0.00003009372085216455
1772462547626532000,1.322531982421875,-0.010765296407043934,0.007032076828181744,0.005862416233867407
1772462547636580900,1.332580810546875,-0.00868936162441969,0.007092530373483896,0.0010572749888524413
1772462547646629000,1.342629150390625,-0.00675351032987237,0.008583634160459042,0.0013638047967106104
1772462547656677000,1.352677001953125,-0.005635781679302454,0.005592105444520712,0.0021137509029358625
1772462547666726100,1.36272607421875,-0.008477906696498394,0.007517837453633547,0.00009321063407696784
1772462547676774100,1.372774169921875,-0.00866246409714222,0.006786799523979425,0.003641340183094144
1772462547686823200,1.3828232421875,-0.009840114042162895,0.008020375855267048,0.001714010490104556
1772462547696871200,1.39287109375,-0.007248059380799532,0.005630454979836941,0.002133458387106657
1772462547706919000,1.4029189453125,-0.004848817363381386,0.007260309532284737,0.0013845774810761213
1772462547716968000,1.412968017578125,-0.007941014133393764,0.004977714270353317,0.0032501218374818563
1772462547727016000,1.423015869140625,-0.008826781064271927,0.007337008602917194,0.0026639599818736315
1772462547737065000,1.43306494140625,-0.008058725856244564,0.006360960192978382,0.0021646174136549234
1772462547747113000,1.443113037109375,-0.011057977564632893,0.009910954162478447,0.0036224317736923695
1772462547757161200,1.4531611328125,-0.007990814745426178,0.008531436324119568,-0.00012250541476532817
1772462547767210000,1.4632099609375,-0.009068862535059452,0.005884520709514618,0.0011249192757532
1772462547777258200,1.47325830078125,-0.00782516598701477,0.008709868416190147,0.0024778051301836967
1772462547787307000,1.48330712890625,-0.009003881365060806,0.006247776094824076,0.0007600661483593285
1772462547797355000,1.49335498046875,-0.008009989745914936,0.0067838700488209724,0.004629373084753752
1772462547807403000,1.503403076171875,-0.009792443364858627,0.004987301770597696,0.0059867859818041325
1772462547817452000,1.5134521484375,-0.010602043941617012,0.008162855170667171,0.0018021611031144857
1772462547827500000,1.5235,-0.008127168752253056,0.00640916358679533,0.0033571808598935604
1772462547837549000,1.533549072265625,-0.00899748969823122,0.00812237523496151,0.0020125508308410645
1772462547847597000,1.54359716796875,-0.006280532572418451,0.006259227637201548,0.0026517093647271395
1772462547857645000,1.55364501953125,-0.006669886875897646,0.007209177128970623,0.0029760824982076883
1772462547867694000,1.563694091796875,-0.007292001508176327,0.007351655978709459,0.003176884725689888
1772462547877742000,1.5737421875,-0.00689039658755064,0.009021458216011524,0.0021917815320193768
1772462547887791000,1.583791015625,-0.00717695290222764,0.00689039658755064,0.00045353634050115943
1772462547897839000,1.593839111328125,-0.008011853322386742,0.008095210418105125,0.0021851237397640944
1772462547907887000,1.60388720703125,-0.0096273273229599,0.006441121455281973,0.0016559535870328546
1772462547917936000,1.61393603515625,-0.009089634753763676,0.007393201347440481,0.003820304526016116
1772462547927983900,1.62398388671875,-0.007242999039590359,0.009753827005624771,-0.0005075985100120306
1772462547938033200,1.634033203125,-0.009082178585231304,0.007226753979921341,0.008021174930036068
1772462547948081000,1.644080810546875,-0.009103483520448208,0.008111456409096718,0.00040027310024015605
1772462547958129000,1.65412890625,-0.008080030791461468,0.007982292212545872,-0.00016458335448987782
1772462547968178000,1.664177978515625,-0.009578324854373932,0.00872158631682396,0.0033547841012477875
1772462547978226000,1.674225830078125,-0.009332515299320221,0.008176437579095364,0.003775030840188265
1772462547988275000,1.68427490234375,-0.010067014954984188,0.007786284200847149,0.002139583695679903
1772462547998323000,1.694322998046875,-0.008876049891114235,0.00917485635727644,0.0026136261876672506
1772462548008371200,1.70437109375,-0.007711182814091444,0.004803011193871498,0.004494084510952234
1772462548018420000,1.714419921875,-0.00999431125819683,0.007456851191818714,0.003120692213997245
1772462548028468200,1.72446826171875,-0.008961270563304424,0.006096774712204933,0.0006117281154729426
1772462548038517000,1.73451708984375,-0.007452856283634901,0.006046973634511232,0.0017531589837744832
1772462548048565200,1.744565185546875,-0.007003314793109894,0.007364172954112291,0.00202240445651114
1772462548058613000,1.754613037109375,-0.007090399973094463,0.0049340385012328625,-0.00016165387933142483
1772462548068662000,1.764662109375,-0.006385461427271366,0.007791077718138695,0.0022447784431278706
1772462548078710000,1.7747099609375,-0.0062640211544930935,0.008076302707195282,0.0034107104875147343
1772462548088759000,1.784759033203125,-0.01022440753877163,0.006272543221712112,-0.0002993392990902066
1772462548098807000,1.79480712890625,-0.007408115081489086,0.007424360606819391,0.0031230889726430178
1772462548108855000,1.80485498046875,-0.007327155210077763,0.00711809704080224,0.005804625805467367
1772462548118904000,1.814904052734375,-0.006016347091645002,0.009002016857266426,0.0024176177103072405
1772462548128952000,1.8249521484375,-0.008491489104926586,0.00888004433363676,0.0032226911280304193
1772462548139001000,1.8350009765625,-0.008902947418391705,0.008376972749829292,0.003153981640934944
1772462548149049000,1.845049072265625,-0.0070283482782542706,0.005340703297406435,0.0008492820779792964
1772462548159096800,1.855096923828125,-0.005191832315176725,0.008865396492183208,0.0012239888310432434
1772462548169146000,1.86514599609375,-0.005453621037304401,0.00580728892236948,0.0019523634109646082
1772462548179193900,1.87519384765625,-0.009966880083084106,0.005240834783762693,0.0026106967125087976
1772462548189243100,1.8852431640625,-0.009712282568216324,0.007862450554966927,0.003148389048874378
1772462548199291000,1.895290771484375,-0.009279252029955387,0.007933823391795158,0.0007291734800674021
1772462548209339100,1.905339111328125,-0.006828078534454107,0.008821987546980381,0.002528138691559434
1772462548219388000,1.915387939453125,-0.00749147217720747,0.006757771130651236,0.004345746245235205
1772462548229436200,1.925436279296875,-0.009435580112040043,0.006568952929228544,0.002478603972122073
1772462548239485000,1.93548486328125,-0.009791377931833267,0.005967611446976662,0.003754524514079094
1772462548249533000,1.945532958984375,-0.008478173054754734,0.008316253311932087,-0.00013369068619795144
1772462548259581200,1.955581298828125,-0.008620652370154858,0.005323925521224737,0.0020487697329372168
1772462548269630000,1.9656298828125,-0.00771890627220273,0.0057407100684940815,0.002511094557121396
1772462548279678200,1.97567822265625,-0.010176737792789936,0.007756989449262619,0.0031337416730821133
1772462548289727000,1.98572705078125,-0.007477889768779278,0.006479204632341862,0.002124936319887638
1772462548299775200,1.995775146484375,-0.009098157286643982,0.008565790951251984,0.0013129384024068713
1772462548309823000,2.005822998046875,-0.005919940769672394,0.004728176165372133,0.0006458165589720011
1772462548319872300,2.015872314453125,-0.0059244679287076,0.008064850233495235,0.004652009811252356
1772462548329920000,2.025919921875,-0.006363090593367815,0.00797510240226984,0.0035486621782183647
1772462548339969300,2.03596923828125,-0.00643632747232914,0.007298126816749573,0.0030890004709362984
1772462548350017000,2.04601708984375,-0.007043794728815556,0.00860227644443512,0.0030418625101447105
1772462548360065000,2.05606494140625,-0.008949286304414272,0.008714395575225353,-0.0013206616276875138
1772462548370114000,2.066114013671875,-0.007334079127758741,0.006924485322088003,-0.0003563309437595308
1772462548380162000,2.076162109375,-0.009620935656130314,0.005625661462545395,0.0006495449924841523
1772462548390211000,2.086211181640625,-0.007950068451464176,0.008637430146336555,0.00006205165118444711
1772462548400259000,2.096259033203125,-0.009500028565526009,0.006312224548310041,0.0056925066746771336
1772462548410306800,2.106306884765625,-0.0075785573571920395,0.007760717533528805,0.0033308155834674835
1772462548420356000,2.116356201171875,-0.006283994764089584,0.007860053330659866,0.003944407682865858
1772462548430403800,2.12640380859375,-0.007698932196944952,0.00609304616227746,0.0037734329234808683
1772462548440453000,2.136453125,-0.008429969660937786,0.0067750816233456135,0.0037209687288850546
1772462548450500900,2.1465009765625,-0.008739163167774677,0.007568703964352608,0.0024668860714882612
1772462548460549000,2.156549072265625,-0.008413458243012428,0.0065351310186088085,0.0013321131700649858
1772462548470598000,2.166597900390625,-0.010230532847344875,0.005864547099918127,0.0034946000669151545
1772462548480646100,2.176646240234375,-0.008787100203335285,0.0075964005663990974,0.0010032127611339092
1772462548490695000,2.18669482421875,-0.007992945611476898,0.005741509143263102,0.0031931300181895494
1772462548500743200,2.1967431640625,-0.009602559730410576,0.006169478874653578,0.001885784324258566
1772462548510791200,2.206791259765625,-0.008991098031401634,0.007169229444116354,0.0025598304346203804
1772462548520840000,2.21683984375,-0.007800398860126734,0.008888565935194492,0.00070493872044608
1772462548530888200,2.22688818359375,-0.009315204806625843,0.007528489921241999,0.0009392969077453017
1772462548540937000,2.23693701171875,-0.00944969430565834,0.0073322150856256485,0.0030011162161827087
1772462548550985200,2.246985107421875,-0.007259777281433344,0.008989499881863594,0.006533532869070768
1772462548561033000,2.257032958984375,-0.007215302437543869,0.007222492713481188,0.0022032330743968487
1772462548571082200,2.267082275390625,-0.006961236707866192,0.008873386308550835,0.00446931691840291
1772462548581130000,2.2771298828125,-0.008763131685554981,0.005961752496659756,0.0025574336759746075
1772462548591179000,2.287178955078125,-0.009462211281061172,0.004893292207270861,0.0025925873778760433
1772462548601227000,2.29722705078125,-0.00993172638118267,0.00589543953537941,0.003921770956367254
1772462548611275000,2.30727490234375,-0.007452856283634901,0.008266185410320759,0.0031009847298264503
1772462548621324000,2.317323974609375,-0.008697085082530975,0.006324208807200193,0.0023987090680748224
1772462548631372000,2.3273720703125,-0.006642456166446209,0.008104798384010792,0.0007062703371047974
1772462548641421000,2.337421142578125,-0.00854315422475338,0.007441404741257429,0.0009856359101831913
1772462548651469000,2.347468994140625,-0.008382565341889858,0.009017197415232658,-0.0006713828770443797
1772462548661518000,2.35751806640625,-0.010423346422612667,0.00729413190856576,-0.00013768543431069702
1772462548671566000,2.367566162109375,-0.007576959673315287,0.008946890011429787,0.0016844493802636862
1772462548681614000,2.377614013671875,-0.00862997304648161,0.007934089750051498,0.00216594897210598
1772462548691663000,2.3876630859375,-0.009416138753294945,0.004768389742821455,0.0029933929909020662
1772462548701710800,2.3977109375,-0.00806298665702343,0.009159675799310207,0.001505751279182732
1772462548711760100,2.407760009765625,-0.010084858164191246,0.006657902617007494,0.004865595139563084
1772462548721808000,2.417807861328125,-0.0078571243211627,0.009564743377268314,0.005203550215810537
1772462548731856100,2.427856201171875,-0.007358314003795385,0.0067694890312850475,0.0018911106744781137
1772462548741905000,2.43790478515625,-0.006245112512260675,0.007351389620453119,0.0026288062799721956
1772462548751953200,2.447953125,-0.008893893100321293,0.009822270832955837,0.0028248149901628494
1772462548762002000,2.458001953125,-0.00797270517796278,0.006158826407045126,0.0007637945818714797
1772462548772050200,2.46805029296875,-0.009954629465937614,0.00851545762270689,0.00008681904728291556
1772462548782098200,2.47809814453125,-0.00951148010790348,0.008553273975849152,-0.000330231967382133
1772462548792147200,2.488147216796875,-0.004908205941319466,0.006903179921209812,0.003573429537937045
1772462548802195200,2.4981953125,-0.007404652889817953,0.006729541812092066,0.0033688987605273724
1772462548812244000,2.508243896484375,-0.0067910607904195786,0.006937534548342228,0.001103880233131349
1772462548822292000,2.5182919921875,-0.007334345486015081,0.006761233322322369,0.0033774208277463913
1772462548832340000,2.528340087890625,-0.006018743850290775,0.007676029112190008,0.00373082235455513
1772462548842389000,2.538388916015625,-0.006036320701241493,0.005109540652483702,0.000746750389225781
1772462548852437000,2.54843701171875,-0.008786567486822605,0.003748931922018528,0.0033361418172717094
1772462548862485800,2.55848583984375,-0.009137571789324284,0.006996124051511288,0.0032261533197015524
1772462548872534000,2.568533935546875,-0.008686432614922523,0.008743423968553543,0.0032740901224315166
1772462548882582000,2.57858203125,-0.008554339408874512,0.007239270955324173,0.0035228293854743242
1772462548892630800,2.588630859375,-0.007382016163319349,0.008331699296832085,0.002359294332563877
1772462548902679000,2.598678955078125,-0.007908256724476814,0.006992129608988762,0.0024884575977921486
1772462548912727800,2.608727783203125,-0.009149289689958096,0.007681355345994234,0.004258661065250635
1772462548922776000,2.618776123046875,-0.010054231621325016,0.005922071170061827,0.0007294398383237422
1772462548932823800,2.62882373046875,-0.010011089034378529,0.007597998715937138,0.0026413232553750277
1772462548942873000,2.638873046875,-0.010060090571641922,0.006788930390030146,-0.00003408846168895252
1772462548952920800,2.6489208984375,-0.008449411019682884,0.007022489327937365,0.0034826158080250025
1772462548962970000,2.65897021484375,-0.006191050633788109,0.00628958735615015,0.005347094964236021
1772462548973017900,2.669017822265625,-0.009700563736259937,0.00830932892858982,0.004207261838018894
1772462548983067100,2.679067138671875,-0.008228635415434837,0.006052299868315458,0.00022210762836039066
1772462548993115000,2.689114990234375,-0.008282963186502457,0.005147357936948538,0.0018181400373578072
1772462549003163000,2.699162841796875,-0.007397196255624294,0.006537261418998241,0.00256435782648623
1772462549013212000,2.7092119140625,-0.006214752793312073,0.005906624719500542,0.00227833422832191
1772462549023260000,2.719260009765625,-0.007282946724444628,0.007696801796555519,0.00018695391190703958
1772462549033309000,2.729308837890625,-0.00987287051975727,0.00836791843175888,0.002558498876169324
1772462549043357000,2.73935693359375,-0.008313323371112347,0.008464591577649117,0.0012175972806289792
1772462549053405000,2.749405029296875,-0.011709652841091156,0.007157777901738882,0.0013342436868697405
1772462549063454000,2.759453857421875,-0.007985222153365612,0.008530903607606888,0.0006681871018372476
1772462549073502000,2.769501953125,-0.0070579093880951405,0.00595562718808651,0.0002516687090974301
1772462549083551000,2.779551025390625,-0.00897005945444107,0.008463259786367416,0.001606418751180172
1772462549093598700,2.7895986328125,-0.007816644385457039,0.010002566501498222,0.003085005795583129
1772462549103647000,2.79964697265625,-0.01028512790799141,0.006959639023989439,0.0035425368696451187
1772462549113695700,2.80969580078125,-0.009350358508527279,0.007661914452910423,0.0037675739731639624
1772462549123744000,2.819743896484375,-0.009079515002667904,0.00758042186498642,0.0023782027419656515
1772462549133792800,2.829792724609375,-0.007878429256379604,0.008510397747159004,0.004564391914755106
1772462549143841000,2.839841064453125,-0.007022489327937365,0.006614759564399719,0.001487375469878316
1772462549153889000,2.849888916015625,-0.009082444943487644,0.00717695290222764,0.0020660804584622383
1772462549163937800,2.859937744140625,-0.008391354233026505,0.008419583551585674,0.0020394488237798214
1772462549173986000,2.869986083984375,-0.006744988262653351,0.006848052144050598,0.0023124227300286293
1772462549184034800,2.880034912109375,-0.01004917174577713,0.008347677998244762,0.001091629732400179
1772462549194083000,2.8900830078125,-0.008313057012856007,0.006625944748520851,0.0013728595804423094
1772462549204131800,2.9001318359375,-0.010158095508813858,0.011128551326692104,0.00025033715064637363
1772462549214180000,2.91018017578125,-0.007783088367432356,0.008555671200156212,0.002338788006454706
1772462549224227800,2.920227783203125,-0.00749093946069479,0.006938599981367588,0.0046847667545080185
1772462549234277000,2.930277099609375,-0.006509830709546804,0.007761516608297825,0.006880276836454868
1772462549244324900,2.940324951171875,-0.00803449098020792,0.00740225613117218,0.0032562471460551023
1772462549254374100,2.9503740234375,-0.007632619701325893,0.007544202730059624,0.004673581570386887
1772462549264422000,2.960421875,-0.007221161387860775,0.007433947641402483,0.002409095410257578
1772462549274470000,2.970469970703125,-0.007964449934661388,0.006963367108255625,0.0011030812747776508
1772462549284519000,2.980518798828125,-0.006049903109669685,0.007697600871324539,0.002862099092453718
1772462549294567000,2.99056689453125,-0.006539924535900354,0.009065133519470692,0.0032714270055294037
1772462549304616000,3.000615966796875,-0.009750098921358585,0.00839961040765047,0.0020671456586569548
1772462549314664000,3.010663818359375,-0.00896526500582695,0.008010522462427616,0.001924666459672153
1772462549324712000,3.0207119140625,-0.006022206041961908,0.0067423246800899506,0.0049556102603673935
1772462549334761000,3.030760986328125,-0.009090433828532696,0.006213687360286713,0.0018908443162217736
1772462549344808700,3.04080859375,-0.00839534867554903,0.005936984904110432,0.0015696671325713396
1772462549354858000,3.05085791015625,-0.0093317162245512,0.009159942157566547,0.0014908375451341271
1772462549364905700,3.06090576171875,-0.008533833548426628,0.006773483939468861,0.003004844533279538
1772462549374955000,3.070955078125,-0.0073596457950770855,0.011343201622366905,-0.00009134642459684983
1772462549385002800,3.081002685546875,-0.008821454830467701,0.008442486636340618,0.002407231368124485
1772462549395051000,3.091051025390625,-0.009280317462980747,0.00788615271449089,0.003239202778786421
1772462549405099800,3.101099853515625,-0.006132993847131729,0.007127418182790279,0.004170776344835758
1772462549415148000,3.11114794921875,-0.009606022387742996,0.00866459496319294,0.0032887374982237816
1772462549425196800,3.12119677734375,-0.007953263819217682,0.006184925325214863,0.00361817074008286
1772462549435245000,3.1312451171875,-0.008410262875258923,0.007809720002114773,0.001490571303293109
1772462549445293000,3.14129296875,-0.00977246928960085,0.007997206412255764,0.003625627374276519
1772462549455341800,3.151341796875,-0.006461361423134804,0.006536728702485561,0.0006625944515690207
1772462549465390000,3.16139013671875,-0.009727728553116322,0.006888532545417547,0.004010720644146204
1772462549475438800,3.17143896484375,-0.008557269349694252,0.008013984188437462,0.0011925635626539588
1772462549485487000,3.181487060546875,-0.009900568053126335,0.0044408212415874004,0.0011448930017650127
1772462549495534800,3.191534912109375,-0.008915997110307217,0.00893570389598608,0.002287122653797269
1772462549505584000,3.201584228515625,-0.009037170559167862,0.004999552387744188,0.0009321063989773393
1772462549515631900,3.2116318359375,-0.006988401059061289,0.008379369974136353,0.00293293921276927
1772462549525681000,3.221680908203125,-0.007249657064676285,0.005101551301777363,0.000254331884207204
1772462549535729000,3.23172900390625,-0.009097624570131302,0.008539958856999874,0.003585413796827197
1772462549545778000,3.24177783203125,-0.008439024910330772,0.006988933775573969,0.0024399880785495043
1772462549555826000,3.251825927734375,-0.00851625669747591,0.005078381858766079,0.0019430422689765692
1772462549565874000,3.2618740234375,-0.009047291241586208,0.007449394091963768,0.00115394766908139
1772462549575923000,3.2719228515625,-0.0068152956664562225,0.006490389816462994,0.0022450448013842106
1772462549585971000,3.281970947265625,-0.007858721539378166,0.00782836228609085,0.003748399205505848
1772462549596020000,3.29202001953125,-0.009423595853149891,0.007571633439511061,0.006142314523458481
1772462549606068000,3.30206787109375,-0.00872211903333664,0.007558317389339209,0.0032056469935923815
1772462549616115700,3.31211572265625,-0.008357532322406769,0.005298358853906393,0.003436276689171791
1772462549626165000,3.3221650390625,-0.007594802882522345,0.008117049001157284,0.004920456558465958
1772462549636212700,3.332212646484375,-0.008700280450284481,0.006124471314251423,0.00019334549142513424
1772462549646262000,3.342261962890625,-0.004818190820515156,0.004199272487312555,0.0018753979820758104
1772462549656309800,3.352309814453125,-0.00812130980193615,0.007047523278743029,0.0031590417493134737
1772462549666358000,3.36235791015625,-0.0060919807292521,0.007274424657225609,0.00018908442871179432
1772462549676406800,3.37240673828125,-0.01016688346862793,0.007571367081254721,-0.0003129214164800942
1772462549686455000,3.382455078125,-0.009622533805668354,0.005386775825172663,0.004042412154376507
1772462549696503800,3.39250390625,-0.00914449617266655,0.007318366784602404,0.0035004590172320604
1772462549706552000,3.402552001953125,-0.007309045642614365,0.004767324775457382,0.005076784174889326
1772462549716600800,3.412600830078125,-0.007410511840134859,0.007991613820195198,0.0035401401109993458
1772462549726648800,3.42264892578125,-0.007127151824533939,0.004393416922539473,0.004192348103970289
1772462549736696800,3.43269677734375,-0.006547914352267981,0.009668872691690922,0.003698864486068487
1772462549746745900,3.442745849609375,-0.008919991552829742,0.007000651676207781,0.002004561247304082
1772462549756793900,3.4527939453125,-0.00863023940473795,0.009016131982207298,0.0023073628544807434
1772462549766843000,3.4628427734375,-0.01011228933930397,0.00762889115139842,0.00523577444255352
1772462549776891000,3.472890869140625,-0.009185242466628551,0.006673082709312439,0.0021465078461915255
1772462549786939000,3.48293896484375,-0.008924785070121288,0.007071225438266993,-0.0002282329078298062
1772462549796988000,3.49298779296875,-0.008985505439341068,0.007394000422209501,0.0004215783847030252
1772462549807036000,3.503035888671875,-0.00971414614468813,0.008963934145867825,0.003994475118815899
1772462549817085000,3.5130849609375,-0.0070432620123028755,0.008556470274925232,0.0009635316673666239
1772462549827133700,3.5231337890625,-0.008481102995574474,0.007721036672592163,0.00472444761544466
1772462549837181700,3.533181640625,-0.007404652889817953,0.005399825517088175,0.0031214910559356213
1772462549847230500,3.54323046875,-0.006738862954080105,0.007739412598311901,0.0023339942563325167
1772462549857278500,3.553278564453125,-0.008801747113466263,0.006954045966267586,0.0025070998817682266
1772462549867327500,3.563327392578125,-0.0073564499616622925,0.006609433330595493,0.003412574529647827
1772462549877375500,3.57337548828125,-0.008715727366507053,0.005358812864869833,0.003129480639472604
1772462549887424500,3.583424560546875,-0.008567122742533684,0.00902651809155941,0.003878894029185176
1772462549897472500,3.593472412109375,-0.008188420906662941,0.008557002991437912,0.0009917612187564373
1772462549907520500,3.6035205078125,-0.00942119862884283,0.007879761047661304,0.002400573343038559
1772462549917569500,3.613569580078125,-0.005280782002955675,0.0070581757463514805,0.0019172097090631723
1772462549927617500,3.623617431640625,-0.007349259220063686,0.008652610704302788,0.0034916705917567015
1772462549937666600,3.63366650390625,-0.00803022924810648,0.00977593194693327,0.001446096459403634
1772462549947714600,3.643714599609375,-0.007797469384968281,0.008058725856244564,-0.0005147890187799931
1772462549957762600,3.653762451171875,-0.005750563926994801,0.005917277652770281,0.0010841728653758764
1772462549967811600,3.6638115234375,-0.00923397857695818,0.006271744146943092,0.003802194958552718
1772462549977859600,3.673859619140625,-0.008258729241788387,0.005884787067770958,0.0008460862445645034
1772462549987908600,3.68390869140625,-0.010539193637669086,0.008644088171422482,0.0035718316212296486
1772462549997956600,3.69395654296875,-0.010158095508813858,0.006957241799682379,0.002086320426315069
1772462550008005600,3.704005615234375,-0.007644603960216045,0.009455553255975246,0.0019273296929895878
1772462550018053600,3.7140537109375,-0.008682969957590103,0.005915945861488581,0.0030929953791201115
1772462550028101400,3.724101318359375,-0.006060555577278137,0.009495234116911888,0.0029017801862210035
1772462550038150700,3.734150634765625,-0.009281382896006107,0.0065018413588404655,0.003284476464614272
1772462550048198400,3.744198486328125,-0.010145844891667366,0.006579073145985603,0.0036727653350681067
1772462550058247700,3.75424755859375,-0.0060056946240365505,0.007795871235430241,0.0027800737880170345
1772462550068295400,3.76429541015625,-0.009590841829776764,0.008708003908395767,0.0023430490400642157
1772462550078343700,3.77434375,-0.007210774812847376,0.009066465310752392,0.0010420948965474963
1772462550088392400,3.784392333984375,-0.009664611890912056,0.006331132724881172,0.002457298804074526
1772462550098440700,3.794440673828125,-0.010320015251636505,0.008364723064005375,0.002755572786554694
1772462550108489500,3.804489501953125,-0.007970042526721954,0.005274656694382429,0.001386175281368196
1772462550118537700,3.814537841796875,-0.00878869742155075,0.006902380846440792,0.0017398431664332747
1772462550128586500,3.82458642578125,-0.00908271037042141,0.006573214195668697,0.005602492019534111
1772462550138634500,3.834634521484375,-0.009610283188521862,0.0063210129737854,0.006843524985015392
1772462550148682500,3.8446826171875,-0.005396896041929722,0.007016896735876799,0.004237355664372444
1772462550158731500,3.8547314453125,-0.008388690650463104,0.009958624839782715,0.0030690268613398075
1772462550168779500,3.864779541015625,-0.007619836367666721,0.010894193314015865,0.0017994979862123728
1772462550178828500,3.87482861328125,-0.007547132205218077,0.006707970052957535,0.002409628126770258
1772462550188876500,3.88487646484375,-0.010001767426729202,0.007553523872047663,0.00003861583536490798
1772462550198924500,3.894924560546875,-0.006190784275531769,0.008622783236205578,0.0014596786350011826
1772462550208973600,3.9049736328125,-0.00818176381289959,0.007085073739290237,-0.0007137271459214389
1772462550219021600,3.915021484375,-0.008007592521607876,0.008081362582743168,0.001115864492021501
1772462550229070600,3.925070556640625,-0.007238471880555153,0.0051897019147872925,0.0023441144730895758
1772462550239118600,3.93511865234375,-0.007020092569291592,0.00794394314289093,0.0025478461757302284
1772462550249167400,3.94516748046875,-0.008494152687489986,0.008740494959056377,0.0037321539130061865
1772462550259215600,3.955215576171875,-0.010373544879257679,0.00890880636870861,0.0017571536591276526
1772462550269263600,3.965263671875,-0.007195328362286091,0.0073138391599059105,0.0035633095540106297
1772462550279312600,3.975312744140625,-0.00830879621207714,0.007950601167976856,0.001859152689576149
1772462550289360600,3.985360595703125,-0.008927448652684689,0.007448328658938408,0.00333241350017488
1772462550299408400,3.995408447265625,-0.008044078014791012,0.009236641228199005,0.0033039175905287266
1772462550309457700,4.005457763671875,-0.00803262647241354,0.00875061471015215,0.0025891251862049103
1772462550319505400,4.01550537109375,-0.00881106872111559,0.005856291390955448,0.0013009541435167193
1772462550329554400,4.025554443359375,-0.007136472500860691,0.005934588145464659,0.001442900625988841
1772462550339602400,4.0356025390625,-0.008926915936172009,0.008767392486333847,0.000559263804461807
1772462550349651500,4.0456513671875,-0.008344482630491257,0.007963650859892368,0.0016620787791907787
1772462550359699500,4.055699462890625,-0.0086616650223732,0.006845122668892145,0.0027662254869937897
1772462550369747700,4.065747802734375,-0.0076214345172047615,0.005078381858766079,0.002287122653797269
1772462550379796500,4.07579638671875,-0.008696552366018295,0.008914665319025517,0.0023212111555039883
1772462550389844700,4.0858447265625,-0.007155647501349449,0.007770837750285864,0.0011153318919241428
1772462550399893500,4.0958935546875,-0.0073167686350643635,0.008375375531613827,0.0020602215081453323
1772462550409941500,4.10594140625,-0.007507983595132828,0.00871998816728592,-0.003090332029387355
1772462550419990500,4.115990478515625,-0.010122409090399742,0.007019826211035252,0.002208026824519038
1772462550430038500,4.12603857421875,-0.00782703049480915,0.006885869428515434,0.003335076617076993
1772462550440086500,4.13608642578125,-0.008204666897654533,0.007713845930993557,0.0012745888670906425
1772462550450135600,4.146135498046875,-0.008983374573290348,0.00654631620272994,0.003204315435141325
1772462550460183600,4.15618359375,-0.00956634059548378,0.008644620887935162,0.006136455573141575
1772462550470232600,4.166232666015625,-0.009527991525828838,0.006996923126280308,0.004384894855320454
1772462550480280600,4.176280517578125,-0.010145312175154686,0.006469084415584803,0.00256382510997355
1772462550490328600,4.18632861328125,-0.006991863250732422,0.008855010382831097,0.005411010701209307
1772462550500377600,4.196377685546875,-0.007071225438266993,0.006721286103129387,0.003972637467086315
1772462550510425600,4.206425537109375,-0.008458998054265976,0.0073228939436376095,0.0021521004382520914
1772462550520474400,4.216474365234375,-0.008873119950294495,0.003915912006050348,0.0015161376213654876
1772462550530522600,4.226522705078125,-0.008622516877949238,0.008202802389860153,0.0026312030386179686
1772462550540571400,4.2365712890625,-0.007505054119974375,0.00806032307446003,0.004564125556498766
1772462550550619600,4.24661962890625,-0.008608135394752026,0.009475260972976685,0.0036610474344342947
1772462550560667400,4.25666748046875,-0.00971627701073885,0.0065077003091573715,-0.0017867147689685225
1772462550570716700,4.266716552734375,-0.006109823938459158,0.005094893276691437,0.0018825886072590947
1772462550580764400,4.276764404296875,-0.007903995923697948,0.007670436520129442,0.001678057829849422
1772462550590813700,4.286813720703125,-0.006195844151079655,0.007641141768544912,0.005834453273564577
1772462550600861400,4.296861328125,-0.011449994519352913,0.0052197957411408424,0.0015792545164003968
1772462550610909400,4.306909423828125,-0.008371380157768726,0.006699181627482176,0.002115348819643259
1772462550620958500,4.31695849609375,-0.010893660597503185,0.007114901207387447,0.0034109766129404306
1772462550631006500,4.32700634765625,-0.00962679460644722,0.00896792858839035,0.002400839701294899
1772462550641055500,4.337055419921875,-0.007555387914180756,0.009837450459599495,0.0016468988033011556
1772462550651103500,4.347103515625,-0.008353803306818008,0.007182279136031866,-0.0026133600622415543
1772462550661152500,4.357152587890625,-0.008961004205048084,0.006872819736599922,0.0023102923296391964
1772462550671200500,4.367200439453125,-0.00881799217313528,0.008946890011429787,-0.00020000340009573847
1772462550681248800,4.377248779296875,-0.009014267474412918,0.007850199937820435,0.0007629956235177815
1772462550691297500,4.387297607421875,-0.0109474565833807,0.00851465854793787,0.003971838392317295
1772462550701345500,4.397345458984375,-0.007862450554966927,0.005856025032699108,0.0011936287628486753
1772462550711394600,4.40739453125,-0.009820406325161457,0.005569735076278448,0.003034672001376748
1772462550721442600,4.417442626953125,-0.00881932396441698,0.00857431348413229,0.0023307986557483673
1772462550731490600,4.427490478515625,-0.0076025258749723434,0.00698041170835495,0.003945473115891218
1772462550741539600,4.43753955078125,-0.005944175645709038,0.006840861868113279,0.0032722260802984238
1772462550751587600,4.447587646484375,-0.007220362313091755,0.005660815164446831,-0.00020746025256812572
1772462550761636600,4.45763671875,-0.010158361867070198,0.008537827990949154,0.0020543625578284264
1772462550771684600,4.4676845703125,-0.005929794628173113,0.008529306389391422,0.004010187927633524
1772462550781733600,4.477733642578125,-0.0080925477668643,0.009020126424729824,0.002776345470920205
1772462550791781600,4.48778173828125,-0.010094977915287018,0.0054512242786586285,0.0038248319178819656
1772462550801829600,4.49782958984375,-0.007096791639924049,0.007855792529881,0.0034581145737320185
1772462550811878400,4.50787841796875,-0.010076602920889854,0.00748960766941309,0.002540922025218606
1772462550821926700,4.5179267578125,-0.009225189685821533,0.008925850503146648,0.0010929612908512354
1772462550831975000,4.527974853515625,-0.006484264507889748,0.005877329967916012,0.002245843643322587
1772462550842023200,4.538023193359375,-0.008523712866008282,0.006607835181057453,0.0012953615514561534
1772462550852071200,4.5480712890625,-0.0073473951779305935,0.0070832096971571445,0.0007621967233717442
1772462550862120200,4.5581201171875,-0.00863530021160841,0.008376440964639187,0.0037984666414558887
1772462550872168200,4.568168212890625,-0.007541539613157511,0.008864331990480423,0.004297809209674597
1772462550882217000,4.578217041015625,-0.008197476156055927,0.006421147845685482,0.0011701929615810513
1772462550892265000,4.588264892578125,-0.007210774812847376,0.009503756649792194,0.0035337484441697598
1772462550902314000,4.59831396484375,-0.007472563534975052,0.008974586613476276,0.0024317323695868254
1772462550912362000,4.608362060546875,-0.008735966868698597,0.008868592791259289,0.0031784826423972845
1772462550922410000,4.618409912109375,-0.008328237570822239,0.0065103634260594845,0.004445881117135286
1772462550932459000,4.628458984375,-0.007815312594175339,0.008596417494118214,0.003950266633182764
1772462550942507000,4.638507080078125,-0.008348210714757442,0.00757988914847374,0.0037790255155414343
1772462550952556000,4.64855615234375,-0.0078046596609056,0.007672300562262535,0.0019180085510015488
1772462550962604000,4.65860400390625,-0.008841427974402905,0.008682969957590103,0.002686064224690199
1772462550972653000,4.668653076171875,-0.009988185949623585,0.006963633466511965,0.0006772418855689466
1772462550982701000,4.678701171875,-0.00635030772536993,0.010320547968149185,0.002320145955309272
1772462550992749800,4.688749755859375,-0.005230181850492954,0.006439789664000273,0.0035958001390099525
1772462551002798000,4.698798095703125,-0.007772435434162617,0.008014516904950142,0.0036602485924959183
1772462551012846000,4.70884619140625,-0.00791278388351202,0.007808654569089413,0.0028423918411135674
1772462551022895000,4.71889501953125,-0.00634870957583189,0.008421714417636395,0.0014759238110855222
1772462551032943000,4.728943115234375,-0.009106678888201714,0.007137005217373371,0.0036916739773005247
1772462551042992000,4.7389921875,-0.009623865596950054,0.006902913562953472,0.0012604740913957357
1772462551053040000,4.7490400390625,-0.007251254748553038,0.008234760724008083,0.0011611381778493524
1772462551063087900,4.759087890625,-0.00845393817871809,0.007663778495043516,0.005343899130821228
1772462551073137200,4.76913720703125,-0.00800572894513607,0.007468835450708866,0.0004575310740619898
1772462551083185000,4.779184814453125,-0.009090700186789036,0.006947654765099287,0.0008594020619057119
1772462551093234200,4.789234130859375,-0.008056861348450184,0.003970240708440542,0.0007342335302382708
1772462551103282000,4.799281982421875,-0.007574562914669514,0.00893597025424242,0.003933222498744726
1772462551113331200,4.809331298828125,-0.008417187258601189,0.004494616761803627,-0.000844754686113447
1772462551123379000,4.81937890625,-0.009274458512663841,0.006162288598716259,0.0026999127585440874
1772462551133427200,4.82942724609375,-0.010071808472275734,0.00777696305885911,0.0012564794160425663
1772462551143476000,4.83947607421875,-0.009304019622504711,0.007394000422209501,0.0023643544409424067
1772462551153524200,4.849524169921875,-0.008452607318758965,0.006915164180099964,0.00008841694943839684
1772462551163573000,4.859572998046875,-0.00948138628154993,0.008594819344580173,0.003014432033523917
1772462551173621000,4.86962109375,-0.006644320674240589,0.006313822232186794,0.00566960358992219
1772462551183670000,4.879669921875,-0.008680307306349277,0.006640858482569456,0.0032408006954938173
1772462551193718000,4.889718017578125,-0.009093363769352436,0.006943393498659134,0.0016618125373497605
1772462551203766000,4.89976611328125,-0.010143714025616646,0.003920173272490501,0.004050934221595526
1772462551213815000,4.90981494140625,-0.006347378250211477,0.006253368686884642,0.001350755337625742
1772462551223863000,4.919863037109375,-0.009060606360435486,0.008229966275393963,0.001936917076818645
1772462551233912000,4.929912109375,-0.007798800710588694,0.007631554268300533,0.002944657113403082
1772462551243960000,4.9399599609375,-0.00723634148016572,0.0062578958459198475,0.0003936151915695518
1772462551254008000,4.950008056640625,-0.008478972129523754,0.008723184466362,0.0012857741676270962
1772462551264057000,4.96005712890625,-0.005154281854629517,0.008931176736950874,0.002590723102912307
1772462551274105000,4.97010498046875,-0.009223592467606068,0.009910954162478447,0.002388589084148407
1772462551284153900,4.98015380859375,-0.007999603636562824,0.008461661636829376,0.0028386632911860943
1772462551294202000,4.9902021484375,-0.008897088468074799,0.010045177303254604,0.00004793690095539205
1772462551304251000,5.0002509765625,-0.008014250546693802,0.007476558443158865,0.0003283677506260574
1772462551314299100,5.010299072265625,-0.008553273975849152,0.007595335599035025,0.0024948492646217346
1772462551324347100,5.02034716796875,-0.008287224918603897,0.009474195539951324,0.0041731735691428185
1772462551334396200,5.030396240234375,-0.007514375261962414,0.004884237423539162,0.0012841762509196997
1772462551344444200,5.040444091796875,-0.009680057875812054,0.007513842545449734,0.0020663465838879347
1772462551354493200,5.0504931640625,-0.0088803106918931,0.008905078284442425,0.0007257114048115909
1772462551364541000,5.060541015625,-0.007440072949975729,0.008931975811719894,0.004343349486589432
1772462551374590200,5.070590087890625,-0.007837150245904922,0.008499478921294212,0.0022186795249581337
1772462551384638000,5.080637939453125,-0.008403338491916656,0.008321579545736313,0.002430667169392109
1772462551394686000,5.09068603515625,-0.007592938374727964,0.0064863949082791805,0.0019944412633776665
1772462551404735000,5.10073486328125,-0.00890827365219593,0.005958290304988623,0.004099403973668814
1772462551414783000,5.110782958984375,-0.008650746196508408,0.00848669558763504,0.00022796659322921187
1772462551424832000,5.12083203125,-0.008775915019214153,0.006743390113115311,-0.00005246427463134751
1772462551434880000,5.1308798828125,-0.007796936668455601,0.00729519734159112,0.0015970977256074548
1772462551444929000,5.140928955078125,-0.008139153011143208,0.006743922829627991,0.0017326525412499905
1772462551454977000,5.15097705078125,-0.010091782547533512,0.008480570279061794,0.0022280006669461727
1772462551465025000,5.16102490234375,-0.00794261135160923,0.008047806099057198,0.003641073824837804
1772462551475074000,5.171073974609375,-0.007663778495043516,0.004547880031168461,0.0008697884040884674
1772462551485122000,5.1811220703125,-0.008065116591751575,0.006395048461854458,0.001660214620642364
1772462551495171000,5.191171142578125,-0.008492820896208286,0.0062578958459198475,0.002662095706909895
1772462551505219000,5.201218994140625,-0.00977353472262621,0.007938883267343044,0.0019185412675142288
1772462551515267000,5.21126708984375,-0.009072057902812958,0.0060232714749872684,0.0036666402593255043
1772462551525316000,5.221316162109375,-0.008560464717447758,0.008500809781253338,0.0018929748330265284
1772462551535364000,5.231364013671875,-0.007220628671348095,0.009036371484398842,0.003632285399362445
1772462551545413000,5.2414130859375,-0.00809361319988966,0.008754076436161995,0.00404480891302228
1772462551555460900,5.2514609375,-0.008241684176027775,0.0062280683778226376,0.004023769870400429
1772462551565510100,5.26151025390625,-0.0089980224147439,0.007931426167488098,0.0017089504981413484
1772462551575558000,5.271557861328125,-0.005026184022426605,0.007981760427355766,0.0023100259713828564
1772462551585606100,5.281606201171875,-0.009079515002667904,0.005273591727018356,0.0023909860756248236
1772462551595655000,5.291655029296875,-0.00780705688521266,0.008780175819993019,0.0024522386956959963
1772462551605703200,5.301703125,-0.00875301193445921,0.004436826333403587,0.0021614215802401304
1772462551615752000,5.311751953125,-0.006573214195668697,0.00631994754076004,0.002630137838423252
1772462551625800200,5.32180029296875,-0.006085056811571121,0.006283462047576904,0.00509808911010623
1772462551635849000,5.331848876953125,-0.007504787761718035,0.006868824828416109,0.002630137838423252
1772462551645897200,5.341897216796875,-0.007128483150154352,0.00845633540302515,0.003822967642918229
1772462551655945000,5.351945068359375,-0.007701595313847065,0.007637413218617439,0.0032623722217977047
1772462551665994000,5.361993896484375,-0.007109308615326881,0.008931443095207214,0.0006514092092402279
1772462551676042000,5.3720419921875,-0.010233729146420956,0.006676544900983572,0.0036661075428128242
1772462551686091000,5.382091064453125,-0.006765494588762522,0.00881905760616064,0.0001637844106880948
1772462551696139000,5.392138916015625,-0.008168980479240417,0.007655522786080837,0.0016522251535207033
1772462551706188000,5.40218798828125,-0.007820638827979565,0.009753295220434666,0.002892725635319948
1772462551716236000,5.412236083984375,-0.008494684472680092,0.007196127437055111,0.0006165218073874712
1772462551726284000,5.422283935546875,-0.00817776843905449,0.009212939068675041,0.0011672634864225984
1772462551736333000,5.4323330078125,-0.007084008306264877,0.007839813828468323,0.003397660795599222
1772462551746381000,5.442381103515625,-0.009091765619814396,0.0068184914998710155,0.003922303672879934
1772462551756430000,5.45243017578125,-0.009220662526786327,0.0067481836304068565,0.0034466630313545465
1772462551766478000,5.46247802734375,-0.00872211903333664,0.005760417319834232,0.004623514134436846
1772462551776526800,5.47252685546875,-0.009399893693625927,0.004808870144188404,0.00008016114588826895
1772462551786575000,5.4825751953125,-0.00987287051975727,0.0084837656468153,0.0032674323301762342
1772462551796623000,5.492623046875,-0.010125870816409588,0.008216651156544685,0.0018916432745754719
1772462551806672100,5.502672119140625,-0.008242216892540455,0.006625944748520851,0.004597947467118502
1772462551816720100,5.51272021484375,-0.007419566623866558,0.006841128226369619,-0.0002687129599507898
1772462551826769200,5.52276904296875,-0.008859005756676197,0.006962568499147892,0.004029362928122282
1772462551836817700,5.532817626953125,-0.010517355985939503,0.00797297153621912,0.0009065400226972997
1772462551846866000,5.542865966796875,-0.011755192652344704,0.008961536921560764,-0.0001478054327890277
1772462551856914700,5.552914794921875,-0.00678253872320056,0.007129282224923372,0.0027244137600064278
1772462551866963000,5.562962890625,-0.00691915862262249,0.007999070920050144,0.003209375310689211
1772462551877011700,5.57301171875,-0.00848349928855896,0.006835269276052713,0.003756654914468527
1772462551887059700,5.583059814453125,-0.010644654743373394,0.007753793615847826,0.0006474144756793976
1772462551897108700,5.593108642578125,-0.00863263662904501,0.006750580854713917,0.004202734678983688
1772462551907156700,5.60315673828125,-0.008596683852374554,0.010936270467936993,0.0018437063554301858
1772462551917204700,5.613204833984375,-0.0070640346966683865,0.0062187472358345985,0.0023811322171241045
1772462551927253800,5.623253662109375,-0.009041964076459408,0.006112753413617611,0.0003664509567897767
1772462551937301800,5.6333017578125,-0.009223858825862408,0.00794181227684021,0.003736681304872036
1772462551947350800,5.643350830078125,-0.007930360734462738,0.006638461723923683,0.001683916780166328
1772462551957398800,5.653398681640625,-0.007257113698869944,0.008527441881597042,-0.00045140579459257424
1772462551967447800,5.66344775390625,-0.009760751388967037,0.004446413833647966,0.0019491675775498152
1772462551977495800,5.673495849609375,-0.00911413598805666,0.005686914082616568,0.0014418354257941246
1772462551987543800,5.683543701171875,-0.008523447439074516,0.007956726476550102,-0.000526506919413805
1772462551997592600,5.693592529296875,-0.010628942400217056,0.008435828611254692,0.001156877144239843
1772462552007640800,5.703640869140625,-0.00902678444981575,0.0064373929053545,0.003157177474349737
1772462552017689600,5.713689697265625,-0.009581521153450012,0.005962018854916096,0.001915878034196794
1772462552027737900,5.72373779296875,-0.008676312863826752,0.00791491474956274,0.001047687605023384
1772462552037786600,5.73378662109375,-0.008923187851905823,0.008800681680440903,0.0029265477787703276
1772462552047835000,5.7438349609375,-0.008284561336040497,0.007542870938777924,0.003885019337758422
1772462552057883000,5.7538828125,-0.008401473984122276,0.008565524592995644,0.00430207047611475
1772462552067932000,5.763931884765625,-0.008393218740820885,0.008537028916180134,0.0007297061383724213
1772462552077980000,5.77397998046875,-0.007093329448252916,0.005060805007815361,0.0010879012988880277
1772462552088029000,5.78402880859375,-0.0072925337590277195,0.009818808175623417,0.003318032482638955
1772462552098077000,5.794076904296875,-0.008345814421772957,0.005858688149601221,0.0001781654718797654
1772462552108125700,5.804125732421875,-0.008099205791950226,0.004972388036549091,0.0033606430515646935
1772462552118174000,5.814174072265625,-0.010280867107212543,0.007170028518885374,-0.0009203884401358664
1772462552128221700,5.8242216796875,-0.007184942252933979,0.006929278839379549,0.004667722620069981
1772462552138271000,5.83427099609375,-0.006323143374174833,0.007889081723988056,0.0032570459879934788
1772462552148318700,5.844318603515625,-0.0065375277772545815,0.007784419693052769,0.004523911513388157
1772462552158368000,5.854367919921875,-0.006997722201049328,0.010032926686108112,0.0012271846644580364
1772462552168415700,5.864415771484375,-0.005151618737727404,0.006249906495213509,0.002073803450912237
1772462552178463700,5.874463623046875,-0.008327172137796879,0.005714078433811665,0.0027454528026282787
1772462552188512800,5.8845126953125,-0.006904244888573885,0.007093862164765596,0.006297843065112829
1772462552198560800,5.894560791015625,-0.006987069267779589,0.0057377805933356285,0.002841326640918851
1772462552208609800,5.90460986328125,-0.007812116760760546,0.00706856232136488,0.002591521944850683
1772462552218657800,5.91465771484375,-0.008921856060624123,0.009010006673634052,0.0015052186790853739
1772462552228706800,5.924706787109375,-0.007278951816260815,0.0070190271362662315,0.0028245486319065094
1772462552238754800,5.9347548828125,-0.008960471488535404,0.005501558072865009,0.002430400811135769
1772462552248802800,5.944802734375,-0.007134075742214918,0.009969543665647507,0.0011707255616784096
1772462552258851800,5.954851806640625,-0.005937517620623112,0.005997705273330212,0.0031246868893504143
1772462552268899600,5.964899658203125,-0.008871521800756454,0.007661115378141403,0.000029827404432580806
1772462552278948900,5.974948974609375,-0.008220112882554531,0.007084008306264877,-0.0006937534781172872
1772462552288996600,5.98499658203125,-0.008095476776361465,0.0065740132704377174,0.0024884575977921486
1772462552299046000,5.9950458984375,-0.008733037859201431,0.007732488214969635,0.0033923345617949963
1772462552309093600,6.00509375,-0.007498130202293396,0.005606486462056637,0.0032120386604219675
1772462552319142000,6.015141845703125,-0.006746852304786444,0.007394799496978521,0.003995540551841259
1772462552329190700,6.025190673828125,-0.008609999902546406,0.008935172110795975,0.003707386553287506
1772462552339239000,6.035239013671875,-0.008784170262515545,0.007784419693052769,0.0034581145737320185
1772462552349287700,6.04528759765625,-0.010266219265758991,0.00771624268963933,0.002531334524974227
1772462552359336000,6.0553359375,-0.01161537691950798,0.007474428042769432,0.0025102957151830196
1772462552369384700,6.065384765625,-0.008737298659980297,0.007391070947051048,0.0026698189321905375
1772462552379432700,6.0754326171875,-0.009073656052350998,0.004593153949826956,0.0018375811632722616
1772462552389480700,6.085480712890625,-0.009040366858243942,0.007245928514748812,0.0024860608391463757
1772462552399529700,6.09552978515625,-0.010698184370994568,0.007921572774648666,0.0023848607670515776
1772462552409577700,6.10557763671875,-0.008036354556679726,0.006659500766545534,-0.00019281286222394556
1772462552419626800,6.115626708984375,-0.006052033510059118,0.0064863949082791805,0.0008338357438333333
1772462552429674800,6.1256748046875,-0.00749120581895113,0.007686415687203407,0.0046967510133981705
1772462552439723800,6.135723876953125,-0.005923669319599867,0.006917560938745737,0.005648564547300339
1772462552449771800,6.145771728515625,-0.008086156100034714,0.00866326317191124,0.0036221654154360294
1772462552459819800,6.15581982421875,-0.008680573664605618,0.00806058943271637,0.002442118711769581
1772462552469868800,6.165868896484375,-0.008568188175559044,0.006367085501551628,0.0016381103778257966
1772462552479916800,6.175916748046875,-0.007698665838688612,0.006558034103363752,0.001407214323990047
1772462552489965600,6.185965576171875,-0.007169229444116354,0.011812984012067318,0.002298840554431081
1772462552500013800,6.196013916015625,-0.008353803306818008,0.00803076196461916,0.00043516053119674325
1772462552510062600,6.2060625,-0.008111456409096718,0.008519185706973076,0.0016618125373497605
1772462552520110800,6.21611083984375,-0.006533266510814428,0.00666429428383708,0.0030866037122905254
1772462552530158800,6.226158935546875,-0.008187090046703815,0.006583600305020809,-0.0013246563030406833
1772462552540207900,6.236207763671875,-0.00845873262733221,0.008800681680440903,0.0015105449128895998
1772462552550255900,6.246255859375,-0.007792941760271788,0.008013185113668442,-0.0003904194163624197
1772462552560305000,6.256304931640625,-0.007590008899569511,0.005330050364136696,0.0010319749126210809
1772462552570353000,6.266352783203125,-0.008258729241788387,0.007633951026946306,0.0028868666850030422
1772462552580402000,6.27640185546875,-0.008726912550628185,0.00857191625982523,0.0006141249323263764
1772462552590450000,6.286449951171875,-0.008610798977315426,0.007865113206207752,0.004650411661714315
1772462552600497700,6.29649755859375,-0.009739446453750134,0.007239803206175566,0.0033153691329061985
1772462552610547000,6.306546875,-0.00788428820669651,0.007637945935130119,0.00336117553524673
1772462552620594700,6.3165947265625,-0.006469617132097483,0.006382531952112913,0.004716458264738321
1772462552630644000,6.32664404296875,-0.007418501656502485,0.007952199317514896,0.004364388529211283
1772462552640691700,6.336691650390625,-0.006901848129928112,0.004992628004401922,0.0018761969404295087
1772462552650740700,6.34674072265625,-0.008820922113955021,0.009219597093760967,0.004881307948380709
1772462552660788700,6.356788818359375,-0.006592655088752508,0.00809148233383894,0.0010186590952798724
1772462552670836700,6.366836669921875,-0.007002515718340874,0.010089651681482792,0.0024202808272093534
1772462552680885800,6.3768857421875,-0.006982542108744383,0.008746886625885963,0.0016460998449474573
1772462552690933800,6.386933837890625,-0.0070368703454732895,0.005834186915308237,0.0011877698125317693
1772462552700982800,6.396982666015625,-0.006881608162075281,0.0062126219272613525,0.004596616141498089
1772462552711030800,6.40703076171875,-0.008382299914956093,0.008596950210630894,0.002557699801400304
1772462552721079800,6.417079833984375,-0.006078931502997875,0.009542904794216156,0.00041731735109351575
1772462552731127800,6.4271279296875,-0.007715177722275257,0.008086156100034714,0.00045060686534270644
1772462552741175800,6.43717578125,-0.008707204833626747,0.007625428959727287,0.003640541108325124
1772462552751224800,6.447224853515625,-0.00788508728146553,0.00666535971686244,0.0023987090680748224
1772462552761272800,6.45727294921875,-0.008729576133191586,0.0073071811348199844,0.0010567422723397613
1772462552771321900,6.46732177734375,-0.0083687175065279,0.008645419962704182,0.0027742148377001286
1772462552781369600,6.47736962890625,-0.00893996562808752,0.0070397998206317425,0.00421232171356678
1772462552791419000,6.4874189453125,-0.009358081966638565,0.007899202406406403,0.0028298748657107353
1772462552801466600,6.497466552734375,-0.008948753587901592,0.005918342620134354,0.0038043255917727947
1772462552811515000,6.507514892578125,-0.011012437753379345,0.00830613262951374,0.0023166837636381388
1772462552821563600,6.517563720703125,-0.006989466026425362,0.006187854800373316,0.00101120222825557
1772462552831612000,6.52761181640625,-0.007170028518885374,0.008954346179962158,0.00048655952559784055
1772462552841661000,6.537660888671875,-0.0070680296048521996,0.005060805007815361,0.004582501482218504
1772462552851709000,6.547708984375,-0.007126885466277599,0.008964466862380505,0.0026082999538630247
1772462552861758000,6.557758056640625,-0.009890713728964329,0.007733819540590048,0.002478870330378413
1772462552871806000,6.567805908203125,-0.0059510995633900166,0.008165784180164337,0.0005989448982290924
1772462552881854000,6.57785400390625,-0.008896023035049438,0.00692155584692955,0.0023134879302233458
1772462552891903000,6.587903076171875,-0.00833569373935461,0.008929844945669174,0.0020610203500837088
1772462552901951000,6.597950927734375,-0.00891067087650299,0.007322094868868589,0.0008005462004803121
1772462552912000000,6.608,-0.008291485719382763,0.00504136411473155,0.0007145261042751372
1772462552922047700,6.6180478515625,-0.005932990461587906,0.007060306146740913,0.002930009737610817
1772462552932097000,6.628096923828125,-0.010729343630373478,0.006718888878822327,0.004307929426431656
1772462552942144800,6.638144775390625,-0.009354086592793465,0.006382531952112913,0.004004861693829298
1772462552952193000,6.648193115234375,-0.01017007976770401,0.006161223165690899,0.0017262609908357263
1772462552962241800,6.65824169921875,-0.009036105126142502,0.004929511342197657,0.0002079928817693144
1772462552972290000,6.6682900390625,-0.0070826769806444645,0.006108226254582405,0.00358807691372931
1772462552982338800,6.6783388671875,-0.0070824106223881245,0.005882656667381525,0.0015483618481084704
1772462552992387000,6.688386962890625,-0.008803345263004303,0.008681106381118298,0.001014398061670363
1772462553002435800,6.698435791015625,-0.009682455100119114,0.004960936494171619,0.0027286747936159372
1772462553012484000,6.708484130859375,-0.008796687237918377,0.008699748665094376,0.0017395768081769347
1772462553022532000,6.718531982421875,-0.00815060455352068,0.0062698801048099995,0.0021675468888133764
1772462553032580900,6.728580810546875,-0.007217166479676962,0.008536229841411114,0.0025691515766084194
1772462553042629000,6.738629150390625,-0.007268831599503756,0.00703900121152401,0.0013110742438584566
1772462553052678000,6.748677978515625,-0.007250189781188965,0.0062941149808466434,0.00358754419721663
1772462553062726100,6.75872607421875,-0.006952714640647173,0.008670720271766186,0.0031156321056187153
1772462553072775000,6.76877490234375,-0.009899768978357315,0.005080512259155512,0.003225088119506836
1772462553082823000,6.778822998046875,-0.008610266260802746,0.00681263254955411,0.0029470541048794985
1772462553092871000,6.788870849609375,-0.008379636332392693,0.009296828880906105,0.00196408131159842
1772462553102920000,6.798919921875,-0.008580705150961876,0.007301056291908026,0.0022799321450293064
1772462553112968000,6.808968017578125,-0.00774686923250556,0.008648082613945007,0.002526541007682681
1772462553123017000,6.819016845703125,-0.009015599265694618,0.008404670283198357,0.001208009896799922
1772462553133065000,6.82906494140625,-0.009000685065984726,0.008403338491916656,0.0006322344415821135
1772462553143113700,6.83911376953125,-0.011179151013493538,0.006305832881480455,-0.0014173343079164624
1772462553153162000,6.849161865234375,-0.006074936594814062,0.007167099043726921,-0.001412806916050613
1772462553163210000,6.8592099609375,-0.008480836637318134,0.006306897848844528,0.005291700828820467
1772462553173259000,6.869259033203125,-0.007016364019364119,0.007129015866667032,0.0024671524297446012
1772462553183307000,6.87930712890625,-0.0076177059672772884,0.007429420482367277,0.003482881933450699
1772462553193356000,6.88935595703125,-0.009345298632979393,0.006586796138435602,0.002302036387845874
1772462553203404000,6.899404052734375,-0.008017180487513542,0.006639526691287756,0.002028263406828046
1772462553213453000,6.909453125,-0.008175638504326344,0.008231298066675663,0.0023992417845875025
1772462553223501000,6.9195009765625,-0.006195311434566975,0.007387076038867235,0.002049835165962577
1772462553233548800,6.929548828125,-0.007831557653844357,0.010685933753848076,0.0044261738657951355
1772462553243598000,6.93959814453125,-0.007217965554445982,0.00815087091177702,0.0015073491958901286
1772462553253645800,6.949645751953125,-0.006708769127726555,0.006786000914871693,0.0034266894217580557
1772462553263695000,6.959695068359375,-0.009137838147580624,0.009851299226284027,0.00481419637799263
1772462553273742800,6.969742919921875,-0.00754899624735117,0.007927165366709232,0.0030775489285588264
1772462553283792100,6.979792236328125,-0.009268599562346935,0.007325024344027042,0.0010309095960110426
1772462553293840000,6.98983984375,-0.007836084812879562,0.007141532842069864,0.0035185683518648148
1772462553303888000,6.999887939453125,-0.00848429836332798,0.005618737079203129,0.0037326866295188665
1772462553313937000,7.00993701171875,-0.006491721607744694,0.008987369947135448,-0.000565122754778713
1772462553323985000,7.01998486328125,-0.008569519966840744,0.00765898497775197,0.001812014845199883
1772462553334034000,7.030033935546875,-0.009250489994883537,0.007984955795109272,0.002441852353513241
1772462553344082000,7.04008203125,-0.007437676191329956,0.004893824923783541,0.003518834710121155
1772462553354131000,7.050130859375,-0.007259777281433344,0.010013485327363014,0.003338272450491786
1772462553364179000,7.060178955078125,-0.0049673281610012054,0.0065561700612306595,-0.00005699164830730297
1772462553374227000,7.07022705078125,-0.009001217782497406,0.008802812546491623,0.0022690133191645145
1772462553384276000,7.08027587890625,-0.0070680296048521996,0.007772169075906277,0.0029204224701970816
1772462553394324000,7.090323974609375,-0.008475510403513908,0.005060805007815361,0.0018455706303939223
1772462553404373000,7.100373046875,-0.007212372962385416,0.007703459821641445,0.00010759170982055366
1772462553414421000,7.1104208984375,-0.0073138391599059105,0.007404386531561613,0.0008037420338951051
1772462553424470000,7.120469970703125,-0.011158645153045654,0.0067753479816019535,0.0031728900503367186
1772462553434517800,7.130517822265625,-0.007059773895889521,0.00580755528062582,0.004520982038229704
1772462553444566000,7.14056591796875,-0.00875034835189581,0.008321046829223633,0.003995274193584919
1772462553454614800,7.15061474609375,-0.00842437706887722,0.006971090566366911,0.001511343871243298
1772462553464663000,7.1606630859375,-0.008761267177760601,0.009190035983920097,0.004907673224806786
1772462553474711800,7.1707119140625,-0.008411594666540623,0.0062789348885416985,0.0019382486352697015
1772462553484760000,7.180760009765625,-0.007554056588560343,0.0059987702406942844,0.0031276163645088673
1772462553494808800,7.190808837890625,-0.008986837230622768,0.006172408349812031,0.0010120011866092682
1772462553504857000,7.200857177734375,-0.007187871728092432,0.005859220866113901,0.004857339430600405
1772462553514905000,7.210905029296875,-0.008738630451261997,0.009040366858243942,0.0022098910994827747
1772462553524954000,7.2209541015625,-0.00932239554822445,0.0067817396484315395,0.0009526127250865102
1772462553535002000,7.231002197265625,-0.006773217581212521,0.008586564101278782,0.0018224010709673166
1772462553545051000,7.24105078125,-0.007069627288728952,0.005921804811805487,0.0029670277144759893
1772462553555099100,7.25109912109375,-0.007089600898325443,0.008499745279550552,0.0009811085183173418
1772462553565148000,7.26114794921875,-0.008228635415434837,0.007760184817016125,0.0028996497858315706
1772462553575196000,7.27119580078125,-0.009214270859956741,0.006714628078043461,0.002035187790170312
1772462553585244000,7.281243896484375,-0.0073567163199186325,0.005055745132267475,0.002573412610217929
1772462553595293000,7.29129296875,-0.008972189389169216,0.005831523798406124,0.0024772724136710167
1772462553605341000,7.3013408203125,-0.009021458216011524,0.007298126816749573,0.0003818972909357399
1772462553615390000,7.311389892578125,-0.007475759368389845,0.007367901504039764,0.004578240215778351
1772462553625438000,7.32143798828125,-0.007664044853299856,0.007623298559337854,0.004041080828756094
1772462553635487000,7.331487060546875,-0.008643555454909801,0.009000685065984726,0.0018410432385280728
1772462553645535000,7.341534912109375,-0.008157262578606606,0.009105081669986248,0.0016676714876666665
1772462553655583000,7.3515830078125,-0.007728493306785822,0.007685350254178047,0.0048797097988426685
1772462553665632000,7.361632080078125,-0.008624646812677383,0.0062885223887860775,0.0010809770319610834
1772462553675680000,7.371679931640625,-0.008191617205739021,0.00854475237429142,0.0016791230300441384
1772462553685729000,7.38172900390625,-0.00740119069814682,0.007443535141646862,0.0031902005430310965
1772462553695777000,7.391777099609375,-0.009005213156342506,0.00869149249047041,0.0012303803814575076
1772462553705826000,7.401825927734375,-0.008058459497988224,0.00836791843175888,0.0007536745979450643
1772462553715874000,7.4118740234375,-0.008580172434449196,0.007803861051797867,0.0007579356315545738
1772462553725921800,7.421921875,-0.007955394685268402,0.0067694890312850475,0.0017965685110539198
1772462553735971000,7.43197119140625,-0.007998005487024784,0.005520200356841087,0.0023105584550648928
1772462553746018800,7.442018798828125,-0.006325806491076946,0.005943909287452698,0.003856523660942912
1772462553756068000,7.452068115234375,-0.010919759050011635,0.007118895649909973,0.004068244714289904
1772462553766115800,7.46211572265625,-0.00780679052695632,0.006326871924102306,0.003296460723504424
1772462553776165000,7.4721650390625,-0.008837699890136719,0.009528790600597858,0.003326021833345294
1772462553786212900,7.482212890625,-0.0063124909065663815,0.007808920927345753,0.0016365124611184
1772462553796261000,7.49226123046875,-0.007935420610010624,0.009543703868985176,0.0024471788201481104
1772462553806310000,7.502309814453125,-0.008535963483154774,0.007290936075150967,0.0018040252616629004
1772462553816358000,7.51235791015625,-0.006458698306232691,0.0075852153822779655,0.0028943235520273447
1772462553826407000,7.522406982421875,-0.008840629830956459,0.00848802737891674,0.001064998097717762
1772462553836458200,7.532458251953125,-0.009151686914265156,0.006256564520299435,0.0025747441686689854
1772462553846507000,7.542507080078125,-0.009215602651238441,0.0062642875127494335,0.001788312685675919
1772462553856555300,7.55255517578125,-0.007762315683066845,0.007188670802861452,0.0029878003988415003
1772462553866604000,7.56260400390625,-0.007448328658938408,0.005337507463991642,0.0018098842119798064
1772462553876652300,7.57265234375,-0.00851545762270689,0.006604905705899,0.004547880031168461
1772462553886700000,7.582699951171875,-0.007816111668944359,0.008379369974136353,0.0009358347742818296
1772462553896749300,7.592749267578125,-0.008710134774446487,0.006758303847163916,0.0013459615875035524
1772462553906797000,7.602797119140625,-0.008490423671901226,0.005465073045343161,0.0032320122700184584
1772462553916846300,7.612846435546875,-0.01076902449131012,0.007242200430482626,0.005682653281837702
1772462553926894000,7.62289404296875,-0.007511978503316641,0.008470715954899788,0.0029081718530505896
1772462553936943000,7.632943115234375,-0.00905661191791296,0.004882107023149729,0.002543585142120719
1772462553946991000,7.6429912109375,-0.011186341755092144,0.007391603663563728,0.003483148291707039
1772462553957039000,7.6530390625,-0.008188687264919281,0.008770322427153587,0.0020184097811579704
1772462553967088000,7.663088134765625,-0.007617439609020948,0.00890694186091423,0.0027691549621522427
1772462553977136000,7.67313623046875,-0.007183344569057226,0.007396929897367954,0.000007989483492565341
1772462553987185200,7.68318505859375,-0.0062483083456754684,0.008264853619039059,0.0011078750248998404
1772462553997233200,7.693233154296875,-0.008085090667009354,0.005662945564836264,0.0009038768475875258
1772462554007282200,7.7032822265625,-0.007903463207185268,0.007855792529881,0.0035358788445591927
1772462554017330200,7.713330078125,-0.00947978813201189,0.00968298688530922,0.0012532835826277733
1772462554027378200,7.723378173828125,-0.007059507537633181,0.007611314300447702,0.001889246515929699
1772462554037427200,7.73342724609375,-0.010148507542908192,0.00717588746920228,0.003686347510665655
1772462554047475200,7.74347509765625,-0.007758054416626692,0.008184160105884075,-0.00005459480235003866
1772462554057524200,7.753524169921875,-0.007124488707631826,0.007742342073470354,0.0024264061357825994
1772462554067572200,7.763572265625,-0.009548497386276722,0.0068123661912977695,0.004004861693829298
1772462554077621200,7.773621337890625,-0.007142597809433937,0.010076869279146194,0.0016932378057390451
1772462554087669200,7.783669189453125,-0.009224390611052513,0.0073165022768080235,0.0035175031516700983
1772462554097717200,7.79371728515625,-0.00888004433363676,0.008256332017481327,0.0025007082149386406
1772462554107766300,7.803766357421875,-0.009720271453261375,0.007924768142402172,0.0010021475609391928
1772462554117814000,7.81381396484375,-0.008597216568887234,0.0076118470169603825,0.0007866977830417454
1772462554127863300,7.82386328125,-0.007965514436364174,0.00902491994202137,0.0032839439809322357
1772462554137911000,7.8339111328125,-0.008215319365262985,0.007709851488471031,0.002283926820382476
1772462554147960000,7.8439599609375,-0.009778328239917755,0.006990797817707062,0.0032229574862867594
1772462554158008000,7.854008056640625,-0.006403570994734764,0.006843791343271732,0.0019920445047318935
1772462554168056300,7.864056396484375,-0.00660650385543704,0.0068059745244681835,0.0032567796297371387
1772462554178105000,7.87410498046875,-0.008596417494118214,0.007694671396166086,0.0027457191608846188
1772462554188153300,7.8841533203125,-0.00818016566336155,0.009560748003423214,-0.00036751621519215405
1772462554198202000,7.8942021484375,-0.007502124644815922,0.005687180440872908,0.0036450685001909733
1772462554208250400,7.90425048828125,-0.006311691831797361,0.009222793392837048,0.004346012603491545
1772462554218299100,7.914299072265625,-0.007562045939266682,0.0073687005788087845,0.005604356061667204
1772462554228347100,7.92434716796875,-0.00950801745057106,0.008644620887935162,0.0019856528379023075
1772462554238395100,7.93439501953125,-0.008553008548915386,0.00875061471015215,0.003816842334344983
1772462554248444200,7.944444091796875,-0.008112520910799503,0.008745554834604263,0.001704689348116517
1772462554258492200,7.9544921875,-0.007705590222030878,0.008045676164329052,0.002566754585132003
1772462554268541200,7.964541259765625,-0.00854315422475338,0.007211573887616396,0.003820837242528796
1772462554278589200,7.974589111328125,-0.008702944032847881,0.006384395994246006,0.0033515882678329945
1772462554288638200,7.98463818359375,-0.008104532025754452,0.008475244045257568,0.0018335863715037704
1772462554298686200,7.994686279296875,-0.00806165486574173,0.007738080807030201,0.0023220102302730083
1772462554308734200,8.004734130859376,-0.007150054909288883,0.008353536948561668,0.0004391552647575736
1772462554318783200,8.014783203125,-0.009407616220414639,0.00818096473813057,-0.000003462109361862531
1772462554328831200,8.024831298828126,-0.01059219054877758,0.00609384523704648,0.0013217268278822303
1772462554338880000,8.0348798828125,-0.009869408793747425,0.009337308816611767,0.003171558491885662
1772462554348928300,8.04492822265625,-0.010817494243383408,0.008330900222063065,0.0034149715211242437
1772462554358976000,8.05497607421875,-0.007394533138722181,0.00920415110886097,0.004179564770311117
1772462554369025300,8.065025390625,-0.00824008695781231,0.008073905482888222,0.004714594222605228
1772462554379073000,8.075072998046876,-0.009352223016321659,0.006445648614317179,0.0017068199813365936
1772462554389122300,8.085122314453125,-0.008388158865272999,0.007246194873005152,0.0015643407823517919
1772462554399170000,8.095170166015626,-0.0070366039872169495,0.007412909064441919,0.001918807509355247
1772462554409219300,8.10521923828125,-0.007589476183056831,0.00577852688729763,0.0016969662392511964
1772462554419267000,8.11526708984375,-0.009516806341707706,0.0075814868323504925,0.0036695697344839573
1772462554429316400,8.12531640625,-0.006426740437746048,0.008315187878906727,0.0030312100425362587
1772462554439364000,8.135364013671875,-0.008100803010165691,0.009044361300766468,0.004566255956888199
1772462554449412000,8.145412109375,-0.009237973019480705,0.005879460833966732,0.0018125474452972412
1772462554459461000,8.155461181640625,-0.008951150812208652,0.008145811036229134,0.0019859191961586475
1772462554469509000,8.165509033203126,-0.010056628845632076,0.006156429648399353,0.0023904533591121435
1772462554479558100,8.17555810546875,-0.007180148735642433,0.008235825225710869,0.0003376888344064355
1772462554489606100,8.185606201171876,-0.005149754695594311,0.008459797129034996,0.002954244613647461
1772462554499655200,8.1956552734375,-0.008863000199198723,0.007601460441946983,0.003706587478518486
1772462554509703200,8.205703125,-0.008321313187479973,0.009801764041185379,0.0026527747977524996
1772462554519751200,8.215751220703124,-0.00820866134017706,0.006990265101194382,0.00007962851668708026
1772462554529800200,8.22580029296875,-0.007999603636562824,0.006987335626035929,0.0051966262981295586
1772462554539848200,8.23584814453125,-0.00866326317191124,0.007345264777541161,0.002169144805520773
1772462554549897200,8.245897216796875,-0.009004946798086166,0.006334062200039625,0.0008029430755414069
1772462554559945200,8.2559453125,-0.006339654792100191,0.007312774192541838,0.0047177900560200214
1772462554569994200,8.265994140625,-0.007531952112913132,0.005350823048502207,0.0018008295446634293
1772462554580042200,8.276042236328125,-0.007137271575629711,0.00708693778142333,0.004476773552596569
1772462554590090200,8.28609033203125,-0.007475759368389845,0.00791571382433176,0.0012010856298729777
1772462554600139300,8.29613916015625,-0.009347694925963879,0.009193232282996178,-0.0011763182701542974
1772462554610187000,8.30618701171875,-0.004923386033624411,0.0067716194316744804,0.0020455741323530674
1772462554620236000,8.316236083984375,-0.007321029901504517,0.0073196981102228165,0.0003312972257845104
1772462554630284000,8.326283935546876,-0.009879528544843197,0.005370264407247305,-0.0002854908525478095
1772462554640333000,8.3363330078125,-0.007183610461652279,0.007771104108542204,0.005401689559221268
1772462554650381000,8.346381103515625,-0.007287473883479834,0.005605954211205244,0.003771568648517132
1772462554660430000,8.35643017578125,-0.0075607141479849815,0.007745005190372467,0.003460777923464775
1772462554670478000,8.36647802734375,-0.009559416212141514,0.0073716300539672375,0.0025904567446559668
1772462554680526300,8.3765263671875,-0.00803076196461916,0.004790494218468666,0.0020447750575840473
1772462554690575000,8.3865751953125,-0.008654207922518253,0.006930610164999962,0.0029084382113069296
1772462554700623400,8.396623291015626,-0.006301571615040302,0.007994011044502258,0.0020210728980600834
1772462554710672100,8.406672119140625,-0.0089966906234622,0.0060115535743534565,0.002942526713013649
1772462554720720100,8.41672021484375,-0.005100752227008343,0.008185225538909435,0.000601075473241508
1772462554730769200,8.42676904296875,-0.008288555778563023,0.009659817442297935,0.003629355924203992
1772462554740817200,8.436817138671875,-0.008249407634139061,0.006658435333520174,0.0005736448802053928
1772462554750865200,8.446865234375,-0.00905634555965662,0.007044593803584576,0.004340952727943659
1772462554760914200,8.4569140625,-0.00631941482424736,0.007752728182822466,0.0016753945965319872
1772462554770962200,8.466962158203126,-0.008749016560614109,0.009696835651993752,0.001341434195637703
1772462554781011200,8.47701123046875,-0.008925850503146648,0.009471000172197819,0.003995274193584919
1772462554791059200,8.48705908203125,-0.00865980051457882,0.00740332156419754,0.0019086875254288316
1772462554801108200,8.497108154296875,-0.00740145705640316,0.008539692498743534,0.003531351685523987
1772462554811156200,8.50715625,-0.00902758352458477,0.007694405037909746,0.004776113200932741
1772462554821204200,8.517204345703124,-0.009037703275680542,0.008524245582520962,0.004196343012154102
1772462554831253200,8.527253173828125,-0.008303203620016575,0.008439823985099792,0.004156128969043493
1772462554841301000,8.537301025390626,-0.00571833923459053,0.009104548953473568,0.0008495483780279756
1772462554851349800,8.547349853515625,-0.007527424953877926,0.0073441993445158005,0.0016753945965319872
1772462554861398000,8.55739794921875,-0.008579373359680176,0.0062973108142614365,0.0025268071331083775
1772462554871446800,8.56744677734375,-0.009346097707748413,0.008609467186033726,0.0030682277865707874
1772462554881495000,8.5774951171875,-0.009188438765704632,0.00865980051457882,0.0032682311721146107
1772462554891542800,8.587542724609374,-0.008895490318536758,0.009472863748669624,0.002092179376631975
1772462554901592000,8.597592041015625,-0.00977619830518961,0.006418484263122082,0.001725728390738368
1772462554911639800,8.607639892578124,-0.007214769721031189,0.010042247362434864,0.00205276464112103
1772462554921689000,8.617689208984375,-0.007792409509420395,0.006992661859840155,0.0010668623726814985
1772462554931736800,8.62773681640625,-0.007712248247116804,0.008356733247637749,0.004991296678781509
1772462554941785900,8.637785888671875,-0.009535714983940125,0.006366020068526268,0.0010120011866092682
1772462554951833900,8.647833740234375,-0.008463259786367416,0.007783088367432356,0.006268016062676907
1772462554961883000,8.6578828125,-0.009091499261558056,0.00794634036719799,0.002177134156227112
1772462554971931000,8.667930908203125,-0.0065050371922552586,0.0062488410621881485,0.005791576579213142
1772462554981979000,8.677978759765624,-0.0078102522529661655,0.006816893350332975,0.004066114313900471
1772462554992028000,8.68802783203125,-0.008097074925899506,0.006047506351023912,0.0014857775531709194
1772462555002076000,8.698075927734376,-0.010150372050702572,0.008037419989705086,0.003400324145331979
1772462555012125000,8.708125,-0.006247776094824076,0.006068544927984476,0.0004146541759837419
1772462555022173000,8.7181728515625,-0.007875500246882439,0.006244313903152943,0.0005779059720225632
1772462555032222000,8.728221923828125,-0.005943110212683678,0.006250705569982529,0.0013598100049421191
1772462555042270000,8.73827001953125,-0.009523464366793633,0.006447246763855219,0.0017888452857732773
1772462555052318700,8.748318603515624,-0.004989432170987129,0.009546101093292236,0.002597380895167589
1772462555062367000,8.758366943359375,-0.007759652566164732,0.008869391866028309,0.003254116512835026
1772462555072415000,8.7684150390625,-0.006470682565122843,0.00944862887263298,0.004091148264706135
1772462555082464000,8.778464111328125,-0.008176437579095364,0.007255516014993191,0.0024080302100628614
1772462555092512000,8.788511962890626,-0.009702960960566998,0.006976683158427477,0.0030306773260235786
1772462555102561000,8.79856103515625,-0.00869149249047041,0.00708693778142333,0.0018559569725766778
1772462555112609000,8.808609130859375,-0.007749265991151333,0.01068087387830019,0.002746518002822995
1772462555122658000,8.818657958984375,-0.008017180487513542,0.0067817396484315395,0.0004868258547503501
1772462555132706000,8.8287060546875,-0.008494684472680092,0.007355118170380592,0.0023845944087952375
1772462555142755000,8.838755126953124,-0.0093892402946949,0.007498928811401129,0.0022181468084454536
1772462555152803000,8.848802978515625,-0.008519185706973076,0.007968710735440254,0.0011283813510090113
1772462555162850800,8.858850830078126,-0.011093663983047009,0.006247509736567736,-0.0003587277897167951
1772462555172899800,8.86889990234375,-0.008305068127810955,0.007873369380831718,0.004111920483410358
1772462555182947800,8.87894775390625,-0.008642756380140781,0.007798800710588694,0.0035204326268285513
1772462555192996900,8.888996826171875,-0.00929203536361456,0.0075577846728265285,0.001936384360305965
1772462555203044900,8.899044921875,-0.0070549799129366875,0.00686269998550415,0.0019052254501730204
1772462555213094000,8.909093994140624,-0.007635815534740686,0.006424077320843935,0.0015848471084609628
1772462555223142000,8.919141845703125,-0.00700810831040144,0.009395898319780827,0.0037015276029706
1772462555233190000,8.92918994140625,-0.0070919981226325035,0.008351939730346203,0.002945189829915762
1772462555243239000,8.939239013671875,-0.007681621704250574,0.007320763543248177,0.0030988543294370174
1772462555253287000,8.949286865234376,-0.008562861941754818,0.008250473067164421,0.00031079089967533946
1772462555263336000,8.9593359375,-0.008231830783188343,0.005827528890222311,0.0037734329234808683
1772462555273384000,8.969384033203125,-0.008613195270299911,0.008925051428377628,0.004689027555286884
1772462555283433000,8.979432861328124,-0.006536195985972881,0.006942594423890114,0.0017475662752985954
1772462555293481000,8.98948095703125,-0.008317585103213787,0.006746852304786444,0.003156911116093397
1772462555303529000,8.999529052734376,-0.0070549799129366875,0.007168697193264961,0.0026586337480694056
1772462555313578000,9.009577880859375,-0.006631004624068737,0.005248824134469032,0.0031931300181895494
1772462555323625700,9.019625732421876,-0.00854555144906044,0.009413475170731544,-0.0008796420879662037
1772462555333675000,9.029675048828125,-0.008523181080818176,0.010184193961322308,-0.0001699096756055951
1772462555343722800,9.03972265625,-0.010551444254815578,0.007577758282423019,0.004795287735760212
1772462555353772000,9.04977197265625,-0.006988667417317629,0.006160157732665539,0.0006285060080699623
1772462555363819800,9.05981982421875,-0.00899962056428194,0.007193997036665678,0.0021915151737630367
1772462555373868000,9.069867919921874,-0.009721070528030396,0.006815827917307615,0.0023337281309068203
1772462555383916800,9.079916748046875,-0.009313340298831463,0.007906658574938774,-0.00036139096482656896
1772462555393965000,9.089965087890626,-0.008505071513354778,0.007922904565930367,0.004108725115656853
1772462555404013800,9.100013916015625,-0.0067665595561265945,0.0060112872160971165,0.004192614462226629
1772462555414062000,9.11006201171875,-0.00851599033921957,0.009441704489290714,-0.00017550231132190675
1772462555424110800,9.12011083984375,-0.010038252919912338,0.0065111625008285046,0.0022125542163848877
1772462555434158800,9.130158935546875,-0.007567638531327248,0.008172442205250263,0.0035835495218634605
1772462555444207900,9.140207763671874,-0.007833155803382397,0.007397196255624294,0.0007930893916636705
1772462555454255900,9.150255859375,-0.009727994911372662,0.008202003315091133,0.001546763931401074
1772462555464303900,9.160303955078126,-0.008844624273478985,0.007355917245149612,0.0022884542122483253
1772462555474353000,9.170352783203125,-0.006958307232707739,0.007003048434853554,0.001449025934562087
1772462555484401000,9.18040087890625,-0.008949019946157932,0.009004147723317146,0.0025100293569266796
1772462555494450000,9.190449951171875,-0.008194014430046082,0.008821721188724041,0.0032866070978343487
1772462555504498000,9.200497802734375,-0.009089634753763676,0.009037170559167862,0.0004647216119337827
1772462555514547000,9.210546875,-0.008697085082530975,0.003976099658757448,0.0022152173332870007
1772462555524595000,9.220594970703125,-0.008408132009208202,0.009917878545820713,0.0019542276859283447
1772462555534643000,9.230642822265626,-0.009178051725029945,0.007454187609255314,0.0016873788554221392
1772462555544692000,9.24069189453125,-0.007844340987503529,0.006362824235111475,0.0032626385800540447
1772462555554740000,9.250739990234376,-0.008934905752539635,0.006053897552192211,0.0031201594974845648
1772462555564788700,9.260788818359375,-0.010762632824480534,0.008019843138754368,0.002555569401010871
1772462555574837000,9.2708369140625,-0.007917843759059906,0.006926615722477436,0.0011171960504725575
1772462555584885800,9.2808857421875,-0.006726345978677273,0.007934622466564178,0.001535046030767262
1772462555594934000,9.29093408203125,-0.008327971212565899,0.007812383119016886,0.0006005428149364889
1772462555604982000,9.30098193359375,-0.009857158176600933,0.007533283904194832,0.0006857639527879655
1772462555615031000,9.311031005859375,-0.008017446845769882,0.007370298262685537,0.002832005498930812
1772462555625079000,9.3210791015625,-0.00818123109638691,0.00589517317712307,0.003495398908853531
1772462555635128000,9.331128173828125,-0.007196127437055111,0.00962493009865284,0.0013065468519926071
1772462555645175800,9.34117578125,-0.010999920777976513,0.006709568202495575,0.002983539365231991
1772462555655225000,9.35122509765625,-0.009078449569642544,0.00848563015460968,0.005322327371686697
1772462555665272800,9.36127294921875,-0.00926300697028637,0.012145079672336578,0.0036663739010691643
1772462555675321900,9.37132177734375,-0.008502141572535038,0.005425125360488892,0.0007611314067617059
1772462555685369900,9.381369873046875,-0.008413990959525108,0.00968644954264164,0.004825115203857422
1772462555695417900,9.39141796875,-0.005415804218500853,0.006293049547821283,0.004255731590092182
1772462555705467000,9.401466796875,-0.007409446872770786,0.006358030717819929,0.0032770195975899696
1772462555715515000,9.411514892578126,-0.0075700352899730206,0.006363356951624155,0.004450408276170492
1772462555725564000,9.42156396484375,-0.00948032084852457,0.005803560372442007,0.0031960594933480024
1772462555735612000,9.43161181640625,-0.007510913070291281,0.005918875336647034,-0.00045034053619019687
1772462555745661000,9.441660888671874,-0.007845939137041569,0.007830758579075336,0.001814677962101996
1772462555755709000,9.451708984375,-0.009832656942307949,0.006570551078766584,0.001776328426785767
1772462555765758000,9.461758056640624,-0.007940747775137424,0.007137005217373371,0.0018391790799796581
