time,seconds_elapsed,z,y,x
1772462246232278500,0.069278564453125,-1.00164794921875,-0.0126953125,0.0274810791015625
1772462246242326500,0.079326416015625,-1.0106048583984375,-0.0126190185546875,0.02862548828125
1772462246252374500,0.08937451171875,-1.003692626953125,-0.0131072998046875,0.0301361083984375
1772462246262423600,0.099423583984375,-0.9940032958984375,-0.011932373046875,0.0302581787109375
1772462246272471600,0.109471435546875,-0.9970550537109375,-0.011566162109375,0.028656005859375
1772462246282519600,0.11951953125,-1.0037384033203125,-0.0114593505859375,0.0267333984375
1772462246292567600,0.129567626953125,-1.007354736328125,-0.0099639892578125,0.025665283203125
1772462246302615600,0.139615478515625,-1.003387451171875,-0.00933837890625,0.026580810546875
1772462246312663600,0.14966357421875,-0.9998626708984375,-0.0090484619140625,0.02679443359375
1772462246322711600,0.159711669921875,-1.002288818359375,-0.0088958740234375,0.0286865234375
1772462246332759600,0.169759521484375,-1.0050811767578125,-0.0110626220703125,0.0281524658203125
1772462246342807600,0.1798076171875,-1.0017547607421875,-0.012725830078125,0.027130126953125
1772462246352856600,0.189856689453125,-0.9987335205078125,-0.0132598876953125,0.029998779296875
1772462246362904600,0.199904541015625,-1.0003509521484375,-0.0128631591796875,0.030792236328125
1772462246372952600,0.20995263671875,-1.001007080078125,-0.012725830078125,0.028564453125
1772462246383000600,0.22000048828125,-1.0012359619140625,-0.012298583984375,0.0271148681640625
1772462246393048600,0.230048583984375,-1.00201416015625,-0.009552001953125,0.0280914306640625
1772462246403096300,0.240096435546875,-1.0025787353515625,-0.0088958740234375,0.0284881591796875
1772462246413144600,0.25014453125,-1.00177001953125,-0.0097808837890625,0.0265960693359375
1772462246423192600,0.260192626953125,-1.0027008056640625,-0.011383056640625,0.0269622802734375
1772462246433241600,0.27024169921875,-1.0026092529296875,-0.0106964111328125,0.0277252197265625
1772462246443289600,0.28028955078125,-1.001953125,-0.01080322265625,0.0292510986328125
1772462246453337300,0.29033740234375,-1.0021820068359375,-0.011474609375,0.0286865234375
1772462246463385600,0.300385498046875,-1.002593994140625,-0.0130157470703125,0.028350830078125
1772462246473433600,0.31043359375,-1.0027008056640625,-0.01220703125,0.0286407470703125
1772462246483481600,0.320481689453125,-1.002197265625,-0.0114288330078125,0.028289794921875
1772462246493529600,0.330529541015625,-1.0034027099609375,-0.010986328125,0.028350830078125
1772462246503577300,0.340577392578125,-1.0020599365234375,-0.0101470947265625,0.027679443359375
1772462246513626600,0.350626708984375,-1.0029144287109375,-0.010009765625,0.02850341796875
1772462246523674400,0.36067431640625,-1.000823974609375,-0.009796142578125,0.0286712646484375
1772462246533722600,0.37072265625,-1.000823974609375,-0.0101165771484375,0.0270538330078125
1772462246543770600,0.3807705078125,-1.002105712890625,-0.0110015869140625,0.0279541015625
1772462246553818400,0.390818359375,-1.0028533935546875,-0.0114898681640625,0.0283966064453125
1772462246563866600,0.40086669921875,-1.0020751953125,-0.01214599609375,0.0283660888671875
1772462246573914600,0.41091455078125,-1.0004730224609375,-0.0121612548828125,0.0283966064453125
1772462246583962400,0.42096240234375,-1.001922607421875,-0.011138916015625,0.0290069580078125
1772462246594011600,0.43101171875,-1.0035552978515625,-0.01043701171875,0.0280303955078125
1772462246604058600,0.44105859375,-1.0024566650390625,-0.01055908203125,0.026947021484375
1772462246614106600,0.451106689453125,-1.000640869140625,-0.00982666015625,0.027618408203125
1772462246624155000,0.46115478515625,-1.0020904541015625,-0.0097198486328125,0.0277557373046875
1772462246634202600,0.47120263671875,-1.0027313232421875,-0.0098419189453125,0.028564453125
1772462246644250600,0.481250732421875,-1.0023956298828125,-0.011688232421875,0.0286102294921875
1772462246654299000,0.491298828125,-1.00177001953125,-0.012298583984375,0.027923583984375
1772462246664346600,0.5013466796875,-1.002410888671875,-0.0120849609375,0.028167724609375
1772462246674396000,0.51139599609375,-1.002166748046875,-0.0114288330078125,0.0292205810546875
1772462246684443600,0.521443603515625,-1.00286865234375,-0.0109100341796875,0.02734375
1772462246694491600,0.53149169921875,-1.0028839111328125,-0.0108489990234375,0.0278472900390625
1772462246704539600,0.54153955078125,-1.001251220703125,-0.0102691650390625,0.0284576416015625
1772462246714587600,0.551587646484375,-1.002471923828125,-0.010650634765625,0.0281219482421875
1772462246724635600,0.5616357421875,-1.0043182373046875,-0.0101165771484375,0.027618408203125
1772462246734683600,0.57168359375,-1.0028228759765625,-0.0106658935546875,0.0274505615234375
1772462246744731600,0.581731689453125,-1.0021514892578125,-0.010955810546875,0.0278167724609375
1772462246754780700,0.59178076171875,-1.002410888671875,-0.0118408203125,0.028839111328125
1772462246764828700,0.60182861328125,-1.0027313232421875,-0.011138916015625,0.0281829833984375
1772462246774877000,0.611876953125,-1.002655029296875,-0.0109710693359375,0.0282440185546875
1772462246784924700,0.621924560546875,-1.0023193359375,-0.011016845703125,0.028778076171875
1772462246794972700,0.63197265625,-1.001617431640625,-0.0101470947265625,0.0280303955078125
1772462246805021000,0.64202099609375,-1.0026092529296875,-0.0106964111328125,0.0274810791015625
1772462246815068700,0.652068603515625,-1.0032501220703125,-0.009857177734375,0.02716064453125
1772462246825116700,0.66211669921875,-1.002288818359375,-0.0108184814453125,0.0284881591796875
1772462246835165700,0.672165771484375,-1.00115966796875,-0.011077880859375,0.028717041015625
1772462246845213700,0.682213623046875,-1.001739501953125,-0.012054443359375,0.0278472900390625
1772462246855261700,0.69226171875,-1.002899169921875,-0.0109100341796875,0.029022216796875
1772462246865309700,0.702309814453125,-1.0020294189453125,-0.0106658935546875,0.0281982421875
1772462246875357700,0.712357666015625,-1.0013885498046875,-0.0107421875,0.0276336669921875
1772462246885405700,0.72240576171875,-1.0008697509765625,-0.0112152099609375,0.027679443359375
1772462246895453700,0.73245361328125,-1.0020294189453125,-0.0104827880859375,0.0284271240234375
1772462246905501700,0.742501708984375,-1.0022735595703125,-0.0113067626953125,0.0289764404296875
1772462246915550700,0.75255078125,-1.0028076171875,-0.0107269287109375,0.0281219482421875
1772462246925598700,0.7625986328125,-1.000030517578125,-0.010955810546875,0.0287017822265625
1772462246935646700,0.772646728515625,-0.9958038330078125,-0.0119781494140625,0.028717041015625
1772462246945694700,0.78269482421875,-0.99871826171875,-0.0120086669921875,0.0296173095703125
1772462246955742700,0.79274267578125,-1.017303466796875,-0.0110015869140625,0.029510498046875
1772462246965790700,0.802790771484375,-1.016754150390625,-0.0096893310546875,0.0273284912109375
1772462246975838700,0.812838623046875,-0.9914398193359375,-0.0093841552734375,0.0258636474609375
1772462246985886700,0.82288671875,-0.9843292236328125,-0.0092010498046875,0.0267791748046875
1772462246995935700,0.832935791015625,-1.0055694580078125,-0.0101318359375,0.028350830078125
1772462247005983700,0.842983642578125,-1.018402099609375,-0.0115814208984375,0.029327392578125
1772462247016031700,0.85303173828125,-1.0050048828125,-0.0120086669921875,0.02996826171875
1772462247026079700,0.863079833984375,-0.986297607421875,-0.01275634765625,0.0298309326171875
1772462247036127700,0.873127685546875,-0.99285888671875,-0.01336669921875,0.029510498046875
1772462247046175700,0.88317578125,-1.00897216796875,-0.0115814208984375,0.02825927734375
1772462247056223700,0.8932236328125,-1.011749267578125,-0.0102996826171875,0.0274810791015625
1772462247066272800,0.903272705078125,-1.0064849853515625,-0.0084381103515625,0.027618408203125
1772462247076320800,0.91332080078125,-0.9990997314453125,-0.009552001953125,0.026824951171875
1772462247086368800,0.92336865234375,-0.9994964599609375,-0.0108489990234375,0.0257568359375
1772462247096416800,0.933416748046875,-1.0042877197265625,-0.0099639892578125,0.0278472900390625
1772462247106464500,0.943464599609375,-1.00579833984375,-0.01080322265625,0.0295562744140625
1772462247116512800,0.9535126953125,-1.00152587890625,-0.01141357421875,0.0297393798828125
1772462247126560800,0.963560791015625,-0.997039794921875,-0.0124053955078125,0.02789306640625
1772462247136608500,0.9736083984375,-0.999908447265625,-0.012939453125,0.0284576416015625
1772462247146656800,0.98365673828125,-1.0054779052734375,-0.01220703125,0.029296875
1772462247156705500,0.99370556640625,-1.0045623779296875,-0.010284423828125,0.028289794921875
1772462247166753800,1.00375390625,-1.004974365234375,-0.010955810546875,0.0270843505859375
1772462247176801800,1.0138017578125,-0.9979705810546875,-0.0100860595703125,0.0267486572265625
1772462247186849800,1.023849853515625,-0.9990386962890625,-0.0088958740234375,0.027740478515625
1772462247196897800,1.033897705078125,-1.0055999755859375,-0.0097198486328125,0.0287933349609375
1772462247206945500,1.043945556640625,-1.004974365234375,-0.010711669921875,0.028533935546875
1772462247216993800,1.053993896484375,-1.0018157958984375,-0.0117034912109375,0.02716064453125
1772462247227042600,1.06404248046875,-0.9992218017578125,-0.0133819580078125,0.02801513671875
1772462247237090800,1.0740908203125,-1.0016632080078125,-0.0126800537109375,0.0287933349609375
1772462247247138800,1.084138916015625,-1.004486083984375,-0.01239013671875,0.0289306640625
1772462247257186600,1.0941865234375,-1.003082275390625,-0.01129150390625,0.0283966064453125
1772462247267234800,1.10423486328125,-1.00140380859375,-0.010498046875,0.0286102294921875
1772462247277282800,1.11428271484375,-1.00067138671875,-0.0106658935546875,0.027862548828125
1772462247287330600,1.12433056640625,-1.00201416015625,-0.009979248046875,0.0276031494140625
1772462247297378800,1.13437890625,-1.0024871826171875,-0.0098114013671875,0.027496337890625
1772462247307427600,1.144427490234375,-1.0009765625,-0.010009765625,0.0278778076171875
1772462247317475800,1.154475830078125,-1.0017852783203125,-0.0106964111328125,0.0281524658203125
1772462247327523600,1.164523681640625,-1.0062103271484375,-0.01104736328125,0.028533935546875
1772462247337571600,1.174571533203125,-1.0086669921875,-0.011199951171875,0.0287017822265625
1772462247347619800,1.184619873046875,-1.0027923583984375,-0.0120391845703125,0.0289306640625
1772462247357667600,1.19466748046875,-0.9982452392578125,-0.0128631591796875,0.0285186767578125
1772462247367715600,1.204715576171875,-1.00054931640625,-0.01226806640625,0.029937744140625
1772462247377763800,1.214763916015625,-1.0040740966796875,-0.0113983154296875,0.0289154052734375
1772462247387812600,1.2248125,-1.00439453125,-0.01129150390625,0.0283660888671875
1772462247397860900,1.23486083984375,-1.0006256103515625,-0.010009765625,0.02813720703125
1772462247407908600,1.24490869140625,-0.9990997314453125,-0.0098724365234375,0.0272674560546875
1772462247417956900,1.254956787109375,-1.002685546875,-0.0101776123046875,0.0276031494140625
1772462247428004900,1.2650048828125,-1.0049896240234375,-0.009552001953125,0.0268096923828125
1772462247438052600,1.275052490234375,-1.002716064453125,-0.009613037109375,0.027374267578125
1772462247448100900,1.285100830078125,-1.00146484375,-0.00958251953125,0.0299530029296875
1772462247458149600,1.295149658203125,-1.003326416015625,-0.0114593505859375,0.02899169921875
1772462247468198000,1.305197998046875,-1.0028228759765625,-0.0124664306640625,0.0297088623046875
1772462247478245600,1.31524560546875,-1.0027313232421875,-0.0125274658203125,0.028564453125
1772462247488293600,1.325293701171875,-1.0008544921875,-0.0117034912109375,0.0273590087890625
1772462247498342000,1.335341796875,-1.0019683837890625,-0.0104217529296875,0.027099609375
1772462247508389600,1.3453896484375,-1.0023040771484375,-0.009918212890625,0.0281524658203125
1772462247518437600,1.355437744140625,-1.003173828125,-0.0101470947265625,0.028533935546875
1772462247528486000,1.36548583984375,-1.0021514892578125,-0.0107879638671875,0.028900146484375
1772462247538534700,1.37553466796875,-1.0022735595703125,-0.0117034912109375,0.0283203125
1772462247548583000,1.3855830078125,-1.002044677734375,-0.0117950439453125,0.028778076171875
1772462247558630700,1.395630615234375,-1.004150390625,-0.0119476318359375,0.02886962890625
1772462247568678700,1.4056787109375,-1.0039215087890625,-0.01129150390625,0.0283355712890625
1772462247578726700,1.4157265625,-1.001434326171875,-0.01123046875,0.027587890625
1772462247588774700,1.425774658203125,-1.000152587890625,-0.0108795166015625,0.02740478515625
1772462247598823000,1.435822998046875,-1.0014190673828125,-0.0113525390625,0.0287322998046875
1772462247608872000,1.445871826171875,-1.0045623779296875,-0.01104736328125,0.0289306640625
1772462247618920200,1.455920166015625,-1.003509521484375,-0.01123046875,0.027801513671875
1772462247628968000,1.465968017578125,-1.0008697509765625,-0.01104736328125,0.0283203125
1772462247639016200,1.47601611328125,-1.00018310546875,-0.0101165771484375,0.028350830078125
1772462247649064200,1.486064208984375,-1.0025482177734375,-0.0100250244140625,0.02728271484375
1772462247659112000,1.49611181640625,-1.00384521484375,-0.0104827880859375,0.026947021484375
1772462247669160200,1.50616015625,-1.00189208984375,-0.010650634765625,0.0268096923828125
1772462247679209000,1.516208984375,-1.0004730224609375,-0.011138916015625,0.028076171875
1772462247689257200,1.52625732421875,-1.000640869140625,-0.010894775390625,0.0294952392578125
1772462247699305000,1.536304931640625,-1.0035400390625,-0.0123443603515625,0.0289154052734375
1772462247709353000,1.54635302734375,-1.00543212890625,-0.011749267578125,0.02935791015625
1772462247719401200,1.556401123046875,-1.0039215087890625,-0.0112457275390625,0.0282745361328125
1772462247729449000,1.566448974609375,-0.9985504150390625,-0.0113525390625,0.0285186767578125
1772462247739497000,1.5764970703125,-0.9998321533203125,-0.0109100341796875,0.0285797119140625
1772462247749545200,1.586545166015625,-1.0036773681640625,-0.0116119384765625,0.0272674560546875
1772462247759594000,1.596593994140625,-1.0043182373046875,-0.011016845703125,0.0275726318359375
1772462247769642200,1.606642333984375,-1.0013427734375,-0.0099029541015625,0.0282135009765625
1772462247779690000,1.61668994140625,-1.00054931640625,-0.011016845703125,0.028778076171875
1772462247789738000,1.626738037109375,-1.0033721923828125,-0.0116729736328125,0.02935791015625
1772462247799786000,1.636785888671875,-1.0030364990234375,-0.01055908203125,0.02783203125
1772462247809834000,1.646833984375,-1.0011749267578125,-0.0111236572265625,0.02783203125
1772462247819882200,1.65688232421875,-1.0004425048828125,-0.0102081298828125,0.02813720703125
1772462247829931000,1.666930908203125,-1.00274658203125,-0.0109405517578125,0.0279388427734375
1772462247839979000,1.67697900390625,-1.0026702880859375,-0.011749267578125,0.0279083251953125
1772462247850027000,1.687027099609375,-1.0034332275390625,-0.0116119384765625,0.028167724609375
1772462247860075000,1.697074951171875,-1.00421142578125,-0.0116729736328125,0.0283355712890625
1772462247870123300,1.707123291015625,-1.0027923583984375,-0.0106658935546875,0.0286865234375
1772462247880171000,1.7171708984375,-1.000640869140625,-0.0105133056640625,0.0282745361328125
1772462247890219000,1.727218994140625,-0.998748779296875,-0.0103302001953125,0.0279998779296875
1772462247900268000,1.73726806640625,-1.001861572265625,-0.0113525390625,0.0291748046875
1772462247910316000,1.74731591796875,-1.0063629150390625,-0.0115814208984375,0.028839111328125
1772462247920364000,1.757364013671875,-1.0027313232421875,-0.0109710693359375,0.027679443359375
1772462247930412000,1.767412109375,-0.99945068359375,-0.0120391845703125,0.0283355712890625
1772462247940460000,1.7774599609375,-1.00006103515625,-0.012237548828125,0.02801513671875
1772462247950508000,1.787508056640625,-1.0041351318359375,-0.011199951171875,0.028717041015625
1772462247960556000,1.79755615234375,-1.0045166015625,-0.0110931396484375,0.0283966064453125
1772462247970605000,1.80760498046875,-1.003021240234375,-0.0116119384765625,0.0280914306640625
1772462247980653000,1.817653076171875,-1.000457763671875,-0.0104522705078125,0.0283966064453125
1772462247990701000,1.827701171875,-1.0015411376953125,-0.011016845703125,0.027130126953125
1772462248000749000,1.8377490234375,-1.0041961669921875,-0.0100860595703125,0.027191162109375
1772462248010797000,1.847797119140625,-1.0009765625,-0.0108489990234375,0.027435302734375
1772462248020845000,1.857844970703125,-1.0014190673828125,-0.0113067626953125,0.028228759765625
1772462248030893000,1.86789306640625,-1.002105712890625,-0.0116424560546875,0.0287017822265625
1772462248040941000,1.877941162109375,-1.001861572265625,-0.0123748779296875,0.028594970703125
1772462248050990000,1.887989990234375,-1.0036773681640625,-0.0123291015625,0.0292205810546875
1772462248061038000,1.8980380859375,-1.0030670166015625,-0.01165771484375,0.02862548828125
1772462248071085800,1.9080859375,-1.0007476806640625,-0.0107879638671875,0.0277252197265625
1772462248081134000,1.918134033203125,-1.0004730224609375,-0.010162353515625,0.0271759033203125
1772462248091182000,1.92818212890625,-1.002655029296875,-0.0099334716796875,0.0281219482421875
1772462248101230000,1.93822998046875,-1.002410888671875,-0.0103759765625,0.0283355712890625
1772462248111278000,1.948278076171875,-1.0011444091796875,-0.0108489990234375,0.0279693603515625
1772462248121327000,1.9583271484375,-1.000335693359375,-0.01104736328125,0.02801513671875
1772462248131375000,1.968375,-1.001739501953125,-0.011138916015625,0.029266357421875
1772462248141423000,1.978423095703125,-1.0033111572265625,-0.0115509033203125,0.02960205078125
1772462248151471000,1.98847119140625,-1.0030364990234375,-0.0120391845703125,0.0286102294921875
1772462248161519000,1.99851904296875,-1.0023651123046875,-0.0115509033203125,0.028961181640625
1772462248171566800,2.00856689453125,-1.00225830078125,-0.01080322265625,0.0279083251953125
1772462248181615000,2.018614990234375,-1.0025634765625,-0.0107879638671875,0.0282135009765625
1772462248191663900,2.028663818359375,-1.00238037109375,-0.0116119384765625,0.028472900390625
1772462248201712000,2.038712158203125,-1.001953125,-0.010833740234375,0.02825927734375
1772462248211760000,2.048760009765625,-1.0010833740234375,-0.0110015869140625,0.0286102294921875
1772462248221807900,2.058807861328125,-1.0024871826171875,-0.010986328125,0.0284881591796875
1772462248231856000,2.068856201171875,-1.0035858154296875,-0.01043701171875,0.028472900390625
1772462248241904000,2.078904052734375,-1.0027313232421875,-0.0106048583984375,0.028472900390625
1772462248251951900,2.088951904296875,-1.00091552734375,-0.0110015869140625,0.0283050537109375
1772462248262001200,2.099001220703125,-1.0029754638671875,-0.0110015869140625,0.0281219482421875
1772462248272049000,2.109048828125,-1.0033721923828125,-0.0119476318359375,0.028167724609375
1772462248282097200,2.11909716796875,-1.0011749267578125,-0.0113067626953125,0.0276947021484375
1772462248292145000,2.129144775390625,-1.001434326171875,-0.011260986328125,0.0287017822265625
1772462248302193200,2.139193115234375,-1.00335693359375,-0.01171875,0.0284881591796875
1772462248312241200,2.1492412109375,-1.0033721923828125,-0.0116729736328125,0.028961181640625
1772462248322289000,2.159288818359375,-1.002410888671875,-0.011810302734375,0.0283050537109375
1772462248332338200,2.169338134765625,-1.002227783203125,-0.0111236572265625,0.0284271240234375
1772462248342386000,2.179385986328125,-1.0027618408203125,-0.0106353759765625,0.0287933349609375
1772462248352434200,2.18943408203125,-1.0033416748046875,-0.01123046875,0.0271148681640625
1772462248362482200,2.199482177734375,-1.0033721923828125,-0.0111236572265625,0.0289764404296875
1772462248372530000,2.209530029296875,-1.0014495849609375,-0.010589599609375,0.0286407470703125
1772462248382578200,2.219578125,-1.0012054443359375,-0.0102386474609375,0.02825927734375
1772462248392626000,2.2296259765625,-1.00262451171875,-0.0107574462890625,0.0289764404296875
1772462248402675200,2.23967529296875,-1.0035247802734375,-0.0105133056640625,0.0294036865234375
1772462248412723000,2.249722900390625,-1.002899169921875,-0.010894775390625,0.0288848876953125
1772462248422771000,2.25977099609375,-1.0004119873046875,-0.01116943359375,0.0285797119140625
1772462248432819200,2.269819091796875,-1.0014801025390625,-0.0111236572265625,0.028472900390625
1772462248442867000,2.279866943359375,-1.002838134765625,-0.010498046875,0.0289764404296875
1772462248452915000,2.2899150390625,-1.0032501220703125,-0.0117950439453125,0.028900146484375
1772462248462963200,2.299963134765625,-1.00360107421875,-0.01190185546875,0.0288543701171875
1772462248473012000,2.310011962890625,-1.00244140625,-0.0107574462890625,0.0281829833984375
1772462248483060200,2.320060302734375,-1.0019073486328125,-0.0105438232421875,0.0281219482421875
1772462248493108000,2.33010791015625,-1.002777099609375,-0.0095672607421875,0.0276031494140625
1772462248503156000,2.340156005859375,-1.003204345703125,-0.010467529296875,0.0279693603515625
1772462248513204200,2.350204345703125,-1.0018768310546875,-0.01068115234375,0.027099609375
1772462248523252000,2.360251953125,-1.00115966796875,-0.0109710693359375,0.0277862548828125
1772462248533300200,2.37030029296875,-1.001739501953125,-0.0112457275390625,0.02874755859375
1772462248543349000,2.380348876953125,-1.0033721923828125,-0.0115966796875,0.0284881591796875
1772462248553397000,2.39039697265625,-1.003387451171875,-0.011260986328125,0.0281524658203125
1772462248563445000,2.400445068359375,-1.002166748046875,-0.01153564453125,0.0279541015625
1772462248573493000,2.410492919921875,-1.0006256103515625,-0.01092529296875,0.02838134765625
1772462248583541200,2.420541259765625,-1.0023040771484375,-0.011383056640625,0.0282745361328125
1772462248593589000,2.430589111328125,-1.0031280517578125,-0.0111541748046875,0.0279388427734375
1772462248603638000,2.440637939453125,-1.0024566650390625,-0.01190185546875,0.0289154052734375
1772462248613685500,2.450685546875,-1.002777099609375,-0.0114288330078125,0.02801513671875
1772462248623733800,2.460733642578125,-1.00177001953125,-0.010955810546875,0.0282440185546875
1772462248633781800,2.47078173828125,-1.0020904541015625,-0.010772705078125,0.029083251953125
1772462248643829500,2.48082958984375,-1.002349853515625,-0.0108795166015625,0.0277252197265625
1772462248653877800,2.490877685546875,-1.0022735595703125,-0.0109100341796875,0.0277252197265625
1772462248663925800,2.50092578125,-1.0020294189453125,-0.0112152099609375,0.028472900390625
1772462248673974800,2.510974853515625,-1.0021820068359375,-0.0114898681640625,0.028564453125
1772462248684022800,2.521022705078125,-1.0029449462890625,-0.01165771484375,0.028594970703125
1772462248694070500,2.531070556640625,-1.0029144287109375,-0.0110015869140625,0.0287933349609375
1772462248704118800,2.541118896484375,-1.00115966796875,-0.011627197265625,0.0279541015625
1772462248714166500,2.55116650390625,-1.00244140625,-0.0114898681640625,0.028961181640625
1772462248724214800,2.56121484375,-1.0034942626953125,-0.0108795166015625,0.0277099609375
1772462248734262800,2.5712626953125,-1.00299072265625,-0.01177978515625,0.0280914306640625
1772462248744311600,2.5813115234375,-1.00164794921875,-0.0110931396484375,0.0272979736328125
1772462248754359800,2.59135986328125,-1.0006866455078125,-0.0108642578125,0.0290069580078125
1772462248764407600,2.601407470703125,-1.0009002685546875,-0.0107421875,0.029022216796875
1772462248774455800,2.611455810546875,-1.002685546875,-0.0114898681640625,0.02880859375
1772462248784503800,2.62150390625,-1.0032806396484375,-0.01129150390625,0.0287017822265625
1772462248794551600,2.631551513671875,-1.00177001953125,-0.0113372802734375,0.0284271240234375
1772462248804600800,2.641600830078125,-1.0008544921875,-0.0113067626953125,0.0289306640625
1772462248814648600,2.651648681640625,-1.0021514892578125,-0.0113983154296875,0.0280609130859375
1772462248824696800,2.66169677734375,-1.0043182373046875,-0.0106658935546875,0.0275421142578125
1772462248834744600,2.67174462890625,-1.0040283203125,-0.0104522705078125,0.0276336669921875
1772462248844792600,2.68179248046875,-1.001434326171875,-0.0109100341796875,0.02777099609375
1772462248854840800,2.6918408203125,-1.000579833984375,-0.0108489990234375,0.0283203125
1772462248864888600,2.701888671875,-1.001434326171875,-0.0112457275390625,0.027496337890625
1772462248874937900,2.711937744140625,-1.003662109375,-0.0113372802734375,0.0287933349609375
1772462248884985600,2.721985595703125,-1.0020904541015625,-0.011474609375,0.0285186767578125
1772462248895033600,2.73203369140625,-1.00030517578125,-0.01080322265625,0.0286865234375
1772462248905081900,2.742081787109375,-1.0021514892578125,-0.010833740234375,0.0283355712890625
1772462248915129600,2.752129638671875,-1.003387451171875,-0.0115509033203125,0.02838134765625
1772462248925177600,2.762177490234375,-1.0030670166015625,-0.0110931396484375,0.0280303955078125
1772462248935226600,2.7722265625,-1.0017852783203125,-0.0107879638671875,0.0278472900390625
1772462248945274600,2.782274658203125,-1.000640869140625,-0.0106201171875,0.028533935546875
1772462248955322600,2.792322509765625,-1.0019989013671875,-0.0098114013671875,0.02862548828125
1772462248965370600,2.80237060546875,-1.0037689208984375,-0.010772705078125,0.02838134765625
1772462248975418600,2.812418701171875,-1.0020599365234375,-0.011077880859375,0.0276947021484375
1772462248985466600,2.822466552734375,-1.0007171630859375,-0.0106048583984375,0.0279541015625
1772462248995514600,2.8325146484375,-1.0013427734375,-0.0113677978515625,0.0283660888671875
1772462249005563600,2.842563720703125,-1.003173828125,-0.011383056640625,0.028106689453125
1772462249015611600,2.852611572265625,-1.0030059814453125,-0.0114593505859375,0.0281829833984375
1772462249025659600,2.86265966796875,-1.00250244140625,-0.0113525390625,0.028717041015625
1772462249035707600,2.872707763671875,-1.0016021728515625,-0.01129150390625,0.0283050537109375
1772462249045755600,2.882755615234375,-1.002044677734375,-0.0118865966796875,0.028076171875
1772462249055803600,2.8928037109375,-1.00274658203125,-0.0111846923828125,0.02838134765625
1772462249065851600,2.9028515625,-1.0036468505859375,-0.0109405517578125,0.0279083251953125
1772462249075900700,2.912900634765625,-1.0016937255859375,-0.0111541748046875,0.0278472900390625
1772462249085948700,2.92294873046875,-1.0007171630859375,-0.0104522705078125,0.0275421142578125
1772462249095996700,2.93299658203125,-1.0016632080078125,-0.010711669921875,0.0283966064453125
1772462249106044700,2.943044677734375,-1.0035552978515625,-0.010711669921875,0.028106689453125
1772462249116092700,2.9530927734375,-1.002685546875,-0.01055908203125,0.0279998779296875
1772462249126140700,2.963140625,-1.0020294189453125,-0.0113677978515625,0.0285797119140625
1772462249136189700,2.973189697265625,-1.001953125,-0.01171875,0.028594970703125
1772462249146237700,2.98323779296875,-1.0027618408203125,-0.0119476318359375,0.028228759765625
1772462249156285700,2.99328564453125,-1.0035858154296875,-0.01129150390625,0.028045654296875
1772462249166333700,3.003333740234375,-1.0037384033203125,-0.01141357421875,0.0293426513671875
1772462249176381700,3.013381591796875,-1.0012969970703125,-0.0121917724609375,0.0295867919921875
1772462249186429700,3.0234296875,-1.002044677734375,-0.011566162109375,0.02789306640625
1772462249196478700,3.033478759765625,-1.0026397705078125,-0.0110931396484375,0.02734375
1772462249206526700,3.043526611328125,-1.003021240234375,-0.010589599609375,0.0286865234375
1772462249216574700,3.05357470703125,-1.00213623046875,-0.0117034912109375,0.02783203125
1772462249226622500,3.06362255859375,-1.0030517578125,-0.0111846923828125,0.02752685546875
1772462249236670700,3.073670654296875,-1.0020599365234375,-0.011138916015625,0.028228759765625
1772462249246718700,3.08371875,-1.001708984375,-0.0117034912109375,0.0284881591796875
1772462249256766500,3.093766357421875,-1.00244140625,-0.0109710693359375,0.0289306640625
1772462249266815700,3.103815673828125,-1.001556396484375,-0.011383056640625,0.0283660888671875
1772462249276863500,3.113863525390625,-1.0021820068359375,-0.0111846923828125,0.0275726318359375
1772462249286911700,3.123911865234375,-1.0024871826171875,-0.0113525390625,0.0279083251953125
1772462249296959700,3.133959716796875,-1.0022125244140625,-0.011077880859375,0.028350830078125
1772462249307007700,3.1440078125,-1.0026702880859375,-0.0105438232421875,0.0281219482421875
1772462249317055700,3.1540556640625,-1.0028228759765625,-0.010528564453125,0.0284881591796875
1772462249327104500,3.1641044921875,-1.0021209716796875,-0.0111541748046875,0.02838134765625
1772462249337152800,3.17415283203125,-1.002410888671875,-0.0107879638671875,0.0287628173828125
1772462249347200500,3.184200439453125,-1.002593994140625,-0.01165771484375,0.0288238525390625
1772462249357248800,3.194248779296875,-1.0029296875,-0.011016845703125,0.028106689453125
1772462249367296800,3.204296875,-1.001922607421875,-0.011138916015625,0.0283203125
1772462249377344500,3.214344482421875,-1.0018768310546875,-0.01116943359375,0.0270843505859375
1772462249387392800,3.224392822265625,-1.0027618408203125,-0.0110015869140625,0.0276947021484375
1772462249397441500,3.234441650390625,-1.0020751953125,-0.010467529296875,0.0279541015625
1772462249407489800,3.24448974609375,-1.001220703125,-0.009674072265625,0.027984619140625
1772462249417537800,3.254537841796875,-1.0024566650390625,-0.011077880859375,0.028778076171875
1772462249427585500,3.26458544921875,-1.0031280517578125,-0.011810302734375,0.0288238525390625
1772462249437633800,3.2746337890625,-1.00146484375,-0.0108795166015625,0.0289154052734375
1772462249447681800,3.284681884765625,-1.0024566650390625,-0.01104736328125,0.02825927734375
1772462249457730800,3.294730712890625,-1.002960205078125,-0.0118560791015625,0.0285797119140625
1772462249467778600,3.304778564453125,-1.0030364990234375,-0.012176513671875,0.028961181640625
1772462249477826600,3.31482666015625,-1.0029754638671875,-0.0110321044921875,0.0281524658203125
1772462249487874800,3.324874755859375,-1.00201416015625,-0.0111846923828125,0.028228759765625
1772462249497922600,3.334922607421875,-1.001800537109375,-0.011138916015625,0.02789306640625
1772462249507970600,3.344970458984375,-1.003204345703125,-0.010955810546875,0.0278778076171875
1772462249518019600,3.35501953125,-1.001800537109375,-0.0109100341796875,0.028411865234375
1772462249528067600,3.365067626953125,-1.002166748046875,-0.010772705078125,0.02783203125
1772462249538115800,3.37511572265625,-1.0018310546875,-0.0108184814453125,0.0279693603515625
1772462249548163600,3.38516357421875,-1.0025177001953125,-0.0113983154296875,0.02923583984375
1772462249558211600,3.395211669921875,-1.0030364990234375,-0.0112762451171875,0.0289764404296875
1772462249568259800,3.405259765625,-1.001678466796875,-0.0110015869140625,0.02838134765625
1772462249578307600,3.4153076171875,-1.0027008056640625,-0.011962890625,0.028411865234375
1772462249588356600,3.425356689453125,-1.003509521484375,-0.01165771484375,0.028594970703125
1772462249598404600,3.435404541015625,-1.001708984375,-0.0097198486328125,0.0290679931640625
1772462249608453000,3.445453125,-1.001739501953125,-0.0107269287109375,0.028076171875
1772462249618500900,3.4555009765625,-1.001220703125,-0.010467529296875,0.0275421142578125
1772462249628548900,3.465548828125,-1.0023193359375,-0.01129150390625,0.0290069580078125
1772462249638597000,3.47559716796875,-1.0033721923828125,-0.0112762451171875,0.028350830078125
1772462249648646000,3.48564599609375,-1.0019683837890625,-0.0109405517578125,0.0288543701171875
1772462249658694100,3.495694091796875,-1.000946044921875,-0.0117340087890625,0.029083251953125
1772462249668742000,3.505741943359375,-1.0031890869140625,-0.0108795166015625,0.028961181640625
1772462249678790000,3.515789794921875,-1.003936767578125,-0.0115814208984375,0.0280914306640625
1772462249688838000,3.525837890625,-1.0016632080078125,-0.011383056640625,0.0289459228515625
1772462249698886000,3.535885986328125,-1.0007781982421875,-0.01104736328125,0.0284881591796875
1772462249708935000,3.545934814453125,-1.0020751953125,-0.01129150390625,0.028045654296875
1772462249718983000,3.55598291015625,-1.002960205078125,-0.01129150390625,0.0272369384765625
1772462249729031000,3.566031005859375,-1.0029449462890625,-0.0118865966796875,0.0283355712890625
1772462249739079000,3.576078857421875,-1.002532958984375,-0.0104217529296875,0.028106689453125
1772462249749127000,3.586126953125,-1.0025177001953125,-0.0110626220703125,0.0286102294921875
1772462249759175000,3.5961748046875,-1.0021820068359375,-0.0115509033203125,0.0281829833984375
1772462249769224000,3.606223876953125,-1.002593994140625,-0.0109710693359375,0.0278167724609375
1772462249779272000,3.61627197265625,-1.0033721923828125,-0.011322021484375,0.0282745361328125
1772462249789320000,3.62631982421875,-1.003387451171875,-0.0107879638671875,0.028900146484375
1772462249799368000,3.636367919921875,-1.0022735595703125,-0.0111541748046875,0.028656005859375
1772462249809416000,3.646416015625,-1.00189208984375,-0.0110015869140625,0.0283660888671875
1772462249819464000,3.6564638671875,-1.0018463134765625,-0.010345458984375,0.027618408203125
1772462249829513000,3.666512939453125,-1.002410888671875,-0.010223388671875,0.027984619140625
1772462249839561000,3.67656103515625,-1.0026397705078125,-0.0113983154296875,0.0273590087890625
1772462249849609000,3.68660888671875,-1.0026702880859375,-0.01165771484375,0.02789306640625
1772462249859656700,3.69665673828125,-1.0023345947265625,-0.0109710693359375,0.02789306640625
1772462249869705000,3.706705078125,-1.0016937255859375,-0.011260986328125,0.0284881591796875
1772462249879753000,3.7167529296875,-1.0013885498046875,-0.0107421875,0.02862548828125
1772462249889802000,3.726802001953125,-1.0027313232421875,-0.0110321044921875,0.0280303955078125
1772462249899850000,3.73685009765625,-1.0018157958984375,-0.0119171142578125,0.0275115966796875
1772462249909897700,3.746897705078125,-1.0024566650390625,-0.010833740234375,0.0280914306640625
1772462249919946000,3.756946044921875,-1.003265380859375,-0.011505126953125,0.0276947021484375
1772462249929994000,3.766993896484375,-1.0015869140625,-0.0117645263671875,0.028106689453125
1772462249940042000,3.7770419921875,-1.0021514892578125,-0.011260986328125,0.0283203125
1772462249950091000,3.787091064453125,-1.0018157958984375,-0.01080322265625,0.0282440185546875
1772462249960139000,3.797138916015625,-1.0029296875,-0.012115478515625,0.0276641845703125
1772462249970187000,3.80718701171875,-1.0039520263671875,-0.0122833251953125,0.02838134765625
1772462249980234800,3.81723486328125,-1.0033416748046875,-0.0113525390625,0.0286712646484375
1772462249990283000,3.827282958984375,-1.0019989013671875,-0.0110931396484375,0.0294036865234375
1772462250000331000,3.8373310546875,-1.002777099609375,-0.01141357421875,0.028472900390625
1772462250010378800,3.847378662109375,-1.00341796875,-0.011138916015625,0.028717041015625
1772462250020428000,3.857427978515625,-1.00201416015625,-0.01080322265625,0.0283203125
1772462250030475800,3.867475830078125,-1.001190185546875,-0.0109405517578125,0.02764892578125
1772462250040524000,3.87752392578125,-1.002227783203125,-0.011138916015625,0.0283355712890625
1772462250050572000,3.887572021484375,-1.0034942626953125,-0.01141357421875,0.027587890625
1772462250060619800,3.897619873046875,-1.0032958984375,-0.0113067626953125,0.0283050537109375
1772462250070669000,3.9076689453125,-1.0027313232421875,-0.011566162109375,0.028564453125
1772462250080716800,3.917716796875,-1.0027313232421875,-0.0109710693359375,0.0281524658203125
1772462250090765000,3.92776513671875,-1.002716064453125,-0.0111236572265625,0.029022216796875
1772462250100812800,3.937812744140625,-1.0028533935546875,-0.011016845703125,0.0275726318359375
1772462250110860800,3.94786083984375,-1.0009307861328125,-0.0109710693359375,0.028350830078125
1772462250120909000,3.957908935546875,-1.002105712890625,-0.0106048583984375,0.0277099609375
1772462250130956800,3.967956787109375,-1.0020904541015625,-0.0104217529296875,0.0279388427734375
1772462250141006000,3.978006103515625,-1.0027923583984375,-0.0115966796875,0.027099609375
1772462250151053800,3.9880537109375,-1.0018768310546875,-0.0112457275390625,0.027923583984375
1772462250161101800,3.998101806640625,-1.001953125,-0.011016845703125,0.0273590087890625
1772462250171150000,4.008150146484375,-1.0027618408203125,-0.0117340087890625,0.0281829833984375
1772462250181197800,4.01819775390625,-1.00250244140625,-0.0111541748046875,0.02899169921875
1772462250191247000,4.0282470703125,-1.00152587890625,-0.011199951171875,0.0288238525390625
1772462250201294800,4.038294921875,-1.0024261474609375,-0.0116729736328125,0.0288238525390625
1772462250211342800,4.0483427734375,-1.0012969970703125,-0.0107574462890625,0.028289794921875
1772462250221390800,4.058390869140625,-1.0025177001953125,-0.01129150390625,0.0279998779296875
1772462250231438800,4.06843896484375,-1.0033416748046875,-0.0108795166015625,0.027801513671875
1772462250241487000,4.078487060546875,-1.0034942626953125,-0.011077880859375,0.02825927734375
1772462250251536000,4.088535888671875,-1.0013885498046875,-0.0105133056640625,0.027679443359375
1772462250261584000,4.098583984375,-1.0018768310546875,-0.0109710693359375,0.02850341796875
1772462250271632000,4.1086318359375,-1.0026092529296875,-0.0111541748046875,0.0291748046875
1772462250281680000,4.118679931640625,-1.0020294189453125,-0.0119171142578125,0.0289764404296875
1772462250291728100,4.12872802734375,-1.00128173828125,-0.0106964111328125,0.028289794921875
1772462250301776000,4.13877587890625,-1.00067138671875,-0.0101318359375,0.02850341796875
1772462250311825200,4.1488251953125,-1.0016326904296875,-0.01092529296875,0.0280914306640625
1772462250321873000,4.158872802734375,-1.002593994140625,-0.010009765625,0.0279998779296875
1772462250331921000,4.1689208984375,-1.0028228759765625,-0.010406494140625,0.0283660888671875
1772462250341969000,4.178968994140625,-1.001312255859375,-0.010955810546875,0.027923583984375
1772462250352017000,4.189016845703125,-1.0010986328125,-0.0112152099609375,0.02880859375
1772462250362065000,4.19906494140625,-1.003082275390625,-0.0114288330078125,0.0281524658203125
1772462250372114000,4.209114013671875,-1.0016021728515625,-0.01068115234375,0.027679443359375
1772462250382162000,4.219161865234375,-1.0015106201171875,-0.011749267578125,0.0283660888671875
1772462250392210000,4.2292099609375,-1.001708984375,-0.0117340087890625,0.0277252197265625
1772462250402258000,4.2392578125,-1.0025177001953125,-0.0112152099609375,0.0277099609375
1772462250412306000,4.249305908203125,-1.0026397705078125,-0.01141357421875,0.02764892578125
1772462250422354000,4.25935400390625,-1.0030517578125,-0.010711669921875,0.0285186767578125
1772462250432403000,4.26940283203125,-1.0015869140625,-0.0113983154296875,0.028900146484375
1772462250442451000,4.279450927734375,-1.0008544921875,-0.01153564453125,0.0287628173828125
1772462250452499000,4.2894990234375,-1.0017852783203125,-0.0117340087890625,0.02850341796875
1772462250462547000,4.299546875,-1.0030364990234375,-0.0110931396484375,0.0285491943359375
1772462250472595000,4.309594970703125,-1.0026397705078125,-0.0102691650390625,0.0270538330078125
1772462250482643000,4.319642822265625,-1.0017547607421875,-0.0099945068359375,0.028106689453125
1772462250492692000,4.32969189453125,-1.0018463134765625,-0.0110626220703125,0.028106689453125
1772462250502740000,4.339739990234375,-1.0025787353515625,-0.0108642578125,0.0282745361328125
1772462250512787700,4.34978759765625,-1.0031585693359375,-0.011871337890625,0.02862548828125
1772462250522836000,4.3598359375,-1.0026397705078125,-0.0110321044921875,0.0281982421875
1772462250532884000,4.369884033203125,-1.00250244140625,-0.010955810546875,0.0279541015625
1772462250542932000,4.379931884765625,-1.00225830078125,-0.01214599609375,0.02880859375
1772462250552981000,4.38998095703125,-1.0034027099609375,-0.0113067626953125,0.028411865234375
1772462250563028700,4.40002880859375,-1.0026397705078125,-0.010711669921875,0.0284423828125
1772462250573077000,4.410076904296875,-1.00140380859375,-0.0105438232421875,0.0274658203125
1772462250583125000,4.420125,-1.0020294189453125,-0.01104736328125,0.02728271484375
1772462250593173000,4.430173095703125,-1.00299072265625,-0.0111541748046875,0.0283355712890625
1772462250603221000,4.440220947265625,-1.0035858154296875,-0.0110931396484375,0.027740478515625
1772462250613273300,4.4502734375,-1.0023040771484375,-0.0112457275390625,0.027984619140625
1772462250623321300,4.4603212890625,-1.0021514892578125,-0.0113677978515625,0.0287933349609375
1772462250633369000,4.470369140625,-1.002716064453125,-0.0106964111328125,0.0283660888671875
1772462250643417300,4.480417236328125,-1.003387451171875,-0.011444091796875,0.0286102294921875
1772462250653465300,4.49046533203125,-1.003204345703125,-0.011566162109375,0.02789306640625
1772462250663513000,4.50051318359375,-1.0009613037109375,-0.011627197265625,0.0286102294921875
1772462250673562400,4.510562255859375,-1.001220703125,-0.0115814208984375,0.0284881591796875
1772462250683610000,4.520610107421875,-1.0032806396484375,-0.0110626220703125,0.0283050537109375
1772462250693658400,4.530658447265625,-1.003662109375,-0.0116424560546875,0.0293426513671875
1772462250703706400,4.540706298828125,-1.0026702880859375,-0.0108795166015625,0.028472900390625
1772462250713754400,4.55075439453125,-1.002044677734375,-0.0102691650390625,0.02734375
1772462250723802400,4.56080224609375,-1.0020904541015625,-0.0107421875,0.02783203125
1772462250733851100,4.57085107421875,-1.002716064453125,-0.0106658935546875,0.0277099609375
1772462250743899400,4.5808994140625,-1.0032806396484375,-0.01043701171875,0.0279541015625
1772462250753947100,4.590947021484375,-1.0014495849609375,-0.0114898681640625,0.0283203125
1772462250763995400,4.600995361328125,-1.0016326904296875,-0.011077880859375,0.0286712646484375
1772462250774043400,4.61104345703125,-1.003265380859375,-0.0114593505859375,0.0282440185546875
1772462250784092200,4.621092041015625,-1.0034027099609375,-0.01141357421875,0.02752685546875
1772462250794140400,4.631140380859375,-1.0025482177734375,-0.0107421875,0.0292510986328125
1772462250804188200,4.641188232421875,-1.0014190673828125,-0.0109100341796875,0.028900146484375
1772462250814236400,4.651236328125,-1.001129150390625,-0.010833740234375,0.0274200439453125
1772462250824284400,4.661284423828125,-1.00213623046875,-0.0108795166015625,0.02789306640625
1772462250834332200,4.671332275390625,-1.003021240234375,-0.0113372802734375,0.02838134765625
1772462250844381400,4.68138134765625,-1.00201416015625,-0.0112762451171875,0.02813720703125
1772462250854429200,4.69142919921875,-1.0020599365234375,-0.0103759765625,0.0278472900390625
1772462250864477400,4.7014775390625,-1.0028228759765625,-0.0112457275390625,0.02777099609375
1772462250874525200,4.711525146484375,-1.00244140625,-0.0110015869140625,0.0293121337890625
1772462250884573200,4.7215732421875,-1.0019683837890625,-0.0111236572265625,0.028533935546875
1772462250894621400,4.731621337890625,-1.00311279296875,-0.01116943359375,0.028106689453125
1772462250904670200,4.741670166015625,-1.003509521484375,-0.01129150390625,0.02874755859375
1772462250914718500,4.751718505859375,-1.0023193359375,-0.011016845703125,0.0276947021484375
1772462250924766200,4.76176611328125,-1.0014801025390625,-0.011505126953125,0.028076171875
1772462250934814200,4.771814208984375,-1.0020599365234375,-0.0112457275390625,0.028106689453125
1772462250944862500,4.781862548828125,-1.002838134765625,-0.01177978515625,0.02825927734375
1772462250954910200,4.79191015625,-1.0028228759765625,-0.010833740234375,0.027862548828125
1772462250964959500,4.80195947265625,-1.0027313232421875,-0.0114288330078125,0.0277862548828125
1772462250975007200,4.81200732421875,-1.0021209716796875,-0.011810302734375,0.027740478515625
1772462250985055200,4.82205517578125,-1.0025177001953125,-0.01129150390625,0.028076171875
1772462250995103200,4.832103271484375,-1.0013580322265625,-0.0114288330078125,0.0285491943359375
1772462251005151200,4.842151123046875,-1.00225830078125,-0.010955810546875,0.0283050537109375
1772462251015200300,4.8522001953125,-1.00274658203125,-0.01171875,0.0276031494140625
1772462251025248300,4.862248291015625,-1.002716064453125,-0.01092529296875,0.0277557373046875
1772462251035296300,4.872296142578125,-1.0020599365234375,-0.0108642578125,0.0283050537109375
1772462251045344300,4.88234423828125,-1.00244140625,-0.0107269287109375,0.02789306640625
1772462251055392300,4.892392333984375,-1.0019683837890625,-0.0108642578125,0.0279693603515625
1772462251065440500,4.9024404296875,-1.001922607421875,-0.01031494140625,0.0286407470703125
1772462251075489300,4.9124892578125,-1.001708984375,-0.0106658935546875,0.0281524658203125
1772462251085537300,4.922537353515625,-1.002899169921875,-0.0113525390625,0.028076171875
1772462251095585300,4.932585205078125,-1.00347900390625,-0.0109100341796875,0.0286712646484375
1772462251105633300,4.94263330078125,-1.0040283203125,-0.0109100341796875,0.029296875
1772462251115681500,4.952681640625,-1.001953125,-0.0118255615234375,0.02874755859375
1772462251125729300,4.962729248046875,-1.00347900390625,-0.0107879638671875,0.0279693603515625
1772462251135778300,4.9727783203125,-1.003509521484375,-0.010498046875,0.028533935546875
1772462251145826300,4.982826416015625,-1.0009918212890625,-0.0111236572265625,0.028900146484375
1772462251155874300,4.992874267578125,-1.00091552734375,-0.0114288330078125,0.0286712646484375
1772462251165922300,5.00292236328125,-1.0009765625,-0.0115966796875,0.0286712646484375
1772462251175970300,5.01297021484375,-1.0021209716796875,-0.01165771484375,0.0290069580078125
1772462251186019000,5.02301904296875,-1.0047149658203125,-0.0112457275390625,0.0285491943359375
1772462251196067300,5.0330673828125,-1.002685546875,-0.0111846923828125,0.0281524658203125
1772462251206115300,5.043115234375,-1.000732421875,-0.011566162109375,0.0280303955078125
1772462251216163300,5.053163330078125,-1.001068115234375,-0.01141357421875,0.0278167724609375
1772462251226211300,5.06321142578125,-1.0027008056640625,-0.0105133056640625,0.0283355712890625
1772462251236259300,5.07325927734375,-1.0035400390625,-0.0117034912109375,0.0278778076171875
1772462251246308400,5.083308349609375,-1.00244140625,-0.0111846923828125,0.0282135009765625
1772462251256356400,5.0933564453125,-1.0021209716796875,-0.0109405517578125,0.0281219482421875
1772462251266404400,5.103404296875,-1.0012664794921875,-0.0115203857421875,0.028778076171875
1772462251276452400,5.113452392578125,-1.0027923583984375,-0.0109100341796875,0.029052734375
1772462251286500000,5.1235,-1.004669189453125,-0.01153564453125,0.0283660888671875
1772462251296548400,5.13354833984375,-1.0023040771484375,-0.0104827880859375,0.02899169921875
1772462251306597000,5.14359716796875,-1.0016021728515625,-0.011566162109375,0.02825927734375
1772462251316645400,5.153645263671875,-1.002166748046875,-0.01165771484375,0.0281829833984375
1772462251326693400,5.163693359375,-1.003387451171875,-0.0116119384765625,0.0287017822265625
1772462251336741000,5.1737412109375,-1.0020751953125,-0.010833740234375,0.027862548828125
1772462251346789400,5.183789306640625,-1.0010833740234375,-0.0107421875,0.028717041015625
1772462251356838100,5.193838134765625,-1.003204345703125,-0.0120697021484375,0.0281829833984375
1772462251366886400,5.203886474609375,-1.0030975341796875,-0.01190185546875,0.027679443359375
1772462251376934400,5.213934326171875,-1.0022430419921875,-0.0115203857421875,0.02880859375
1772462251386982100,5.223982177734375,-1.0026702880859375,-0.01165771484375,0.02874755859375
1772462251397030400,5.234030517578125,-1.003662109375,-0.0117340087890625,0.02838134765625
1772462251407078100,5.244078125,-1.0025482177734375,-0.010528564453125,0.02801513671875
1772462251417127400,5.25412744140625,-1.0023193359375,-0.010498046875,0.027374267578125
1772462251427175200,5.264175048828125,-1.0030517578125,-0.01123046875,0.0283355712890625
1772462251437223200,5.27422314453125,-1.003875732421875,-0.01080322265625,0.0288848876953125
1772462251447271400,5.284271484375,-1.002288818359375,-0.010589599609375,0.0291748046875
1772462251457319200,5.294319091796875,-1.0012969970703125,-0.0118408203125,0.0278472900390625
1772462251467368400,5.304368408203125,-1.0022125244140625,-0.0117340087890625,0.0280914306640625
1772462251477416200,5.314416259765625,-1.0026092529296875,-0.010589599609375,0.0286102294921875
1772462251487464200,5.324464111328125,-1.0039825439453125,-0.011077880859375,0.0278778076171875
1772462251497512400,5.334512451171875,-1.002685546875,-0.0120391845703125,0.028961181640625
1772462251507560200,5.344560302734375,-1.0015106201171875,-0.0118408203125,0.0295257568359375
1772462251517608400,5.3546083984375,-1.002838134765625,-0.01123046875,0.0274810791015625
1772462251527657200,5.3646572265625,-1.003570556640625,-0.0111236572265625,0.028289794921875
1772462251537705200,5.374705322265625,-1.00299072265625,-0.0105133056640625,0.0275726318359375
1772462251547753200,5.384753173828125,-1.0018463134765625,-0.010711669921875,0.02740478515625
1772462251557801200,5.39480126953125,-1.0013427734375,-0.011016845703125,0.028289794921875
1772462251567849500,5.404849365234375,-1.002532958984375,-0.011322021484375,0.0279388427734375
1772462251577897200,5.414897216796875,-1.0019683837890625,-0.01141357421875,0.028472900390625
1772462251587946500,5.424946533203125,-1.0036163330078125,-0.0118865966796875,0.028900146484375
1772462251597994200,5.434994140625,-1.001495361328125,-0.011260986328125,0.0280609130859375
1772462251608042200,5.445042236328125,-1.0006103515625,-0.0110321044921875,0.0279693603515625
1772462251618087200,5.455087158203125,-1.0022125244140625,-0.0104827880859375,0.028656005859375
1772462251628135200,5.46513525390625,-1.003448486328125,-0.0106048583984375,0.02801513671875
1772462251638183200,5.47518310546875,-1.003143310546875,-0.01129150390625,0.02874755859375
1772462251648232200,5.485232177734375,-1.00146484375,-0.0114593505859375,0.0278472900390625
1772462251658280200,5.4952802734375,-1.00189208984375,-0.01116943359375,0.0289764404296875
1772462251668328200,5.505328125,-1.003173828125,-0.0107421875,0.0281524658203125
1772462251678376200,5.515376220703125,-1.00311279296875,-0.0111846923828125,0.028564453125
1772462251688424200,5.525424072265625,-1.002471923828125,-0.0114898681640625,0.0283966064453125
1772462251698473200,5.53547314453125,-1.0032196044921875,-0.011688232421875,0.0282745361328125
1772462251708521200,5.545521240234375,-1.0029754638671875,-0.0109710693359375,0.028411865234375
1772462251718569200,5.5555693359375,-1.00201416015625,-0.011383056640625,0.0289154052734375
1772462251728617200,5.5656171875,-1.0027618408203125,-0.011260986328125,0.027679443359375
1772462251738665200,5.575665283203125,-1.0027923583984375,-0.01123046875,0.0285491943359375
1772462251748713200,5.585713134765625,-1.002838134765625,-0.01068115234375,0.0280914306640625
1772462251758762200,5.59576220703125,-1.001922607421875,-0.0118255615234375,0.0289764404296875
1772462251768810200,5.605810302734375,-1.001708984375,-0.0113983154296875,0.0290985107421875
1772462251778858200,5.615858154296875,-1.003387451171875,-0.01116943359375,0.028656005859375
1772462251788906000,5.625906005859375,-1.0018157958984375,-0.0117645263671875,0.0279388427734375
1772462251798954200,5.635954345703125,-1.0016937255859375,-0.0114898681640625,0.02752685546875
1772462251809003000,5.6460029296875,-1.0016021728515625,-0.0113677978515625,0.0280609130859375
1772462251819051300,5.65605126953125,-1.0026092529296875,-0.0106048583984375,0.0278472900390625
1772462251829099300,5.666099365234375,-1.0018768310546875,-0.0108489990234375,0.028656005859375
1772462251839147300,5.676147216796875,-1.0001220703125,-0.01092529296875,0.0287933349609375
1772462251849195300,5.6861953125,-1.001556396484375,-0.0108489990234375,0.027862548828125
1772462251859243300,5.6962431640625,-1.004364013671875,-0.0110931396484375,0.0280914306640625
1772462251869292300,5.706292236328125,-1.003448486328125,-0.0113372802734375,0.0285797119140625
1772462251879340300,5.71634033203125,-1.0014190673828125,-0.0115814208984375,0.0283050537109375
1772462251889388300,5.72638818359375,-1.0012054443359375,-0.0110626220703125,0.0276336669921875
1772462251899436300,5.736436279296875,-1.0032958984375,-0.01104736328125,0.0283203125
1772462251909484000,5.746484130859375,-1.0027923583984375,-0.01141357421875,0.0282135009765625
1772462251919533300,5.756533203125,-1.0014801025390625,-0.011260986328125,0.0289764404296875
1772462251929581000,5.7665810546875,-1.001708984375,-0.0103302001953125,0.0289764404296875
1772462251939629300,5.77662939453125,-1.002227783203125,-0.0110321044921875,0.02850341796875
1772462251949677300,5.78667724609375,-1.001800537109375,-0.010955810546875,0.0283355712890625
1772462251959725000,5.79672509765625,-1.0018463134765625,-0.0107421875,0.0276641845703125
1772462251969774300,5.8067744140625,-1.0027618408203125,-0.0112457275390625,0.0286102294921875
1772462251979822000,5.816822021484375,-1.002685546875,-0.01141357421875,0.028106689453125
1772462251989870300,5.826870361328125,-1.0021514892578125,-0.0113677978515625,0.0283355712890625
1772462251999918300,5.83691845703125,-1.001678466796875,-0.01116943359375,0.0279998779296875
1772462252009966000,5.846966064453125,-1.003509521484375,-0.0102996826171875,0.028533935546875
1772462252020014300,5.857014404296875,-1.0025177001953125,-0.0107269287109375,0.028564453125
1772462252030063000,5.86706298828125,-1.002716064453125,-0.0112152099609375,0.027984619140625
1772462252040111400,5.877111328125,-1.0021820068359375,-0.0110321044921875,0.0279083251953125
1772462252050159000,5.8871591796875,-1.002044677734375,-0.0109710693359375,0.0285491943359375
1772462252060207000,5.89720703125,-1.0019073486328125,-0.0107269287109375,0.0279693603515625
1772462252070255400,5.90725537109375,-1.00201416015625,-0.011871337890625,0.0283355712890625
1772462252080304000,5.91730419921875,-1.003509521484375,-0.0121612548828125,0.028594970703125
1772462252090352400,5.927352294921875,-1.0026397705078125,-0.011383056640625,0.0291900634765625
1772462252100400000,5.937400146484375,-1.0023345947265625,-0.0110321044921875,0.0279998779296875
1772462252110448000,5.9474482421875,-1.0021209716796875,-0.0103912353515625,0.0284881591796875
1772462252120496400,5.957496337890625,-1.0001678466796875,-0.01104736328125,0.0288238525390625
1772462252130545200,5.967545166015625,-1.0031585693359375,-0.0110321044921875,0.0287628173828125
1772462252140593400,5.977593505859375,-1.00408935546875,-0.0117340087890625,0.0279998779296875
1772462252150641200,5.98764111328125,-1.0011138916015625,-0.01104736328125,0.0282135009765625
1772462252160689200,5.997689208984375,-1.002288818359375,-0.0112457275390625,0.0290374755859375
1772462252170737200,6.007737060546875,-1.0016937255859375,-0.0111541748046875,0.0283050537109375
1772462252180785200,6.01778515625,-1.0027008056640625,-0.0108489990234375,0.0284576416015625
1772462252190834200,6.027834228515625,-1.0041961669921875,-0.0117950439453125,0.0286102294921875
1772462252200882200,6.037882080078125,-1.0029144287109375,-0.0114593505859375,0.02813720703125
1772462252210930200,6.04793017578125,-1.0023956298828125,-0.011138916015625,0.0290069580078125
1772462252220978200,6.057978271484375,-1.0021820068359375,-0.0117034912109375,0.027496337890625
1772462252231026200,6.068026123046875,-1.0023345947265625,-0.0113067626953125,0.0290069580078125
1772462252241075200,6.0780751953125,-1.003326416015625,-0.0106964111328125,0.0294647216796875
1772462252251123200,6.088123291015625,-1.00164794921875,-0.01019287109375,0.02825927734375
1772462252261171200,6.098171142578125,-1.001007080078125,-0.0104522705078125,0.0273895263671875
1772462252271219200,6.10821923828125,-1.0037994384765625,-0.0110626220703125,0.028472900390625
1772462252281267200,6.11826708984375,-1.0032958984375,-0.0112152099609375,0.0287017822265625
1772462252291315200,6.128315185546875,-1.003173828125,-0.01055908203125,0.0280303955078125
1772462252301364200,6.1383642578125,-1.0040283203125,-0.010589599609375,0.0278778076171875
1772462252311412200,6.148412109375,-1.00335693359375,-0.0111083984375,0.02825927734375
1772462252321460200,6.158460205078125,-1.003204345703125,-0.01165771484375,0.0276641845703125
1772462252331508200,6.16850830078125,-1.00213623046875,-0.010101318359375,0.0280914306640625
1772462252341556200,6.17855615234375,-1.00189208984375,-0.01129150390625,0.02838134765625
1772462252351605200,6.188605224609375,-1.002105712890625,-0.011383056640625,0.02862548828125
1772462252361653200,6.1986533203125,-1.002655029296875,-0.011016845703125,0.0279693603515625
1772462252371701200,6.208701171875,-1.0015106201171875,-0.0115509033203125,0.0285186767578125
1772462252381749200,6.218749267578125,-1.001800537109375,-0.011260986328125,0.0289154052734375
1772462252391797200,6.22879736328125,-1.0023651123046875,-0.011688232421875,0.0280609130859375
1772462252401846300,6.23884619140625,-1.0017242431640625,-0.0108795166015625,0.02783203125
1772462252411894300,6.248894287109375,-1.0026397705078125,-0.010833740234375,0.0288543701171875
1772462252421942300,6.2589423828125,-1.0022430419921875,-0.010894775390625,0.0280303955078125
1772462252431990300,6.268990234375,-1.00213623046875,-0.0107879638671875,0.0281524658203125
1772462252442038300,6.279038330078125,-1.0025634765625,-0.0103912353515625,0.0286407470703125
1772462252452087000,6.289087158203125,-1.0034027099609375,-0.011932373046875,0.02801513671875
1772462252462135300,6.29913525390625,-1.002349853515625,-0.010894775390625,0.028350830078125
1772462252472183300,6.309183349609375,-1.000152587890625,-0.010650634765625,0.0278778076171875
1772462252482231000,6.31923095703125,-1.00372314453125,-0.01104736328125,0.0276336669921875
1772462252492279300,6.329279296875,-1.0033721923828125,-0.011322021484375,0.0281829833984375
1772462252502327300,6.339327392578125,-1.000579833984375,-0.0103607177734375,0.0281219482421875
1772462252512376300,6.349376220703125,-1.0013580322265625,-0.0108184814453125,0.028533935546875
1772462252522424300,6.35942431640625,-1.0031585693359375,-0.0113067626953125,0.028564453125
1772462252532472000,6.36947216796875,-1.0045318603515625,-0.0121612548828125,0.0291748046875
1772462252542520300,6.379520263671875,-1.0025482177734375,-0.0115509033203125,0.0296783447265625
1772462252552568300,6.389568359375,-1.00189208984375,-0.01202392578125,0.02947998046875
1772462252562617300,6.399617431640625,-1.002899169921875,-0.01141357421875,0.028564453125
1772462252572665000,6.4096650390625,-1.00396728515625,-0.01123046875,0.028228759765625
1772462252582713000,6.419713134765625,-1.0023193359375,-0.0104217529296875,0.0273590087890625
1772462252592761300,6.42976123046875,-1.0004119873046875,-0.0105438232421875,0.0284576416015625
1772462252602809000,6.43980908203125,-1.0017242431640625,-0.0104522705078125,0.0281524658203125
1772462252612856600,6.449856689453125,-1.003936767578125,-0.010589599609375,0.0278472900390625
1772462252622905900,6.45990576171875,-1.0045013427734375,-0.0115203857421875,0.0283050537109375
1772462252632953600,6.46995361328125,-1.000091552734375,-0.0115509033203125,0.02911376953125
1772462252643001900,6.480001953125,-1.0013427734375,-0.01104736328125,0.0284423828125
1772462252653049600,6.490049560546875,-1.0035858154296875,-0.011444091796875,0.0285491943359375
1772462252663097600,6.50009765625,-1.00250244140625,-0.011199951171875,0.0276336669921875
1772462252673146600,6.510146728515625,-1.0026397705078125,-0.01104736328125,0.02886962890625
1772462252683194600,6.520194580078125,-1.0030517578125,-0.0107879638671875,0.0287322998046875
1772462252693243000,6.530242919921875,-1.00152587890625,-0.0107574462890625,0.028106689453125
1772462252703290600,6.54029052734375,-1.0017547607421875,-0.011260986328125,0.028900146484375
1772462252713338600,6.550338623046875,-1.0025177001953125,-0.01165771484375,0.0284271240234375
1772462252723387600,6.5603876953125,-1.00177001953125,-0.011199951171875,0.0284881591796875
1772462252733435600,6.570435546875,-1.001800537109375,-0.01123046875,0.02838134765625
1772462252743484000,6.58048388671875,-1.001800537109375,-0.011199951171875,0.02777099609375
1772462252753531600,6.59053173828125,-1.004058837890625,-0.011627197265625,0.0281982421875
1772462252763579600,6.60057958984375,-1.00213623046875,-0.0103302001953125,0.0271759033203125
1772462252773628700,6.610628662109375,-1.0020751953125,-0.01080322265625,0.0279998779296875
1772462252783676700,6.6206767578125,-1.002838134765625,-0.011199951171875,0.028106689453125
1772462252793724700,6.630724609375,-1.0027313232421875,-0.0109710693359375,0.027618408203125
1772462252803772700,6.640772705078125,-1.0032806396484375,-0.0103302001953125,0.0283355712890625
1772462252813820700,6.650820556640625,-1.0018768310546875,-0.0111236572265625,0.0287017822265625
1772462252823868700,6.66086865234375,-1.0015869140625,-0.01080322265625,0.0283355712890625
1772462252833917700,6.670917724609375,-1.002227783203125,-0.011505126953125,0.028228759765625
1772462252843965700,6.680965576171875,-1.002899169921875,-0.0112762451171875,0.027679443359375
1772462252854013700,6.691013671875,-1.0039520263671875,-0.0110626220703125,0.027862548828125
1772462252864062000,6.70106201171875,-1.0021514892578125,-0.01153564453125,0.0287017822265625
1772462252874109700,6.711109619140625,-1.0016937255859375,-0.01019287109375,0.0279693603515625
1772462252884158700,6.72115869140625,-1.0022430419921875,-0.0113525390625,0.0277557373046875
1772462252894206700,6.731206787109375,-1.0046539306640625,-0.0113677978515625,0.0288848876953125
1772462252904254700,6.741254638671875,-1.0032806396484375,-0.0113983154296875,0.0268707275390625
1772462252914302700,6.751302734375,-1.000732421875,-0.0114288330078125,0.0278472900390625
1772462252924350700,6.761350830078125,-1.0034027099609375,-0.01165771484375,0.0285186767578125
1772462252934399500,6.7713994140625,-1.00360107421875,-0.0120849609375,0.0290985107421875
1772462252944447700,6.78144775390625,-1.0021820068359375,-0.0117645263671875,0.0289306640625
1772462252954495700,6.791495849609375,-0.999542236328125,-0.011016845703125,0.02850341796875
1772462252964543700,6.801543701171875,-1.0007781982421875,-0.01092529296875,0.0291900634765625
1772462252974591700,6.811591796875,-1.00372314453125,-0.01019287109375,0.0274810791015625
1772462252984640500,6.821640625,-1.00384521484375,-0.0104217529296875,0.0271759033203125
1772462252994688800,6.831688720703125,-1.0019378662109375,-0.0103912353515625,0.028076171875
1772462253004736800,6.84173681640625,-1.000732421875,-0.0108184814453125,0.02874755859375
1772462253014784800,6.85178466796875,-1.001983642578125,-0.0118408203125,0.0283660888671875
1772462253024832800,6.861832763671875,-1.0023040771484375,-0.0110931396484375,0.0290985107421875
1772462253034880500,6.871880615234375,-1.0022125244140625,-0.010955810546875,0.0299224853515625
1772462253044929800,6.8819296875,-1.00164794921875,-0.01123046875,0.0284881591796875
1772462253054977500,6.8919775390625,-1.0014801025390625,-0.011383056640625,0.02685546875
1772462253065025800,6.90202587890625,-1.0029296875,-0.010498046875,0.0284576416015625
1772462253075073800,6.91207373046875,-1.003753662109375,-0.0097198486328125,0.02789306640625
1772462253085121500,6.92212158203125,-1.001312255859375,-0.0103302001953125,0.0279693603515625
1772462253095170800,6.9321708984375,-1.0021209716796875,-0.010986328125,0.028228759765625
1772462253105218600,6.942218505859375,-1.003326416015625,-0.0114593505859375,0.0272064208984375
1772462253115266800,6.952266845703125,-1.00579833984375,-0.01116943359375,0.028106689453125
1772462253125314800,6.962314697265625,-1.0061492919921875,-0.0110321044921875,0.028839111328125
1772462253135362600,6.972362548828125,-1.003875732421875,-0.0122833251953125,0.0278778076171875
1772462253145411800,6.982411865234375,-1.000885009765625,-0.0112152099609375,0.02752685546875
1772462253155459600,6.99245947265625,-1.00042724609375,-0.0113525390625,0.028472900390625
1772462253165507800,7.0025078125,-1.0015869140625,-0.0112762451171875,0.02789306640625
1772462253175555600,7.0125556640625,-1.0006866455078125,-0.010955810546875,0.0284881591796875
1772462253185603600,7.022603515625,-1.00201416015625,-0.0104522705078125,0.028717041015625
1772462253195652600,7.032652587890625,-1.0031890869140625,-0.012420654296875,0.0309295654296875
1772462253205700600,7.04270068359375,-1.0021514892578125,-0.0135955810546875,0.0286712646484375
1772462253215748900,7.052748779296875,-1.00030517578125,-0.011962890625,0.0265960693359375
1772462253225796600,7.062796630859375,-1.0007171630859375,-0.0085296630859375,0.02734375
1772462253235844600,7.0728447265625,-1.0036468505859375,-0.008056640625,0.02667236328125
1772462253245892900,7.082892822265625,-1.004364013671875,-0.0101318359375,0.0262451171875
1772462253255941600,7.092941650390625,-1.0014190673828125,-0.0112762451171875,0.0278778076171875
1772462253265990000,7.102989990234375,-1.000762939453125,-0.011932373046875,0.030059814453125
1772462253276037600,7.11303759765625,-1.003662109375,-0.012908935546875,0.0304718017578125
1772462253286085600,7.123085693359375,-1.002960205078125,-0.013824462890625,0.028594970703125
1772462253296134700,7.133134765625,-1.00213623046875,-0.0118560791015625,0.02850341796875
1772462253306182700,7.1431826171875,-1.00152587890625,-0.0100250244140625,0.028076171875
1772462253316230700,7.153230712890625,-1.00213623046875,-0.00970458984375,0.0264129638671875
1772462253326278700,7.163278564453125,-1.00274658203125,-0.0104522705078125,0.0262298583984375
1772462253336326700,7.17332666015625,-1.0030517578125,-0.0104827880859375,0.0280914306640625
1772462253346374700,7.183374755859375,-1.002532958984375,-0.0106658935546875,0.0290374755859375
1772462253356423700,7.193423583984375,-1.00250244140625,-0.0115966796875,0.0283660888671875
1772462253366471700,7.2034716796875,-1.0028076171875,-0.011077880859375,0.0277252197265625
1772462253376519700,7.213519775390625,-1.0028228759765625,-0.0099639892578125,0.027374267578125
1772462253386568000,7.22356787109375,-1.0022735595703125,-0.0098876953125,0.0273895263671875
1772462253396615700,7.23361572265625,-1.0010528564453125,-0.010467529296875,0.026885986328125
1772462253406664700,7.243664794921875,-1.0024871826171875,-0.01104736328125,0.0273590087890625
1772462253416712700,7.253712646484375,-1.00274658203125,-0.0112762451171875,0.0292510986328125
1772462253426760700,7.2637607421875,-1.0031280517578125,-0.0109710693359375,0.029327392578125
1772462253436808700,7.27380859375,-1.00201416015625,-0.0108489990234375,0.02752685546875
1772462253446856700,7.283856689453125,-1.0017547607421875,-0.0105133056640625,0.0274658203125
1772462253456905700,7.29390576171875,-1.0010528564453125,-0.009521484375,0.027801513671875
1772462253466953700,7.30395361328125,-1.0033721923828125,-0.01055908203125,0.0277862548828125
1772462253477001700,7.314001708984375,-1.0029296875,-0.0113067626953125,0.027801513671875
1772462253487049700,7.3240498046875,-1.002166748046875,-0.01239013671875,0.029754638671875
1772462253497097700,7.33409765625,-1.0023040771484375,-0.0115966796875,0.029541015625
1772462253507146500,7.344146484375,-1.0017242431640625,-0.0120086669921875,0.029876708984375
1772462253517194800,7.35419482421875,-1.0019989013671875,-0.0112457275390625,0.02911376953125
1772462253527242800,7.36424267578125,-1.00079345703125,-0.01080322265625,0.028289794921875
1772462253537290800,7.374290771484375,-1.00128173828125,-0.009979248046875,0.02838134765625
1772462253547338800,7.3843388671875,-1.0029449462890625,-0.0095672607421875,0.0269775390625
1772462253557387800,7.3943876953125,-1.002471923828125,-0.0113677978515625,0.0269012451171875
1772462253567435800,7.404435791015625,-1.003875732421875,-0.011474609375,0.0284271240234375
1772462253577483800,7.41448388671875,-1.0041656494140625,-0.0119476318359375,0.0293121337890625
1772462253587531800,7.42453173828125,-1.002532958984375,-0.0121002197265625,0.0282135009765625
1772462253597579800,7.434579833984375,-1.0015411376953125,-0.01141357421875,0.028289794921875
1772462253607627500,7.44462744140625,-1.0032806396484375,-0.010406494140625,0.0284423828125
1772462253617676500,7.454676513671875,-1.0032806396484375,-0.01055908203125,0.0283050537109375
1772462253627724500,7.464724609375,-1.0026702880859375,-0.011383056640625,0.028564453125
1772462253637772500,7.4747724609375,-1.0018157958984375,-0.01055908203125,0.02813720703125
1772462253647820500,7.484820556640625,-1.003173828125,-0.01025390625,0.0281524658203125
1772462253657868500,7.49486865234375,-1.0035247802734375,-0.011138916015625,0.028533935546875
1772462253667917600,7.50491748046875,-1.0028228759765625,-0.01116943359375,0.02899169921875
1772462253677965600,7.514965576171875,-1.001953125,-0.01141357421875,0.02813720703125
1772462253688013600,7.525013671875,-1.002166748046875,-0.011199951171875,0.0284576416015625
1772462253698061800,7.535061767578125,-1.00201416015625,-0.010650634765625,0.028076171875
1772462253708109600,7.545109619140625,-1.0029144287109375,-0.0111236572265625,0.0277252197265625
1772462253718158600,7.55515869140625,-1.001800537109375,-0.01080322265625,0.0283203125
1772462253728206600,7.56520654296875,-1.0001983642578125,-0.0111083984375,0.0287628173828125
1772462253738254600,7.575254638671875,-1.0008697509765625,-0.0110626220703125,0.0281982421875
1772462253748302600,7.585302490234375,-1.0006256103515625,-0.011810302734375,0.02874755859375
1772462253758350600,7.5953505859375,-0.998321533203125,-0.0123748779296875,0.02880859375
1772462253768399400,7.6053994140625,-1.0018310546875,-0.0112152099609375,0.029449462890625
1772462253778447600,7.615447509765625,-1.009307861328125,-0.010406494140625,0.027435302734375
1772462253788495600,7.62549560546875,-1.0063629150390625,-0.0092926025390625,0.0263824462890625
1772462253798543600,7.635543701171875,-0.99847412109375,-0.0089569091796875,0.0264129638671875
1772462253808591600,7.645591552734375,-0.998504638671875,-0.009033203125,0.0279388427734375
1772462253818640600,7.655640625,-1.0055694580078125,-0.0099029541015625,0.029052734375
1772462253828688600,7.665688720703125,-1.0051116943359375,-0.0111846923828125,0.0290679931640625
1772462253838736600,7.675736572265625,-0.9975128173828125,-0.010528564453125,0.0284423828125
1772462253848784600,7.68578466796875,-0.99615478515625,-0.0101165771484375,0.0279388427734375
1772462253858832600,7.69583251953125,-1.0076751708984375,-0.0108489990234375,0.027557373046875
1772462253868881700,7.705881591796875,-1.0127105712890625,-0.013458251953125,0.0283660888671875
1772462253878929700,7.7159296875,-1.0027923583984375,-0.01422119140625,0.0294342041015625
1772462253888977400,7.725977294921875,-0.99383544921875,-0.013763427734375,0.030548095703125
1772462253899025700,7.736025634765625,-0.9990081787109375,-0.0133514404296875,0.0308837890625
1772462253909073700,7.74607373046875,-1.0092926025390625,-0.0111236572265625,0.029541015625
1772462253919122700,7.756122802734375,-1.0097198486328125,-0.0102386474609375,0.0272369384765625
1772462253929170700,7.766170654296875,-0.9983062744140625,-0.0098724365234375,0.026824951171875
1772462253939218400,7.776218505859375,-0.99334716796875,-0.009521484375,0.0279541015625
1772462253949266700,7.7862666015625,-1.0011749267578125,-0.0100860595703125,0.028076171875
1772462253959314700,7.796314697265625,-1.0080108642578125,-0.0100555419921875,0.028533935546875
1772462253969363700,7.80636376953125,-1.0045928955078125,-0.01153564453125,0.0292205810546875
1772462253979411700,7.81641162109375,-0.9979400634765625,-0.0126190185546875,0.028289794921875
1772462253989459500,7.82645947265625,-0.9998626708984375,-0.011474609375,0.028350830078125
1772462253999507700,7.8365078125,-1.003173828125,-0.0107421875,0.028472900390625
1772462254009555500,7.846555419921875,-1.0049896240234375,-0.010894775390625,0.0282440185546875
1772462254019604700,7.856604736328125,-1.0027923583984375,-0.0106658935546875,0.027740478515625
1772462254029652500,7.866652587890625,-0.999786376953125,-0.011962890625,0.0278778076171875
1772462254039700500,7.876700439453125,-1.0019073486328125,-0.0126495361328125,0.0277252197265625
1772462254049748700,7.886748779296875,-1.0049896240234375,-0.0118560791015625,0.028076171875
1772462254059796500,7.89679638671875,-1.00390625,-0.0115509033203125,0.028839111328125
1772462254069845800,7.906845703125,-1.00054931640625,-0.0107421875,0.029754638671875
1772462254079893500,7.9168935546875,-1.0011444091796875,-0.0115509033203125,0.0282135009765625
1772462254089941500,7.92694140625,-1.00250244140625,-0.01165771484375,0.0284423828125
1772462254099989800,7.93698974609375,-1.0033111572265625,-0.0113525390625,0.0283050537109375
1772462254110037500,7.94703759765625,-1.0029754638671875,-0.0113067626953125,0.028350830078125
1772462254120086800,7.957086669921875,-1.0015716552734375,-0.0106201171875,0.0273590087890625
1772462254130134500,7.967134521484375,-1.001800537109375,-0.0105743408203125,0.0277862548828125
1772462254140182500,7.9771826171875,-1.0030364990234375,-0.0106353759765625,0.02813720703125
1772462254150230500,7.98723046875,-1.001922607421875,-0.011322021484375,0.027587890625
1772462254160278500,7.997278564453125,-1.002593994140625,-0.0113983154296875,0.028839111328125
1772462254170327600,8.00732763671875,-1.002105712890625,-0.01177978515625,0.0289306640625
1772462254180375600,8.01737548828125,-1.00213623046875,-0.0123748779296875,0.0290985107421875
1772462254190423600,8.027423583984374,-1.0021514892578125,-0.013275146484375,0.028900146484375
1772462254200471600,8.037471435546875,-1.00177001953125,-0.0121002197265625,0.0284423828125
1772462254210519600,8.04751953125,-1.00225830078125,-0.0108642578125,0.0282440185546875
1772462254220568600,8.057568603515625,-1.0019683837890625,-0.009674072265625,0.0281219482421875
1772462254230616600,8.067616455078126,-1.0028076171875,-0.00958251953125,0.0273284912109375
1772462254240664600,8.07766455078125,-1.0014801025390625,-0.0100555419921875,0.0279541015625
1772462254250712600,8.087712646484375,-1.0021514892578125,-0.0107879638671875,0.0285797119140625
1772462254260760600,8.097760498046876,-1.0027923583984375,-0.01080322265625,0.0284881591796875
1772462254270809600,8.1078095703125,-1.0036773681640625,-0.0116729736328125,0.0278778076171875
1772462254280857600,8.117857666015626,-1.0018768310546875,-0.0119476318359375,0.0286102294921875
1772462254290905600,8.127905517578125,-1.0014801025390625,-0.0110015869140625,0.0294952392578125
1772462254300953600,8.13795361328125,-1.00177001953125,-0.0103912353515625,0.027923583984375
1772462254311001600,8.148001708984374,-1.0036773681640625,-0.010406494140625,0.02850341796875
1772462254321050600,8.158050537109375,-1.0032958984375,-0.0113983154296875,0.0281982421875
1772462254331098600,8.1680986328125,-1.002105712890625,-0.0115509033203125,0.0290985107421875
1772462254341146600,8.178146728515625,-1.0025177001953125,-0.0111083984375,0.028533935546875
1772462254351194600,8.188194580078125,-1.002685546875,-0.0106353759765625,0.02813720703125
1772462254361242600,8.19824267578125,-1.0031280517578125,-0.011138916015625,0.0278167724609375
1772462254371291600,8.208291748046875,-1.0022125244140625,-0.01214599609375,0.0287628173828125
1772462254381339600,8.218339599609376,-1.0008544921875,-0.012115478515625,0.0287628173828125
1772462254391387600,8.2283876953125,-1.0023040771484375,-0.0114898681640625,0.0295562744140625
1772462254401435600,8.238435546875,-1.0033416748046875,-0.01104736328125,0.0280609130859375
1772462254411483600,8.248483642578124,-1.002655029296875,-0.0109100341796875,0.0286712646484375
1772462254421532700,8.25853271484375,-1.0023040771484375,-0.010040283203125,0.02777099609375
1772462254431580400,8.268580322265626,-1.0023956298828125,-0.01055908203125,0.0273895263671875
1772462254441628700,8.278628662109375,-1.0023345947265625,-0.0104217529296875,0.028228759765625
1772462254451676700,8.2886767578125,-1.002349853515625,-0.0114593505859375,0.0281829833984375
1772462254461724400,8.298724365234374,-1.002410888671875,-0.012359619140625,0.0287933349609375
1772462254471773700,8.308773681640625,-1.0023193359375,-0.01202392578125,0.029449462890625
1772462254481821400,8.318821533203124,-1.0036773681640625,-0.0123443603515625,0.029144287109375
1772462254491869700,8.32886962890625,-1.0022735595703125,-0.0118560791015625,0.028656005859375
1772462254501917700,8.338917724609376,-1.0019378662109375,-0.0096588134765625,0.028167724609375
1772462254511965400,8.34896533203125,-1.0028839111328125,-0.01007080078125,0.027618408203125
1772462254522014700,8.3590146484375,-1.0025634765625,-0.0106048583984375,0.0276031494140625
1772462254532062500,8.3690625,-1.00244140625,-0.0103302001953125,0.028594970703125
1772462254542110700,8.37911083984375,-1.0024261474609375,-0.0113525390625,0.0274810791015625
1772462254552158700,8.38915869140625,-1.0015411376953125,-0.0112152099609375,0.028228759765625
1772462254562206500,8.39920654296875,-1.002227783203125,-0.01202392578125,0.028656005859375
1772462254572255500,8.40925537109375,-1.0033721923828125,-0.0120849609375,0.028472900390625
1772462254582303500,8.419303466796874,-1.0027008056640625,-0.0121307373046875,0.0290985107421875
1772462254592351700,8.429351806640625,-1.00286865234375,-0.011627197265625,0.02764892578125
1772462254602399500,8.4393994140625,-1.00201416015625,-0.0110321044921875,0.0277862548828125
1772462254612447700,8.44944775390625,-1.0019073486328125,-0.010467529296875,0.028533935546875
1772462254622496500,8.45949658203125,-1.00299072265625,-0.0102996826171875,0.027801513671875
1772462254632544800,8.469544677734374,-1.001068115234375,-0.0107879638671875,0.0282745361328125
1772462254642592800,8.4795927734375,-1.0019989013671875,-0.0102691650390625,0.0285186767578125
1772462254652640500,8.489640625,-1.0023040771484375,-0.01202392578125,0.0286712646484375
1772462254662688800,8.499688720703125,-1.001953125,-0.0125274658203125,0.0287628173828125
1772462254672737500,8.509737548828125,-1.0011444091796875,-0.0117034912109375,0.0283966064453125
1772462254682785800,8.519785888671874,-1.002471923828125,-0.0113677978515625,0.0279388427734375
1772462254692833500,8.52983349609375,-1.0027923583984375,-0.01141357421875,0.0281219482421875
1772462254702881500,8.539881591796876,-1.0012359619140625,-0.0111236572265625,0.0278778076171875
1772462254712929800,8.5499296875,-1.0009918212890625,-0.010406494140625,0.0279541015625
1772462254722978600,8.559978515625,-1.002716064453125,-0.0104217529296875,0.0282745361328125
1772462254733026800,8.57002685546875,-1.0024871826171875,-0.0109100341796875,0.028076171875
1772462254743074600,8.580074462890625,-1.0019073486328125,-0.011627197265625,0.027679443359375
1772462254753122600,8.59012255859375,-1.0029144287109375,-0.011688232421875,0.0284271240234375
1772462254763170800,8.6001708984375,-1.0024566650390625,-0.0114593505859375,0.0285797119140625
1772462254773219600,8.610219482421876,-1.0020294189453125,-0.0116119384765625,0.0284423828125
1772462254783267800,8.620267822265625,-1.001190185546875,-0.01177978515625,0.028778076171875
1772462254793315600,8.630315673828125,-1.0020599365234375,-0.011566162109375,0.0285186767578125
1772462254803363600,8.640363525390624,-1.0035400390625,-0.0113677978515625,0.027679443359375
1772462254813412600,8.65041259765625,-1.0019683837890625,-0.0106201171875,0.0281524658203125
1772462254823460600,8.660460693359376,-1.0022125244140625,-0.010894775390625,0.0281219482421875
1772462254833508600,8.670508544921875,-1.0016632080078125,-0.0106964111328125,0.02783203125
1772462254843556600,8.680556640625,-1.00323486328125,-0.01190185546875,0.02880859375
1772462254853604600,8.6906044921875,-1.004058837890625,-0.0115814208984375,0.0290679931640625
1772462254863653600,8.700653564453125,-1.0023651123046875,-0.011810302734375,0.028045654296875
1772462254873701600,8.71070166015625,-1.00146484375,-0.011871337890625,0.0288848876953125
1772462254883749600,8.72074951171875,-1.003387451171875,-0.0112762451171875,0.0281982421875
1772462254893797600,8.730797607421875,-1.0022430419921875,-0.010528564453125,0.0284423828125
1772462254903846000,8.740845947265624,-1.00238037109375,-0.0097503662109375,0.0284271240234375
1772462254913894700,8.750894775390625,-1.0028533935546875,-0.010955810546875,0.02777099609375
1772462254923942700,8.760942626953126,-1.0021209716796875,-0.0111236572265625,0.028106689453125
1772462254933990700,8.77099072265625,-1.0026397705078125,-0.0106048583984375,0.0285186767578125
1772462254944038700,8.78103857421875,-1.0032196044921875,-0.0112762451171875,0.0279083251953125
1772462254954086700,8.791086669921874,-1.0030059814453125,-0.011138916015625,0.0291595458984375
1772462254964135700,8.8011357421875,-1.002685546875,-0.0115509033203125,0.028350830078125
1772462254974183700,8.81118359375,-1.0020294189453125,-0.011077880859375,0.02935791015625
1772462254984231700,8.821231689453125,-1.002838134765625,-0.011322021484375,0.028289794921875
1772462254994279700,8.83127978515625,-1.0029144287109375,-0.0108184814453125,0.027587890625
1772462255004327700,8.84132763671875,-1.00286865234375,-0.010772705078125,0.0284271240234375
1772462255014376700,8.851376708984375,-1.0019989013671875,-0.0113067626953125,0.02801513671875
1772462255024424700,8.8614248046875,-1.0026702880859375,-0.0106201171875,0.0277252197265625
1772462255034472700,8.87147265625,-1.00360107421875,-0.011138916015625,0.028106689453125
1772462255044520700,8.881520751953126,-1.003692626953125,-0.0110321044921875,0.02801513671875
1772462255054568700,8.891568603515625,-1.0022735595703125,-0.0117645263671875,0.0269775390625
1772462255064617700,8.90161767578125,-1.0014495849609375,-0.01104736328125,0.0277099609375
1772462255074665700,8.911665771484374,-1.0019073486328125,-0.0111541748046875,0.02862548828125
1772462255084713700,8.921713623046875,-1.003387451171875,-0.0117340087890625,0.0288848876953125
1772462255094761700,8.93176171875,-1.0030670166015625,-0.0116119384765625,0.0283660888671875
1772462255104809700,8.941809814453125,-1.0024871826171875,-0.011505126953125,0.0275115966796875
1772462255114858800,8.951858642578125,-1.0023040771484375,-0.0108489990234375,0.0283203125
1772462255124906800,8.96190673828125,-1.00146484375,-0.0113525390625,0.02752685546875
1772462255134954800,8.971954833984375,-1.001068115234375,-0.01092529296875,0.0284271240234375
1772462255145002500,8.98200244140625,-1.00250244140625,-0.0113983154296875,0.0283966064453125
1772462255155050800,8.99205078125,-1.0034027099609375,-0.0108184814453125,0.029022216796875
1772462255165099500,9.002099609375,-1.00274658203125,-0.011962890625,0.0282745361328125
1772462255175147800,9.012147705078124,-1.0027923583984375,-0.0120849609375,0.0279693603515625
1772462255185195800,9.02219580078125,-1.0031585693359375,-0.0112457275390625,0.0274810791015625
1772462255195243500,9.032243408203126,-1.0032806396484375,-0.011260986328125,0.0279083251953125
1772462255205292800,9.042292724609375,-1.0027923583984375,-0.011749267578125,0.0290374755859375
1772462255215340500,9.052340576171876,-1.0017547607421875,-0.0109710693359375,0.0294342041015625
1772462255225388800,9.062388916015625,-1.0013275146484375,-0.0107879638671875,0.02783203125
1772462255235436800,9.072436767578125,-1.0030517578125,-0.0109100341796875,0.028778076171875
1772462255245484500,9.082484619140626,-1.003875732421875,-0.010833740234375,0.028411865234375
1772462255255533600,9.092533447265625,-1.00238037109375,-0.011138916015625,0.0287322998046875
1772462255265581600,9.10258154296875,-1.0023345947265625,-0.0117340087890625,0.028594970703125
1772462255275629800,9.1126298828125,-1.000885009765625,-0.010833740234375,0.0286865234375
1772462255285677600,9.122677490234375,-1.0033721923828125,-0.010955810546875,0.02789306640625
1772462255295725600,9.1327255859375,-1.0037841796875,-0.0112762451171875,0.0283660888671875
1772462255305774600,9.142774658203125,-1.0020599365234375,-0.011138916015625,0.028106689453125
1772462255315822600,9.152822509765626,-1.0006866455078125,-0.0110931396484375,0.0282745361328125
1772462255325870800,9.162870849609375,-1.0015106201171875,-0.0110321044921875,0.0280914306640625
1772462255335918600,9.172918701171875,-1.0022735595703125,-0.0117034912109375,0.02862548828125
1772462255345966600,9.182966552734374,-1.002655029296875,-0.011749267578125,0.0291595458984375
1772462255356015600,9.193015625,-1.0026702880859375,-0.0118255615234375,0.028076171875
1772462255366063600,9.203063720703126,-1.0026702880859375,-0.01165771484375,0.0283966064453125
1772462255376111900,9.21311181640625,-1.002349853515625,-0.0111541748046875,0.0280609130859375
1772462255386159600,9.22315966796875,-1.002655029296875,-0.0107269287109375,0.0280914306640625
1772462255396207600,9.23320751953125,-1.0027313232421875,-0.01043701171875,0.028564453125
1772462255406256600,9.243256591796875,-1.000885009765625,-0.01116943359375,0.02777099609375
1772462255416304600,9.2533046875,-1.0015106201171875,-0.0110015869140625,0.0289306640625
1772462255426352600,9.2633525390625,-1.003509521484375,-0.010986328125,0.029205322265625
1772462255436400600,9.273400634765625,-1.0044403076171875,-0.011322021484375,0.0293426513671875
1772462255446448600,9.28344873046875,-1.003265380859375,-0.0111083984375,0.0279388427734375
1772462255456497700,9.29349755859375,-1.0022735595703125,-0.0120391845703125,0.028106689453125
1772462255466545700,9.303545654296874,-1.0017547607421875,-0.011627197265625,0.028961181640625
1772462255476593700,9.31359375,-1.0020294189453125,-0.0113372802734375,0.0286102294921875
1772462255486641700,9.3236416015625,-1.0031890869140625,-0.011444091796875,0.027679443359375
1772462255496689700,9.333689697265624,-1.00347900390625,-0.010986328125,0.02764892578125
1772462255506738700,9.34373876953125,-1.0015869140625,-0.011383056640625,0.0281219482421875
1772462255516786700,9.35378662109375,-1.0014190673828125,-0.0106964111328125,0.028350830078125
1772462255526834700,9.363834716796875,-1.00274658203125,-0.0107574462890625,0.029266357421875
1772462255536882700,9.373882568359376,-1.0041961669921875,-0.01171875,0.0279083251953125
1772462255546931700,9.383931640625,-1.0032501220703125,-0.0109710693359375,0.02813720703125
1772462255556979700,9.393979736328125,-1.0006561279296875,-0.0112762451171875,0.0290985107421875
1772462255567027500,9.40402734375,-1.0019073486328125,-0.0112762451171875,0.0285491943359375
1772462255577075700,9.41407568359375,-1.0025787353515625,-0.01165771484375,0.029022216796875
1772462255587123700,9.424123779296876,-1.0027313232421875,-0.0111236572265625,0.0276031494140625
1772462255597171700,9.434171630859375,-1.0023040771484375,-0.0107879638671875,0.028228759765625
1772462255607220700,9.444220703125,-1.001983642578125,-0.0113677978515625,0.027587890625
1772462255617269800,9.454269775390625,-1.003173828125,-0.0115203857421875,0.027923583984375
1772462255627317800,9.46431787109375,-1.0027923583984375,-0.0106201171875,0.027587890625
1772462255637365500,9.474365478515624,-1.0000152587890625,-0.011474609375,0.0281524658203125
1772462255647414800,9.484414794921875,-1.0017242431640625,-0.0113525390625,0.0283050537109375
1772462255657462500,9.494462646484376,-1.0066986083984375,-0.01116943359375,0.0285797119140625
1772462255667510800,9.5045107421875,-1.0035400390625,-0.0116119384765625,0.028045654296875
1772462255677558800,9.514558837890625,-0.99810791015625,-0.01068115234375,0.0278778076171875
1772462255687606500,9.5246064453125,-0.9983062744140625,-0.0113677978515625,0.027984619140625
1772462255697655600,9.534655517578125,-1.003814697265625,-0.0106048583984375,0.02703857421875
1772462255707703600,9.54470361328125,-1.006988525390625,-0.0106048583984375,0.0281524658203125
1772462255717751800,9.554751708984375,-1.0013885498046875,-0.0114288330078125,0.0285186767578125
1772462255727799600,9.564799560546875,-0.9975433349609375,-0.0117034912109375,0.0294036865234375
1772462255737847600,9.57484765625,-1.00244140625,-0.0110321044921875,0.0294189453125
