time,seconds_elapsed,z,y,x
1772536278880521700,0.082521728515625,-0.9925689697265625,-0.0681915283203125,0.0435638427734375
1772536278890570800,0.09257080078125,-0.9928131103515625,-0.0639801025390625,0.0349578857421875
1772536278900618800,0.10261865234375,-0.99853515625,-0.062042236328125,0.0342559814453125
1772536278910667800,0.112667724609375,-1.00750732421875,-0.0641021728515625,0.0349884033203125
1772536278920715800,0.1227158203125,-1.0061492919921875,-0.0648345947265625,0.0332183837890625
1772536278930763800,0.132763671875,-0.997711181640625,-0.0608367919921875,0.0352935791015625
1772536278940812800,0.142812744140625,-0.993408203125,-0.0546875,0.0460357666015625
1772536278950860300,0.1528603515625,-0.9915008544921875,-0.0540008544921875,0.05535888671875
1772536278960908300,0.162908203125,-0.9895172119140625,-0.0587158203125,0.056793212890625
1772536278970957300,0.172957275390625,-0.98956298828125,-0.06268310546875,0.0557861328125
1772536278981005300,0.18300537109375,-0.9886322021484375,-0.06353759765625,0.0533905029296875
1772536278991054300,0.193054443359375,-0.9893646240234375,-0.0612945556640625,0.04754638671875
1772536279001102300,0.203102294921875,-0.981292724609375,-0.055999755859375,0.0416107177734375
1772536279011150000,0.213150146484375,-0.977935791015625,-0.0545196533203125,0.04034423828125
1772536279021199000,0.22319921875,-0.9911651611328125,-0.0595245361328125,0.0445098876953125
1772536279031247000,0.2332470703125,-1.004150390625,-0.0675048828125,0.0378875732421875
1772536279041296100,0.243296142578125,-1.0012054443359375,-0.066680908203125,0.029693603515625
1772536279051344100,0.25334423828125,-0.9991912841796875,-0.060302734375,0.028564453125
1772536279061392400,0.263392333984375,-1.0033721923828125,-0.0589599609375,0.0280609130859375
1772536279071441200,0.273441162109375,-1.0100250244140625,-0.0645751953125,0.0213623046875
1772536279081489400,0.283489501953125,-1.017364501953125,-0.07232666015625,0.0146636962890625
1772536279091538200,0.2935380859375,-1.0144195556640625,-0.0745849609375,0.014068603515625
1772536279101586400,0.30358642578125,-1.00494384765625,-0.074676513671875,0.018768310546875
1772536279111634200,0.31363427734375,-1.001556396484375,-0.07659912109375,0.0216522216796875
1772536279121683200,0.32368310546875,-1.003936767578125,-0.0803375244140625,0.0176544189453125
1772536279131731200,0.333731201171875,-1.0065460205078125,-0.081634521484375,0.012542724609375
1772536279141780200,0.3437802734375,-1.0072174072265625,-0.0784454345703125,0.0082244873046875
1772536279151828200,0.353828125,-1.0066986083984375,-0.074371337890625,0.0088043212890625
1772536279161876200,0.363876220703125,-1.0154571533203125,-0.068603515625,0.0168609619140625
1772536279171925200,0.37392529296875,-1.0137481689453125,-0.0657958984375,0.0097198486328125
1772536279181973200,0.38397314453125,-0.9991302490234375,-0.064208984375,0.003692626953125
1772536279192022300,0.394022216796875,-0.9925537109375,-0.06219482421875,0.00250244140625
1772536279202070300,0.4040703125,-0.993072509765625,-0.061248779296875,0.00177001953125
1772536279212118300,0.4141181640625,-0.9983367919921875,-0.0639801025390625,0.009979248046875
1772536279222167300,0.424167236328125,-1.0071563720703125,-0.06787109375,0.01788330078125
1772536279232215000,0.434215087890625,-1.0095672607421875,-0.0648345947265625,0.01947021484375
1772536279242264300,0.444264404296875,-1.0054931640625,-0.062103271484375,0.015838623046875
1772536279252312000,0.45431201171875,-1.000213623046875,-0.0620574951171875,0.006927490234375
1772536279262360300,0.4643603515625,-0.9934234619140625,-0.0627899169921875,-0.002593994140625
1772536279272409000,0.4744091796875,-0.994476318359375,-0.0645294189453125,-0.0052337646484375
1772536279282457000,0.48445703125,-0.99761962890625,-0.0685272216796875,-0.00390625
1772536279292506000,0.494506103515625,-0.9942474365234375,-0.0731964111328125,0.0012054443359375
1772536279302554000,0.50455419921875,-0.996368408203125,-0.0771026611328125,0.006195068359375
1772536279312602400,0.514602294921875,-1.000396728515625,-0.0790863037109375,0.0048980712890625
1772536279322651100,0.524651123046875,-1.0014495849609375,-0.08172607421875,0.0052947998046875
1772536279332699400,0.534699462890625,-0.99957275390625,-0.08251953125,0.005279541015625
1772536279342748200,0.544748046875,-0.99859619140625,-0.08056640625,0.005523681640625
1772536279352796400,0.55479638671875,-0.9972076416015625,-0.0781402587890625,0.0086212158203125
1772536279362844200,0.56484423828125,-0.998443603515625,-0.074951171875,0.011444091796875
1772536279372893400,0.5748935546875,-1.002166748046875,-0.07275390625,0.01031494140625
1772536279382941200,0.584941162109375,-1.0005035400390625,-0.068878173828125,0.007171630859375
1772536279392990500,0.594990478515625,-0.9943389892578125,-0.0633697509765625,0.00439453125
1772536279403038200,0.6050380859375,-0.9918975830078125,-0.06121826171875,0.0051116943359375
1772536279413086200,0.615086181640625,-0.9984130859375,-0.0615997314453125,0.0077667236328125
1772536279423135200,0.62513525390625,-1.0012969970703125,-0.0609130859375,0.0142669677734375
1772536279433183200,0.635183349609375,-0.9996185302734375,-0.05816650390625,0.0151519775390625
1772536279443232300,0.645232177734375,-1.00323486328125,-0.0554351806640625,0.013092041015625
1772536279453280300,0.6552802734375,-1.004058837890625,-0.0559844970703125,0.0083770751953125
1772536279463328000,0.665327880859375,-0.9988250732421875,-0.057037353515625,0.0087127685546875
1772536279473377300,0.675377197265625,-1.0010223388671875,-0.0595550537109375,0.013580322265625
1772536279483425000,0.685425048828125,-1.00439453125,-0.0617828369140625,0.0157928466796875
1772536279493474300,0.695474365234375,-0.9994354248046875,-0.060943603515625,0.011383056640625
1772536279503522000,0.70552197265625,-0.9921112060546875,-0.0564117431640625,0.0047607421875
1772536279513570300,0.7155703125,-0.9940185546875,-0.051300048828125,0.001312255859375
1772536279523619000,0.725619140625,-0.996551513671875,-0.0514984130859375,0.00341796875
1772536279533667300,0.735667236328125,-1.0015411376953125,-0.0571441650390625,0.004302978515625
1772536279543716000,0.745716064453125,-1.0077056884765625,-0.0618896484375,0.00958251953125
1772536279553764400,0.755764404296875,-1.0110321044921875,-0.0650634765625,0.013763427734375
1772536279563812400,0.765812255859375,-1.01165771484375,-0.06689453125,0.015655517578125
1772536279573861000,0.775861083984375,-1.0093231201171875,-0.0672454833984375,0.016143798828125
1772536279583909400,0.785909423828125,-1.009307861328125,-0.0655059814453125,0.0160980224609375
1772536279593958100,0.795958251953125,-1.012847900390625,-0.064605712890625,0.01629638671875
1772536279604006400,0.80600634765625,-1.01556396484375,-0.065948486328125,0.0155792236328125
1772536279614054100,0.81605419921875,-1.0144500732421875,-0.0663909912109375,0.0130767822265625
1772536279624103400,0.826103515625,-1.0086822509765625,-0.061279296875,0.009368896484375
1772536279634151200,0.836151123046875,-1.00347900390625,-0.052947998046875,0.0129241943359375
1772536279644200400,0.846200439453125,-1.0059051513671875,-0.048980712890625,0.01361083984375
1772536279654248200,0.856248291015625,-1.00506591796875,-0.0541839599609375,0.0089111328125
1772536279664296200,0.866296142578125,-1.004119873046875,-0.061279296875,0.0036468505859375
1772536279674345200,0.87634521484375,-1.000732421875,-0.0660552978515625,0.0048370361328125
1772536279684393200,0.886393310546875,-0.995330810546875,-0.06707763671875,0.0083465576171875
1772536279694442200,0.896442138671875,-0.994140625,-0.0674896240234375,0.0091400146484375
1772536279704490200,0.906490234375,-0.991180419921875,-0.067840576171875,0.0081329345703125
1772536279714538200,0.916538330078125,-0.9882965087890625,-0.0677642822265625,0.003814697265625
1772536279724587300,0.926587158203125,-0.987091064453125,-0.071258544921875,0.00115966796875
1772536279734635000,0.936635009765625,-0.990447998046875,-0.0758209228515625,0.002960205078125
1772536279744684300,0.946684326171875,-0.9933929443359375,-0.0794830322265625,0.0064239501953125
1772536279754732000,0.95673193359375,-0.9937591552734375,-0.079437255859375,0.01239013671875
1772536279764780300,0.9667802734375,-0.9952545166015625,-0.0773773193359375,0.00970458984375
1772536279774829000,0.9768291015625,-0.994384765625,-0.07232666015625,0.00714111328125
1772536279784877300,0.986877197265625,-0.9918670654296875,-0.0670166015625,0.0070037841796875
1772536279794926000,0.996926025390625,-0.9942626953125,-0.06414794921875,0.0048370361328125
1772536279804974300,1.006974365234375,-0.994384765625,-0.0633087158203125,0.004638671875
1772536279815022300,1.017022216796875,-0.9958953857421875,-0.060150146484375,0.01129150390625
1772536279825071400,1.0270712890625,-0.99945068359375,-0.0585479736328125,0.0114593505859375
1772536279835119400,1.037119384765625,-1.0021514892578125,-0.0589447021484375,0.0096588134765625
1772536279845168000,1.047168212890625,-1.0041656494140625,-0.05877685546875,0.011810302734375
1772536279855216400,1.05721630859375,-1.00787353515625,-0.05950927734375,0.0115509033203125
1772536279865264000,1.06726416015625,-1.0084228515625,-0.0606231689453125,0.012725830078125
1772536279875313400,1.0773134765625,-1.0077667236328125,-0.0617218017578125,0.013397216796875
1772536279885361200,1.087361083984375,-1.00860595703125,-0.061431884765625,0.0142669677734375
1772536279895410200,1.09741015625,-1.0125579833984375,-0.0608978271484375,0.014678955078125
1772536279905458200,1.107458251953125,-1.01171875,-0.0605926513671875,0.0116729736328125
1772536279915507200,1.117507080078125,-1.0072174072265625,-0.0573272705078125,0.0104827880859375
1772536279925555200,1.12755517578125,-1.0061798095703125,-0.05828857421875,0.00994873046875
1772536279935603200,1.137603271484375,-1.0044708251953125,-0.0598602294921875,0.008453369140625
1772536279945652200,1.14765234375,-0.9988555908203125,-0.060577392578125,0.01031494140625
1772536279955700500,1.157700439453125,-0.9997711181640625,-0.0599517822265625,0.01409912109375
1772536279965749500,1.16774951171875,-1.001373291015625,-0.0616302490234375,0.0136566162109375
1772536279975797500,1.177797607421875,-1.000335693359375,-0.0595703125,0.010772705078125
1772536279985845200,1.18784521484375,-0.9960784912109375,-0.0576324462890625,0.0063629150390625
1772536279995894500,1.19789453125,-0.9915771484375,-0.0564422607421875,0.0067138671875
1772536280005942300,1.2079423828125,-0.99444580078125,-0.0600128173828125,0.0096588134765625
1772536280015991600,1.217991455078125,-0.9964447021484375,-0.06634521484375,0.0084686279296875
1772536280026039300,1.228039306640625,-0.993316650390625,-0.0664825439453125,0.009857177734375
1772536280036087600,1.238087646484375,-0.9910888671875,-0.0659332275390625,0.00811767578125
1772536280046136300,1.24813623046875,-0.990692138671875,-0.06451416015625,0.0088958740234375
1772536280056184600,1.2581845703125,-0.9926300048828125,-0.0661468505859375,0.0094451904296875
1772536280066233300,1.2682333984375,-0.9921722412109375,-0.0667877197265625,0.0070648193359375
1772536280076281600,1.278281494140625,-0.98870849609375,-0.063568115234375,0.0071563720703125
1772536280086329300,1.288329345703125,-0.9911041259765625,-0.061279296875,0.0098419189453125
1772536280096378400,1.29837841796875,-0.998321533203125,-0.0610198974609375,0.0121002197265625
1772536280106426400,1.30842626953125,-0.9994964599609375,-0.058990478515625,0.0108489990234375
1772536280116475400,1.318475341796875,-1.0048370361328125,-0.0555572509765625,0.0121612548828125
1772536280126523400,1.3285234375,-1.01171875,-0.0544586181640625,0.01019287109375
1772536280136571400,1.3385712890625,-1.011749267578125,-0.051788330078125,0.009429931640625
1772536280146620400,1.348620361328125,-1.0133819580078125,-0.0463409423828125,0.0111236572265625
1772536280156668400,1.35866845703125,-1.0184478759765625,-0.042022705078125,0.0102691650390625
1772536280166717400,1.368717529296875,-1.0177459716796875,-0.04107666015625,0.0093231201171875
1772536280176765400,1.378765380859375,-1.0134429931640625,-0.0414276123046875,0.011474609375
1772536280186813400,1.3888134765625,-1.01171875,-0.0431365966796875,0.01190185546875
1772536280196862500,1.398862548828125,-1.0104217529296875,-0.0459442138671875,0.0141448974609375
1772536280206910500,1.408910400390625,-1.0084686279296875,-0.0484161376953125,0.016204833984375
1772536280216959500,1.41895947265625,-1.005828857421875,-0.050689697265625,0.0142364501953125
1772536280227007500,1.429007568359375,-1.0005950927734375,-0.0529937744140625,0.0121002197265625
1772536280237056500,1.439056396484375,-0.9960174560546875,-0.055633544921875,0.01214599609375
1772536280247104500,1.4491044921875,-0.9967041015625,-0.057708740234375,0.0157623291015625
1772536280257152500,1.459152587890625,-0.9996490478515625,-0.0615997314453125,0.015228271484375
1772536280267201500,1.469201416015625,-1.001129150390625,-0.0625457763671875,0.0184783935546875
1772536280277249300,1.479249267578125,-0.99981689453125,-0.0587005615234375,0.0166168212890625
1772536280287298600,1.489298583984375,-0.99798583984375,-0.057586669921875,0.0160369873046875
1772536280297346300,1.49934619140625,-1.0001068115234375,-0.058746337890625,0.0147552490234375
1772536280307394600,1.50939453125,-1.0004119873046875,-0.0574798583984375,0.0131988525390625
1772536280317443300,1.519443359375,-0.9981842041015625,-0.05615234375,0.01397705078125
1772536280327491600,1.52949169921875,-1.0016021728515625,-0.0561065673828125,0.0137939453125
1772536280337540400,1.539540283203125,-1.0018310546875,-0.056610107421875,0.010894775390625
1772536280347588600,1.549588623046875,-1.000213623046875,-0.057586669921875,0.0115966796875
1772536280357636400,1.55963623046875,-1.003448486328125,-0.0585479736328125,0.0130157470703125
1772536280367685600,1.569685546875,-1.0066375732421875,-0.0603485107421875,0.01483154296875
1772536280377733400,1.5797333984375,-1.0068817138671875,-0.0589599609375,0.0145416259765625
1772536280387782400,1.589782470703125,-1.005340576171875,-0.0562896728515625,0.0141143798828125
1772536280397830400,1.599830322265625,-1.0069122314453125,-0.05517578125,0.0120849609375
1772536280407878400,1.60987841796875,-1.0080718994140625,-0.054107666015625,0.012115478515625
1772536280417927400,1.619927490234375,-1.005828857421875,-0.0526123046875,0.0123748779296875
1772536280427975400,1.629975341796875,-1.0034942626953125,-0.0517730712890625,0.013214111328125
1772536280438024400,1.6400244140625,-1.0048828125,-0.052734375,0.0123291015625
1772536280448072400,1.650072509765625,-1.003753662109375,-0.05419921875,0.012237548828125
1772536280458121500,1.66012158203125,-0.9970245361328125,-0.0540313720703125,0.0126495361328125
1772536280468169500,1.67016943359375,-0.9920501708984375,-0.054290771484375,0.0122528076171875
1772536280478217500,1.680217529296875,-0.9962921142578125,-0.0572052001953125,0.01483154296875
1772536280488266500,1.6902666015625,-0.997528076171875,-0.058502197265625,0.0161285400390625
1772536280498314500,1.700314453125,-0.995941162109375,-0.0577545166015625,0.014190673828125
1772536280508363500,1.710363525390625,-0.9976043701171875,-0.0568084716796875,0.01531982421875
1772536280518411500,1.72041162109375,-1.0016021728515625,-0.0565643310546875,0.014312744140625
1772536280528459500,1.73045947265625,-0.9993896484375,-0.0579071044921875,0.013671875
1772536280538508300,1.74050830078125,-1.0000457763671875,-0.056243896484375,0.0162506103515625
1772536280548556300,1.750556396484375,-1.0050201416015625,-0.0540008544921875,0.01513671875
1772536280558605300,1.760605224609375,-1.00030517578125,-0.05389404296875,0.01318359375
1772536280568653300,1.7706533203125,-1.0014190673828125,-0.0524444580078125,0.01605224609375
1772536280578701600,1.78070166015625,-1.0030059814453125,-0.052581787109375,0.01544189453125
1772536280588750300,1.790750244140625,-1.003326416015625,-0.0540008544921875,0.0164031982421875
1772536280598798600,1.800798583984375,-1.002716064453125,-0.054931640625,0.01617431640625
1772536280608847400,1.810847412109375,-1.0015716552734375,-0.055450439453125,0.01605224609375
1772536280618895600,1.8208955078125,-1.00335693359375,-0.0548858642578125,0.017181396484375
1772536280628943400,1.830943359375,-1.0010986328125,-0.053558349609375,0.0163116455078125
1772536280638992600,1.84099267578125,-1.0022430419921875,-0.0530242919921875,0.01654052734375
1772536280649040400,1.851040283203125,-1.005828857421875,-0.0542449951171875,0.0161590576171875
1772536280659089400,1.86108935546875,-1.0067138671875,-0.0557098388671875,0.01416015625
1772536280669137400,1.871137451171875,-1.0069580078125,-0.0558013916015625,0.0155029296875
1772536280679186400,1.8811865234375,-1.006561279296875,-0.0567474365234375,0.015106201171875
1772536280689234400,1.891234375,-1.0049285888671875,-0.0577545166015625,0.0117950439453125
1772536280699282400,1.901282470703125,-1.0026702880859375,-0.05859375,0.012237548828125
1772536280709331500,1.91133154296875,-1.0048065185546875,-0.0605621337890625,0.0126800537109375
1772536280719379500,1.92137939453125,-1.0048065185546875,-0.0612640380859375,0.0120697021484375
1772536280729428500,1.931428466796875,-1.0025634765625,-0.06243896484375,0.0137939453125
1772536280739476500,1.9414765625,-1.0033111572265625,-0.062042236328125,0.0139007568359375
1772536280749524500,1.9515244140625,-1.0012969970703125,-0.0596923828125,0.0119781494140625
1772536280759573500,1.961573486328125,-0.9955596923828125,-0.057373046875,0.0099334716796875
1772536280769621200,1.971621337890625,-0.9917755126953125,-0.05743408203125,0.011322021484375
1772536280779670500,1.98167041015625,-0.9979248046875,-0.0599517822265625,0.016448974609375
1772536280789718300,1.99171826171875,-1.0052642822265625,-0.061187744140625,0.0190887451171875
1772536280799766500,2.0017666015625,-1.001739501953125,-0.0605926513671875,0.0165252685546875
1772536280809815300,2.011815185546875,-0.994415283203125,-0.0589752197265625,0.0139007568359375
1772536280819863600,2.021863525390625,-0.9947357177734375,-0.0583038330078125,0.015472412109375
1772536280829912300,2.031912353515625,-0.999267578125,-0.0616607666015625,0.0184478759765625
1772536280839960300,2.041960205078125,-1.0097808837890625,-0.0612640380859375,0.0210418701171875
1772536280850008600,2.052008544921875,-1.007080078125,-0.0545806884765625,0.012481689453125
1772536280860057300,2.062057373046875,-0.9961395263671875,-0.0507049560546875,0.009552001953125
1772536280870105600,2.072105712890625,-0.9985504150390625,-0.0521697998046875,0.0116729736328125
1772536280880154400,2.082154296875,-1.00482177734375,-0.058746337890625,0.0149688720703125
1772536280890202600,2.09220263671875,-1.00048828125,-0.0651092529296875,0.0183258056640625
1772536280900251400,2.10225146484375,-1.0051422119140625,-0.0652313232421875,0.021942138671875
1772536280910299600,2.112299560546875,-1.0082855224609375,-0.06396484375,0.0171966552734375
1772536280920347400,2.122347412109375,-1.0000457763671875,-0.0624237060546875,0.0116729736328125
1772536280930396700,2.132396728515625,-0.9942474365234375,-0.06146240234375,0.0129547119140625
1772536280940444400,2.1424443359375,-0.996795654296875,-0.0634918212890625,0.0159149169921875
1772536280950493400,2.152493408203125,-1.000518798828125,-0.0691986083984375,0.0178070068359375
1772536280960545300,2.162545166015625,-0.9997100830078125,-0.069976806640625,0.01873779296875
1772536280970593300,2.17259326171875,-0.9960784912109375,-0.067901611328125,0.018280029296875
1772536280980642300,2.182642333984375,-0.99713134765625,-0.065155029296875,0.01641845703125
1772536280990690300,2.192690185546875,-1.000152587890625,-0.0634613037109375,0.0148468017578125
1772536281000739300,2.2027392578125,-0.99652099609375,-0.0624847412109375,0.0117645263671875
1772536281010787300,2.212787353515625,-0.994964599609375,-0.0615386962890625,0.012908935546875
1772536281020836000,2.222836181640625,-1.0006561279296875,-0.0624237060546875,0.0174713134765625
1772536281030884400,2.23288427734375,-1.0035858154296875,-0.0643310546875,0.016571044921875
1772536281040932000,2.24293212890625,-1.003631591796875,-0.063720703125,0.0152587890625
1772536281050981400,2.2529814453125,-1.003021240234375,-0.06475830078125,0.0155029296875
1772536281061029000,2.263029052734375,-1.003662109375,-0.06524658203125,0.0177154541015625
1772536281071078400,2.273078369140625,-1.00311279296875,-0.0664215087890625,0.0164642333984375
1772536281081126100,2.283126220703125,-1.003662109375,-0.064239501953125,0.01751708984375
1772536281091174100,2.293174072265625,-1.0054931640625,-0.0625762939453125,0.0184326171875
1772536281101223200,2.30322314453125,-1.003936767578125,-0.060943603515625,0.0167694091796875
1772536281111271200,2.313271240234375,-0.9980621337890625,-0.060089111328125,0.015625
1772536281121320200,2.3233203125,-1.0022430419921875,-0.0612945556640625,0.01690673828125
1772536281131368200,2.3333681640625,-1.002471923828125,-0.0645751953125,0.01702880859375
1772536281141417200,2.343417236328125,-1.0010833740234375,-0.065673828125,0.0194091796875
1772536281151465200,2.35346533203125,-0.99945068359375,-0.065521240234375,0.0174713134765625
1772536281161513200,2.36351318359375,-0.9965667724609375,-0.065521240234375,0.0172576904296875
1772536281171562200,2.373562255859375,-0.99658203125,-0.0663604736328125,0.0166168212890625
1772536281181610200,2.3836103515625,-0.996337890625,-0.06744384765625,0.0156707763671875
1772536281191659300,2.3936591796875,-0.9983978271484375,-0.0678253173828125,0.0166015625
1772536281201707000,2.40370703125,-1.0028076171875,-0.0668487548828125,0.0159912109375
1772536281211755300,2.41375537109375,-1.0003204345703125,-0.0643768310546875,0.012664794921875
1772536281221804000,2.423803955078125,-1.0005340576171875,-0.0599365234375,0.013641357421875
1772536281231852300,2.433852294921875,-1.004425048828125,-0.0595703125,0.0122528076171875
1772536281241901000,2.443901123046875,-1.0001373291015625,-0.0589447021484375,0.0117645263671875
1772536281251949300,2.45394921875,-0.999359130859375,-0.0599517822265625,0.0130615234375
1772536281261997300,2.463997314453125,-1.00128173828125,-0.063568115234375,0.014556884765625
1772536281272046300,2.47404638671875,-1.0048675537109375,-0.0648193359375,0.0166778564453125
1772536281282094300,2.48409423828125,-1.0054473876953125,-0.065338134765625,0.01409912109375
1772536281292143400,2.494143310546875,-0.9998321533203125,-0.0648193359375,0.0084228515625
1772536281302191400,2.50419140625,-0.996826171875,-0.0626220703125,0.01007080078125
1772536281312240000,2.514240234375,-1.00048828125,-0.0633087158203125,0.0141143798828125
1772536281322288400,2.524288330078125,-1.0049591064453125,-0.066925048828125,0.0134124755859375
1772536281332336000,2.534336181640625,-1.003448486328125,-0.06561279296875,0.0143585205078125
1772536281342385400,2.544385498046875,-1.0011749267578125,-0.0629425048828125,0.01324462890625
1772536281352433200,2.55443310546875,-0.9965057373046875,-0.062469482421875,0.011749267578125
1772536281362482400,2.564482421875,-0.9928741455078125,-0.0622100830078125,0.016510009765625
1772536281372530200,2.5745302734375,-0.998748779296875,-0.06378173828125,0.0209503173828125
1772536281382578200,2.584578125,-1.002655029296875,-0.0661468505859375,0.0205078125
1772536281392627200,2.594627197265625,-1.0004119873046875,-0.0650787353515625,0.0199127197265625
1772536281402675200,2.60467529296875,-1.0016937255859375,-0.063507080078125,0.0183563232421875
1772536281412724200,2.61472412109375,-1.00146484375,-0.06268310546875,0.0146331787109375
1772536281422772200,2.624772216796875,-0.999542236328125,-0.0606689453125,0.0149688720703125
1772536281432820200,2.6348203125,-0.99945068359375,-0.0590362548828125,0.0158233642578125
1772536281442869200,2.644869140625,-1.000762939453125,-0.059173583984375,0.0159454345703125
1772536281452917200,2.654917236328125,-1.00030517578125,-0.0607147216796875,0.0160675048828125
1772536281462966300,2.66496630859375,-0.9997406005859375,-0.0614166259765625,0.01824951171875
1772536281473014000,2.675013916015625,-1.001678466796875,-0.064453125,0.02099609375
1772536281483063300,2.685063232421875,-1.00079345703125,-0.0670623779296875,0.0193328857421875
1772536281493111000,2.695111083984375,-0.998016357421875,-0.0668182373046875,0.0187225341796875
1772536281503159300,2.7051591796875,-1.0009613037109375,-0.06622314453125,0.0183563232421875
1772536281513208000,2.7152080078125,-1.00439453125,-0.0659027099609375,0.01544189453125
1772536281523256300,2.72525634765625,-1.0036163330078125,-0.0643463134765625,0.0157623291015625
1772536281533305000,2.73530517578125,-1.004638671875,-0.06182861328125,0.015960693359375
1772536281543353300,2.745353271484375,-1.006072998046875,-0.0585784912109375,0.0170440673828125
1772536281553401300,2.7554013671875,-1.0059051513671875,-0.0557098388671875,0.017791748046875
1772536281563450400,2.765450439453125,-1.000457763671875,-0.0550994873046875,0.016387939453125
1772536281573498400,2.775498291015625,-0.9986572265625,-0.0544281005859375,0.0186920166015625
1772536281583547100,2.785547119140625,-0.99981689453125,-0.0572967529296875,0.0211944580078125
1772536281593595400,2.795595458984375,-0.9987335205078125,-0.0591888427734375,0.0215911865234375
1772536281603644200,2.80564404296875,-0.994903564453125,-0.0604400634765625,0.0219879150390625
1772536281613692200,2.815692138671875,-0.9965057373046875,-0.061370849609375,0.02288818359375
1772536281623740200,2.825740234375,-1.0050201416015625,-0.06402587890625,0.0227203369140625
1772536281633789200,2.8357890625,-1.005950927734375,-0.064453125,0.0174407958984375
1772536281643837200,2.845837158203125,-0.994476318359375,-0.059417724609375,0.0130767822265625
1772536281653886200,2.85588623046875,-0.997039794921875,-0.05712890625,0.015655517578125
1772536281663934200,2.865934326171875,-1.0055389404296875,-0.0621337890625,0.0182647705078125
1772536281673982200,2.875982177734375,-1.0087432861328125,-0.0646514892578125,0.0205535888671875
1772536281684031200,2.88603125,-1.00830078125,-0.0619354248046875,0.0202484130859375
1772536281694079200,2.896079345703125,-1.0041046142578125,-0.0605621337890625,0.0175933837890625
1772536281704128300,2.906128173828125,-1.0002899169921875,-0.0613861083984375,0.0182647705078125
1772536281714176300,2.91617626953125,-0.9986724853515625,-0.0621490478515625,0.01910400390625
1772536281724225300,2.926225341796875,-0.998443603515625,-0.064727783203125,0.0221710205078125
1772536281734273300,2.936273193359375,-1.0045623779296875,-0.0657806396484375,0.0244903564453125
1772536281744321300,2.9463212890625,-1.0034027099609375,-0.0644683837890625,0.02093505859375
1772536281754370300,2.956370361328125,-0.99658203125,-0.0599365234375,0.018035888671875
1772536281764418000,2.96641796875,-0.9993438720703125,-0.0570526123046875,0.018157958984375
1772536281774467300,2.97646728515625,-0.9998931884765625,-0.0599212646484375,0.0187225341796875
1772536281784515000,2.98651513671875,-0.9975433349609375,-0.0627593994140625,0.019805908203125
1772536281794563300,2.996563232421875,-0.9984588623046875,-0.062652587890625,0.024810791015625
1772536281804612000,3.006612060546875,-1.006103515625,-0.0628509521484375,0.0250244140625
1772536281814660400,3.016660400390625,-1.001556396484375,-0.060699462890625,0.01898193359375
1772536281824709000,3.026709228515625,-0.9974365234375,-0.055572509765625,0.0168304443359375
1772536281834757400,3.03675732421875,-1.0022125244140625,-0.0553131103515625,0.020294189453125
1772536281844806100,3.04680615234375,-1.0043792724609375,-0.0588836669921875,0.019622802734375
1772536281854854400,3.0568544921875,-1.0013275146484375,-0.0601806640625,0.0225830078125
1772536281864902100,3.066902099609375,-1.0054473876953125,-0.060150146484375,0.023529052734375
1772536281874951200,3.076951171875,-1.0040435791015625,-0.062896728515625,0.0201873779296875
1772536281884999200,3.086999267578125,-0.9989013671875,-0.063262939453125,0.018829345703125
1772536281895048200,3.097048095703125,-1.0000152587890625,-0.0625,0.0180816650390625
1772536281905096200,3.10709619140625,-0.9976654052734375,-0.064849853515625,0.0197601318359375
1772536281915145200,3.117145263671875,-0.9981689453125,-0.065216064453125,0.018890380859375
1772536281925193200,3.127193115234375,-0.9979248046875,-0.0643157958984375,0.01861572265625
1772536281935241200,3.1372412109375,-0.9944915771484375,-0.0663604736328125,0.0200042724609375
1772536281945290200,3.147290283203125,-0.9977569580078125,-0.065887451171875,0.02142333984375
1772536281955334700,3.157334716796875,-0.999267578125,-0.064849853515625,0.0218353271484375
1772536281965383700,3.1673837890625,-0.99468994140625,-0.0640869140625,0.0197601318359375
1772536281975431700,3.177431640625,-0.990447998046875,-0.0604705810546875,0.0186767578125
1772536281985479700,3.187479736328125,-0.9955902099609375,-0.0625,0.021820068359375
1772536281995528700,3.19752880859375,-1.0036163330078125,-0.0657501220703125,0.025482177734375
1772536282005576700,3.20757666015625,-1.0055389404296875,-0.0657958984375,0.0263519287109375
1772536282015625700,3.217625732421875,-1.005859375,-0.0637054443359375,0.0257720947265625
1772536282025673700,3.227673828125,-1.0030975341796875,-0.0599212646484375,0.022613525390625
1772536282035721700,3.2377216796875,-1.00128173828125,-0.057952880859375,0.0208892822265625
1772536282045770800,3.247770751953125,-1.001129150390625,-0.0569915771484375,0.0211029052734375
1772536282055818800,3.25781884765625,-0.998321533203125,-0.057647705078125,0.021392822265625
1772536282065867800,3.26786767578125,-0.9990997314453125,-0.0596160888671875,0.022430419921875
1772536282075915500,3.27791552734375,-1.0000152587890625,-0.0612335205078125,0.02349853515625
1772536282085964800,3.28796484375,-1.0001373291015625,-0.0621185302734375,0.024810791015625
1772536282096012500,3.298012451171875,-1.000885009765625,-0.0621185302734375,0.0249786376953125
1772536282106060800,3.308060791015625,-1.0020904541015625,-0.062225341796875,0.02313232421875
1772536282116109600,3.318109619140625,-1.003265380859375,-0.0619049072265625,0.0226287841796875
1772536282126157800,3.32815771484375,-1.0034637451171875,-0.0601654052734375,0.02227783203125
1772536282136206600,3.33820654296875,-1.0054779052734375,-0.057952880859375,0.0226593017578125
1772536282146254800,3.3482548828125,-1.006927490234375,-0.0566864013671875,0.019500732421875
1772536282156303600,3.3583037109375,-1.004791259765625,-0.0544891357421875,0.0205535888671875
1772536282166352000,3.368351806640625,-1.0088043212890625,-0.0517425537109375,0.021240234375
1772536282176399600,3.378399658203125,-1.00738525390625,-0.0522003173828125,0.0203399658203125
1772536282186448600,3.38844873046875,-1.003814697265625,-0.0532684326171875,0.021209716796875
1772536282196496600,3.39849658203125,-1.0037078857421875,-0.052764892578125,0.023193359375
1772536282206545700,3.408545654296875,-1.00140380859375,-0.0547943115234375,0.0223846435546875
1772536282216593700,3.41859375,-0.9983367919921875,-0.058074951171875,0.022796630859375
1772536282226641700,3.4286416015625,-0.99920654296875,-0.0597991943359375,0.023223876953125
1772536282236690700,3.438690673828125,-1.0015106201171875,-0.0637969970703125,0.0245361328125
1772536282246738700,3.44873876953125,-1.000946044921875,-0.06268310546875,0.02239990234375
1772536282256787700,3.45878759765625,-0.9970855712890625,-0.06103515625,0.019378662109375
1772536282266835700,3.468835693359375,-0.9950103759765625,-0.06072998046875,0.0193328857421875
1772536282276884700,3.478884765625,-0.9970855712890625,-0.059722900390625,0.0198516845703125
1772536282286932700,3.4889326171875,-0.9971771240234375,-0.0619964599609375,0.020599365234375
1772536282296980700,3.498980712890625,-0.9984283447265625,-0.0617218017578125,0.023468017578125
1772536282307029800,3.50902978515625,-0.99786376953125,-0.0598602294921875,0.022674560546875
1772536282317077800,3.519077880859375,-0.9964447021484375,-0.058197021484375,0.02093505859375
1772536282327126800,3.529126708984375,-0.9971923828125,-0.0581207275390625,0.021759033203125
1772536282337174500,3.539174560546875,-1.000244140625,-0.057952880859375,0.0218048095703125
1772536282347223800,3.549223876953125,-0.9975433349609375,-0.0576629638671875,0.02239990234375
1772536282357271600,3.559271484375,-0.9987030029296875,-0.058685302734375,0.0243377685546875
1772536282367319600,3.569319580078125,-1.000152587890625,-0.0572052001953125,0.0238189697265625
1772536282377368600,3.57936865234375,-1.0027008056640625,-0.05755615234375,0.02337646484375
1772536282387416600,3.58941650390625,-1.00518798828125,-0.0566864013671875,0.02374267578125
1772536282397465600,3.599465576171875,-1.004669189453125,-0.0563812255859375,0.024139404296875
1772536282407513600,3.609513671875,-1.0033416748046875,-0.0559234619140625,0.02435302734375
1772536282417561900,3.619561767578125,-1.003265380859375,-0.0549468994140625,0.0241241455078125
1772536282427610600,3.629610595703125,-1.004302978515625,-0.0545806884765625,0.0255126953125
1772536282437659000,3.639658935546875,-1.00531005859375,-0.0560150146484375,0.0269775390625
1772536282447707600,3.649707763671875,-1.00714111328125,-0.056304931640625,0.0269012451171875
1772536282457756000,3.659755859375,-1.0092315673828125,-0.0547027587890625,0.0263671875
1772536282467804700,3.6698046875,-1.006683349609375,-0.0540924072265625,0.0258636474609375
1772536282477852700,3.679852783203125,-1.0048828125,-0.0538482666015625,0.0240936279296875
1772536282487900700,3.689900634765625,-1.0047607421875,-0.053192138671875,0.0229339599609375
1772536282497949700,3.69994970703125,-1.0027313232421875,-0.053741455078125,0.0241546630859375
1772536282507997700,3.709997802734375,-1.0034332275390625,-0.055389404296875,0.0263214111328125
1772536282518046700,3.720046630859375,-1.0022125244140625,-0.057464599609375,0.025543212890625
1772536282528094700,3.7300947265625,-1.00042724609375,-0.0560760498046875,0.025238037109375
1772536282538142700,3.740142822265625,-0.99945068359375,-0.0554962158203125,0.0245819091796875
1772536282548191700,3.750191650390625,-0.9992523193359375,-0.056396484375,0.0215911865234375
1772536282558239700,3.76023974609375,-0.9988861083984375,-0.0563507080078125,0.0219879150390625
1772536282568288800,3.770288818359375,-0.9975128173828125,-0.0566558837890625,0.02215576171875
1772536282578336800,3.780336669921875,-0.9979400634765625,-0.0560760498046875,0.0222015380859375
1772536282588385500,3.790385498046875,-0.9995880126953125,-0.0569000244140625,0.023895263671875
1772536282598433800,3.800433837890625,-1.0009002685546875,-0.056365966796875,0.0262451171875
1772536282608481500,3.8104814453125,-0.9971160888671875,-0.055389404296875,0.0237884521484375
1772536282618530800,3.82053076171875,-0.9933319091796875,-0.0543975830078125,0.0218048095703125
1772536282628578600,3.83057861328125,-0.9932403564453125,-0.05511474609375,0.02325439453125
1772536282638627800,3.8406279296875,-0.9944000244140625,-0.0564117431640625,0.0251007080078125
1772536282648675600,3.850675537109375,-0.9971466064453125,-0.05755615234375,0.027587890625
1772536282658724900,3.860724853515625,-0.9990692138671875,-0.0565643310546875,0.0283203125
1772536282668772600,3.870772705078125,-1.0027008056640625,-0.054840087890625,0.0269927978515625
1772536282678820600,3.880820556640625,-1.003875732421875,-0.0520782470703125,0.0261993408203125
1772536282688869600,3.89086962890625,-1.000518798828125,-0.04852294921875,0.0221405029296875
1772536282698917600,3.900917724609375,-1.00048828125,-0.0485382080078125,0.0207977294921875
1772536282708966700,3.910966552734375,-1.002716064453125,-0.0501708984375,0.0221710205078125
1772536282719014700,3.9210146484375,-1.0049591064453125,-0.0525054931640625,0.0243988037109375
1772536282729063000,3.93106298828125,-1.0042266845703125,-0.051910400390625,0.0240325927734375
1772536282739111700,3.941111572265625,-0.9997711181640625,-0.05224609375,0.0227813720703125
1772536282749159700,3.95115966796875,-0.999725341796875,-0.0529022216796875,0.0227813720703125
1772536282759208700,3.961208740234375,-1.0022125244140625,-0.0554351806640625,0.02593994140625
1772536282769256700,3.971256591796875,-1.005828857421875,-0.056304931640625,0.02679443359375
1772536282779305700,3.9813056640625,-1.004608154296875,-0.0550994873046875,0.0235595703125
1772536282789353700,3.991353759765625,-1.0023651123046875,-0.0517425537109375,0.021148681640625
1772536282799401700,4.001401611328125,-0.9988250732421875,-0.0492401123046875,0.0184173583984375
1772536282809450800,4.01145068359375,-1.0004425048828125,-0.0487823486328125,0.019378662109375
1772536282819498800,4.021498779296875,-1.0028076171875,-0.0518646240234375,0.022369384765625
1772536282829547500,4.031547607421875,-1.0037841796875,-0.050537109375,0.0247039794921875
1772536282839595800,4.041595703125,-1.001861572265625,-0.050201416015625,0.024383544921875
1772536282849644500,4.05164453125,-1.0030517578125,-0.0482025146484375,0.02325439453125
1772536282859692500,4.061692626953125,-1.000335693359375,-0.0471954345703125,0.0228729248046875
1772536282869740800,4.07174072265625,-0.9998626708984375,-0.04803466796875,0.0232391357421875
1772536282879789600,4.08178955078125,-1.0019683837890625,-0.0498046875,0.0240936279296875
1772536282889837800,4.091837890625,-1.0032958984375,-0.05218505859375,0.0254669189453125
1772536282899886600,4.101886474609375,-1.002685546875,-0.0518951416015625,0.028045654296875
1772536282909934800,4.111934814453125,-1.0005340576171875,-0.0509796142578125,0.02435302734375
1772536282919983600,4.121983642578125,-0.998626708984375,-0.0506134033203125,0.0223388671875
1772536282930031900,4.132031982421875,-0.9996185302734375,-0.0497589111328125,0.022796630859375
1772536282940079600,4.14207958984375,-1.002410888671875,-0.0509185791015625,0.0231475830078125
1772536282950129000,4.15212890625,-1.00128173828125,-0.05181884765625,0.0223236083984375
1772536282960176600,4.1621767578125,-1.0027008056640625,-0.050537109375,0.02166748046875
1772536282970226000,4.172225830078125,-1.002288818359375,-0.05108642578125,0.017730712890625
1772536282980273700,4.182273681640625,-0.9992828369140625,-0.0522613525390625,0.0186004638671875
1772536282990321700,4.19232177734375,-0.999053955078125,-0.0539398193359375,0.0196380615234375
1772536283000370700,4.20237060546875,-1.0023345947265625,-0.0539703369140625,0.020721435546875
1772536283010418700,4.212418701171875,-1.000030517578125,-0.0540008544921875,0.02203369140625
1772536283020467700,4.2224677734375,-1.001373291015625,-0.0542144775390625,0.021484375
1772536283030515700,4.232515625,-1.00030517578125,-0.0518798828125,0.02264404296875
1772536283040564700,4.242564697265625,-1.0007781982421875,-0.0509796142578125,0.0216217041015625
1772536283050612700,4.25261279296875,-1.00091552734375,-0.0494537353515625,0.02197265625
1772536283060660700,4.26266064453125,-1.00018310546875,-0.0492095947265625,0.0229949951171875
1772536283070709800,4.272709716796875,-1.000274658203125,-0.04901123046875,0.0227813720703125
1772536283080757500,4.282757568359375,-1.0010528564453125,-0.0489044189453125,0.025543212890625
1772536283090806800,4.292806884765625,-0.9991607666015625,-0.04705810546875,0.02294921875
1772536283100854500,4.3028544921875,-1.0004425048828125,-0.046234130859375,0.022064208984375
1772536283110903800,4.31290380859375,-1.0007476806640625,-0.0446929931640625,0.0218505859375
1772536283120951600,4.32295166015625,-1.0003204345703125,-0.0455780029296875,0.0252532958984375
1772536283130999800,4.332999755859375,-1.00311279296875,-0.047088623046875,0.0287322998046875
1772536283141048600,4.343048583984375,-1.0005645751953125,-0.048248291015625,0.02911376953125
1772536283151096800,4.353096923828125,-0.9957733154296875,-0.0473175048828125,0.026123046875
1772536283161145600,4.3631455078125,-0.9950408935546875,-0.049774169921875,0.0229644775390625
1772536283171193900,4.37319384765625,-0.99725341796875,-0.055023193359375,0.021759033203125
1772536283181242600,4.38324267578125,-0.9948883056640625,-0.058929443359375,0.0210418701171875
1772536283191290600,4.39329052734375,-0.995697021484375,-0.0631256103515625,0.022369384765625
1772536283201339000,4.4033388671875,-0.99786376953125,-0.06536865234375,0.0257720947265625
1772536283211387600,4.4133876953125,-1.001251220703125,-0.0648193359375,0.02880859375
1772536283221436000,4.423435791015625,-1.003570556640625,-0.0617828369140625,0.028076171875
1772536283231484700,4.433484619140625,-0.9987640380859375,-0.0565948486328125,0.02398681640625
1772536283241533000,4.443532958984375,-0.993865966796875,-0.051971435546875,0.022125244140625
1772536283251580700,4.45358056640625,-0.9934844970703125,-0.04949951171875,0.0213623046875
1772536283261629700,4.463629638671875,-0.999176025390625,-0.0469818115234375,0.02301025390625
1772536283271677700,4.473677734375,-1.009307861328125,-0.0432891845703125,0.025421142578125
1772536283281726700,4.483726806640625,-1.0100555419921875,-0.044952392578125,0.0169830322265625
1772536283291774700,4.493774658203125,-1.003997802734375,-0.0457763671875,0.0097198486328125
1772536283301823700,4.50382373046875,-0.9997711181640625,-0.0418701171875,0.011444091796875
1772536283311871700,4.513871826171875,-0.99920654296875,-0.0391082763671875,0.0196990966796875
1772536283321919700,4.523919677734375,-1.0008087158203125,-0.03997802734375,0.0272064208984375
1772536283331968800,4.53396875,-1.0055694580078125,-0.040618896484375,0.0283050537109375
1772536283342016800,4.544016845703125,-1.001983642578125,-0.038482666015625,0.02587890625
1772536283352065800,4.554065673828125,-0.9990234375,-0.0340118408203125,0.0277862548828125
1772536283362113800,4.56411376953125,-1.005035400390625,-0.03216552734375,0.03009033203125
1772536283372162800,4.574162841796875,-1.008209228515625,-0.034698486328125,0.033355712890625
1772536283382210800,4.5842109375,-1.006256103515625,-0.0340728759765625,0.0361480712890625
1772536283392258600,4.594258544921875,-1.0074615478515625,-0.0304718017578125,0.035858154296875
1772536283402307800,4.604307861328125,-1.0039825439453125,-0.027496337890625,0.0283050537109375
1772536283412355600,4.61435546875,-0.99761962890625,-0.0271759033203125,0.0206756591796875
1772536283422404900,4.62440478515625,-0.994232177734375,-0.0270538330078125,0.02105712890625
1772536283432452600,4.63445263671875,-0.9933624267578125,-0.0333251953125,0.023193359375
1772536283442502000,4.644501953125,-0.9945220947265625,-0.042510986328125,0.0266265869140625
1772536283452549600,4.654549560546875,-0.99798583984375,-0.046295166015625,0.0301055908203125
1772536283462598000,4.664597900390625,-0.99755859375,-0.0502166748046875,0.0291290283203125
1772536283472646700,4.674646728515625,-0.997467041015625,-0.0526275634765625,0.0295562744140625
1772536283482694700,4.684694580078125,-0.998992919921875,-0.0521392822265625,0.031707763671875
1772536283492743700,4.69474365234375,-0.9980926513671875,-0.0508880615234375,0.033447265625
1772536283502791700,4.704791748046875,-1.0044708251953125,-0.0499267578125,0.033782958984375
1772536283512840700,4.7148408203125,-1.012969970703125,-0.04608154296875,0.0356597900390625
1772536283522888700,4.724888671875,-1.016357421875,-0.043670654296875,0.0342864990234375
1772536283532936700,4.734936767578125,-1.01300048828125,-0.0410003662109375,0.0285186767578125
1772536283542985700,4.74498583984375,-1.017303466796875,-0.0408477783203125,0.0232086181640625
1772536283553033700,4.75503369140625,-1.0174713134765625,-0.042938232421875,0.0174713134765625
1772536283563082800,4.765082763671875,-1.0124664306640625,-0.0474700927734375,0.01568603515625
1772536283573130800,4.775130859375,-1.0112152099609375,-0.050628662109375,0.017059326171875
1772536283583179800,4.7851796875,-1.007415771484375,-0.0538177490234375,0.020965576171875
1772536283593227500,4.7952275390625,-1.0029144287109375,-0.0575103759765625,0.0242156982421875
1772536283603275800,4.80527587890625,-1.0032806396484375,-0.0606231689453125,0.030242919921875
1772536283613324500,4.815324462890625,-1.0050048828125,-0.0614776611328125,0.0333251953125
1772536283623372800,4.825372802734375,-1.00653076171875,-0.0574951171875,0.03369140625
1772536283633421600,4.835421630859375,-1.0051422119140625,-0.05035400390625,0.0303192138671875
1772536283643469800,4.8454697265625,-1.0029754638671875,-0.044403076171875,0.0283203125
1772536283653517800,4.855517822265625,-1.0030670166015625,-0.039398193359375,0.0270538330078125
1772536283663566800,4.86556689453125,-1.0039825439453125,-0.0366363525390625,0.0269927978515625
1772536283673614800,4.87561474609375,-1.0058135986328125,-0.0363311767578125,0.0292205810546875
1772536283683664000,4.885663818359375,-1.006744384765625,-0.035308837890625,0.0281524658203125
1772536283693712000,4.8957119140625,-1.004180908203125,-0.035064697265625,0.0257568359375
1772536283703760600,4.9057607421875,-1.0048065185546875,-0.0338134765625,0.026336669921875
1772536283713809000,4.915808837890625,-1.0058441162109375,-0.033782958984375,0.02484130859375
1772536283723856600,4.925856689453125,-1.0038299560546875,-0.03594970703125,0.0220489501953125
1772536283733906000,4.935906005859375,-1.00421142578125,-0.0373077392578125,0.0229339599609375
1772536283743953700,4.94595361328125,-1.0023193359375,-0.0408935546875,0.0227813720703125
1772536283754002700,4.956002685546875,-1.00262451171875,-0.04425048828125,0.0244293212890625
1772536283764050700,4.96605078125,-1.00457763671875,-0.0456085205078125,0.023651123046875
1772536283774099700,4.976099609375,-1.0019683837890625,-0.0449981689453125,0.0214080810546875
1772536283784147700,4.986147705078125,-1.0007476806640625,-0.0443115234375,0.0220184326171875
1772536283794195700,4.99619580078125,-1.0032196044921875,-0.0451812744140625,0.0225830078125
1772536283804244700,5.00624462890625,-1.0012969970703125,-0.045654296875,0.0232696533203125
1772536283814292700,5.016292724609375,-1.001739501953125,-0.046966552734375,0.0230865478515625
1772536283824341800,5.026341796875,-1.003631591796875,-0.048004150390625,0.023406982421875
1772536283834389800,5.0363896484375,-1.002471923828125,-0.0474090576171875,0.02520751953125
1772536283844438800,5.046438720703125,-1.0042266845703125,-0.04718017578125,0.0254669189453125
1772536283854486800,5.05648681640625,-1.0049896240234375,-0.0452880859375,0.0249481201171875
1772536283864534500,5.066534423828125,-1.0024871826171875,-0.04473876953125,0.0242462158203125
1772536283874583800,5.076583740234375,-1.0037994384765625,-0.0438690185546875,0.02435302734375
1772536283884631600,5.086631591796875,-1.005126953125,-0.0440521240234375,0.0262451171875
1772536283894680800,5.096680908203125,-1.00433349609375,-0.044708251953125,0.025054931640625
1772536283904728600,5.106728515625,-1.0052490234375,-0.045074462890625,0.02679443359375
1772536283914777900,5.11677783203125,-1.0044403076171875,-0.0446319580078125,0.026702880859375
1772536283924825600,5.12682568359375,-1.002960205078125,-0.043304443359375,0.0264739990234375
1772536283934873900,5.136873779296875,-1.003631591796875,-0.0440521240234375,0.0268707275390625
1772536283944922600,5.146922607421875,-1.001922607421875,-0.04443359375,0.0259246826171875
1772536283954971000,5.156970947265625,-1.0037384033203125,-0.0452728271484375,0.0255584716796875
1772536283965019600,5.16701953125,-1.0040740966796875,-0.045074462890625,0.0265350341796875
1772536283975068000,5.17706787109375,-1.0016326904296875,-0.047119140625,0.0231475830078125
1772536283985116700,5.18711669921875,-1.0011138916015625,-0.0478973388671875,0.020233154296875
1772536283995165000,5.1971650390625,-0.998870849609375,-0.04888916015625,0.0188751220703125
1772536284005212700,5.207212646484375,-0.9967803955078125,-0.047943115234375,0.0198516845703125
1772536284015262000,5.217261962890625,-0.9952239990234375,-0.047393798828125,0.02197265625
1772536284025309700,5.227309814453125,-0.996337890625,-0.049102783203125,0.0207366943359375
1772536284035359000,5.23735888671875,-0.9955902099609375,-0.048553466796875,0.019195556640625
1772536284045406700,5.24740673828125,-0.9965057373046875,-0.0479736328125,0.018585205078125
1772536284055456000,5.2574560546875,-0.993194580078125,-0.0470428466796875,0.016754150390625
1772536284065503700,5.267503662109375,-0.9898529052734375,-0.048065185546875,0.0190277099609375
1772536284075551700,5.2775517578125,-0.999725341796875,-0.0507049560546875,0.0235748291015625
1772536284085600800,5.287600830078125,-1.00537109375,-0.0528411865234375,0.0265350341796875
1772536284095648800,5.297648681640625,-1.002197265625,-0.052215576171875,0.025665283203125
1772536284105697800,5.30769775390625,-1.000518798828125,-0.0515899658203125,0.023101806640625
1772536284115745800,5.317745849609375,-1.00531005859375,-0.051666259765625,0.02734375
1772536284125794000,5.3277939453125,-1.0069427490234375,-0.0533599853515625,0.0275115966796875
1772536284135842800,5.3378427734375,-1.0048065185546875,-0.0540008544921875,0.0260009765625
1772536284145890800,5.347890869140625,-1.0036163330078125,-0.054229736328125,0.028564453125
1772536284155939800,5.35793994140625,-1.005157470703125,-0.05413818359375,0.0313720703125
1772536284165987800,5.36798779296875,-1.00396728515625,-0.0529632568359375,0.0316619873046875
1772536284176036900,5.378036865234375,-1.0010528564453125,-0.0520477294921875,0.0310821533203125
1772536284186084900,5.3880849609375,-1.00250244140625,-0.05316162109375,0.0326080322265625
1772536284196132900,5.3981328125,-1.0030670166015625,-0.0543975830078125,0.031494140625
1772536284206182000,5.408181884765625,-1.001495361328125,-0.0566558837890625,0.03131103515625
1772536284216230000,5.41822998046875,-1.0005035400390625,-0.0553436279296875,0.029937744140625
1772536284226278700,5.428278564453125,-1.0005950927734375,-0.054595947265625,0.0285797119140625
1772536284236327000,5.438326904296875,-1.0004119873046875,-0.0558929443359375,0.0267791748046875
1772536284246375000,5.448375,-1.002838134765625,-0.055755615234375,0.025665283203125
1772536284256423700,5.458423583984375,-1.0050048828125,-0.054046630859375,0.02667236328125
1772536284266472000,5.468471923828125,-1.00177001953125,-0.0520782470703125,0.0251007080078125
1772536284276520700,5.478520751953125,-1.0000457763671875,-0.0506744384765625,0.0247650146484375
1772536284286569000,5.48856884765625,-0.9983978271484375,-0.05029296875,0.0249786376953125
1772536284296617700,5.49861767578125,-0.9965972900390625,-0.05194091796875,0.0259246826171875
1772536284306666000,5.508666015625,-0.9978485107421875,-0.053802490234375,0.02850341796875
1772536284316714800,5.51871484375,-0.996978759765625,-0.0550079345703125,0.029632568359375
1772536284326763000,5.528762939453125,-0.9990692138671875,-0.0546417236328125,0.0300750732421875
1772536284336810800,5.538810791015625,-1.0021820068359375,-0.052581787109375,0.0313720703125
1772536284346860000,5.548860107421875,-1.000457763671875,-0.0506439208984375,0.0308685302734375
1772536284356907800,5.55890771484375,-0.99908447265625,-0.0481719970703125,0.029083251953125
1772536284366956800,5.568956787109375,-1.0011138916015625,-0.047698974609375,0.02862548828125
1772536284377004800,5.5790048828125,-1.00250244140625,-0.04931640625,0.0297698974609375
1772536284387052800,5.589052734375,-1.00286865234375,-0.0518646240234375,0.0304412841796875
1772536284397101800,5.599101806640625,-1.00372314453125,-0.05230712890625,0.0319061279296875
1772536284407149800,5.60914990234375,-1.0014190673828125,-0.0533294677734375,0.0310516357421875
1772536284417198800,5.61919873046875,-0.998809814453125,-0.053741455078125,0.0306549072265625
1772536284427246800,5.629246826171875,-1.0016326904296875,-0.0548248291015625,0.0313720703125
1772536284437295900,5.6392958984375,-1.0021514892578125,-0.0547943115234375,0.03173828125
1772536284447343900,5.64934375,-1.0027008056640625,-0.055755615234375,0.033172607421875
1772536284457391600,5.6593916015625,-1.0030364990234375,-0.054901123046875,0.0327301025390625
1772536284467441000,5.66944091796875,-1.003448486328125,-0.054412841796875,0.0303802490234375
1772536284477488600,5.679488525390625,-1.0068511962890625,-0.0522613525390625,0.0307769775390625
1772536284487538000,5.689537841796875,-1.0069732666015625,-0.0516510009765625,0.0293731689453125
1772536284497585700,5.699585693359375,-1.002105712890625,-0.0517120361328125,0.0279693603515625
1772536284507635000,5.709635009765625,-1.0021514892578125,-0.0520477294921875,0.0292205810546875
1772536284517682700,5.7196826171875,-1.002532958984375,-0.0527801513671875,0.03009033203125
1772536284527730700,5.729730712890625,-1.0001220703125,-0.053314208984375,0.02862548828125
1772536284537779700,5.73977978515625,-0.9997100830078125,-0.05255126953125,0.0299530029296875
1772536284547827700,5.74982763671875,-1.0016632080078125,-0.052001953125,0.028350830078125
1772536284557876700,5.759876708984375,-1.003143310546875,-0.0511016845703125,0.027496337890625
1772536284567924700,5.7699248046875,-1.0032196044921875,-0.0491790771484375,0.0266571044921875
1772536284577973800,5.779973876953125,-1.002105712890625,-0.0467071533203125,0.025360107421875
1772536284588021800,5.790021728515625,-1.0023345947265625,-0.04669189453125,0.025634765625
1772536284598070000,5.800070068359375,-1.0028228759765625,-0.04888916015625,0.026611328125
1772536284608118800,5.810118896484375,-1.00103759765625,-0.05035400390625,0.0267486572265625
1772536284618167000,5.8201669921875,-1.0019378662109375,-0.0508880615234375,0.0302734375
1772536284628215800,5.8302158203125,-1.001739501953125,-0.0534210205078125,0.0301361083984375
1772536284638263800,5.840263916015625,-0.9967041015625,-0.0543365478515625,0.0286712646484375
1772536284648312800,5.850312744140625,-0.9952392578125,-0.054046630859375,0.028900146484375
1772536284658360800,5.86036083984375,-0.998382568359375,-0.0558624267578125,0.029754638671875
1772536284668408800,5.870408935546875,-1.000518798828125,-0.0570220947265625,0.029327392578125
1772536284678457900,5.880457763671875,-0.9979095458984375,-0.0556640625,0.028411865234375
1772536284688505900,5.890505859375,-0.998016357421875,-0.0538482666015625,0.0272216796875
1772536284698555000,5.900554931640625,-0.9992523193359375,-0.0522613525390625,0.0253143310546875
1772536284708603000,5.910602783203125,-0.99932861328125,-0.0511474609375,0.0234527587890625
1772536284718651600,5.920651611328125,-1.000335693359375,-0.0526580810546875,0.0260467529296875
1772536284728700000,5.930699951171875,-1.0043182373046875,-0.0538177490234375,0.0269622802734375
1772536284738748000,5.940747802734375,-1.004119873046875,-0.0550689697265625,0.02880859375
1772536284748796700,5.950796630859375,-1.002349853515625,-0.053680419921875,0.0289764404296875
1772536284758845000,5.960844970703125,-1.0007781982421875,-0.052215576171875,0.0269775390625
1772536284768893700,5.970893798828125,-0.9994659423828125,-0.051300048828125,0.026824951171875
1772536284778942000,5.98094189453125,-1.0017547607421875,-0.052642822265625,0.0279083251953125
1772536284788990700,5.99099072265625,-1.0015411376953125,-0.053192138671875,0.02838134765625
1772536284799039000,6.0010390625,-1.001190185546875,-0.0507659912109375,0.0273895263671875
1772536284809087700,6.011087646484375,-1.0011444091796875,-0.04949951171875,0.0265350341796875
1772536284819136000,6.021135986328125,-1.0018157958984375,-0.0511627197265625,0.02679443359375
1772536284829183700,6.031183837890625,-1.001678466796875,-0.0505218505859375,0.0276031494140625
1772536284839233000,6.04123291015625,-1.0021209716796875,-0.0515594482421875,0.028411865234375
1772536284849280800,6.05128076171875,-1.005035400390625,-0.052490234375,0.0288238525390625
1772536284859329800,6.061329833984375,-1.0027313232421875,-0.0531158447265625,0.026611328125
1772536284869377800,6.071377685546875,-1.001617431640625,-0.05291748046875,0.02362060546875
1772536284879426800,6.0814267578125,-1.002410888671875,-0.052642822265625,0.0243072509765625
1772536284889474800,6.091474853515625,-1.0031890869140625,-0.05267333984375,0.0250091552734375
1772536284899522800,6.101522705078125,-1.0047607421875,-0.0514678955078125,0.0250396728515625
1772536284909571800,6.11157177734375,-1.0049896240234375,-0.0512847900390625,0.0256500244140625
1772536284919619800,6.121619873046875,-1.0010833740234375,-0.0513458251953125,0.026123046875
1772536284929668900,6.1316689453125,-1.00146484375,-0.049224853515625,0.027984619140625
1772536284939716900,6.141716796875,-1.0010223388671875,-0.0503082275390625,0.02880859375
1772536284949766000,6.151765869140625,-0.997833251953125,-0.05047607421875,0.03106689453125
1772536284959813600,6.161813720703125,-1.0011749267578125,-0.0503997802734375,0.03253173828125
1772536284969861600,6.171861572265625,-1.0030670166015625,-0.04888916015625,0.0312042236328125
1772536284979910400,6.181910400390625,-1.001220703125,-0.0471649169921875,0.0312652587890625
1772536284989958400,6.19195849609375,-1.00177001953125,-0.0478057861328125,0.0312652587890625
1772536285000007400,6.20200732421875,-1.0029144287109375,-0.048980712890625,0.0325775146484375
1772536285010055400,6.212055419921875,-1.00201416015625,-0.0513153076171875,0.035003662109375
1772536285020104400,6.2221044921875,-0.9995880126953125,-0.05328369140625,0.03533935546875
1772536285030152400,6.23215234375,-1.0006866455078125,-0.0555572509765625,0.03570556640625
1772536285040200400,6.242200439453125,-1,-0.0567626953125,0.037139892578125
1772536285050249500,6.25224951171875,-0.99798583984375,-0.05682373046875,0.034271240234375
1772536285060297500,6.26229736328125,-0.9981231689453125,-0.0543365478515625,0.032745361328125
1772536285070346500,6.272346435546875,-0.9982452392578125,-0.0542449951171875,0.0313720703125
1772536285080394500,6.28239453125,-1.0002899169921875,-0.05548095703125,0.0327606201171875
1772536285090443300,6.292443359375,-0.999725341796875,-0.055389404296875,0.033935546875
1772536285100491500,6.302491455078125,-0.997833251953125,-0.0556793212890625,0.0358428955078125
1772536285110539500,6.31253955078125,-0.9995269775390625,-0.055511474609375,0.0374298095703125
1772536285120588500,6.322588623046875,-1.0013580322265625,-0.054901123046875,0.0364532470703125
1772536285130636500,6.332636474609375,-0.999237060546875,-0.0537109375,0.0367584228515625
1772536285140685600,6.342685546875,-1.0009613037109375,-0.05029296875,0.0374603271484375
1772536285150733600,6.352733642578125,-1.0063018798828125,-0.04998779296875,0.0348968505859375
1772536285160782600,6.362782470703125,-1.0049285888671875,-0.0473785400390625,0.0336456298828125
1772536285170830600,6.37283056640625,-1.007476806640625,-0.0460662841796875,0.031707763671875
1772536285180878300,6.38287841796875,-1.0093994140625,-0.0463714599609375,0.0314178466796875
1772536285190927600,6.392927734375,-1.00665283203125,-0.0467376708984375,0.0328216552734375
1772536285200975400,6.402975341796875,-1.004241943359375,-0.04608154296875,0.0336456298828125
1772536285211024600,6.413024658203125,-1.005950927734375,-0.0484619140625,0.03271484375
1772536285221072400,6.423072265625,-1.003631591796875,-0.049468994140625,0.032470703125
1772536285231121700,6.43312158203125,-1.0012664794921875,-0.0495758056640625,0.0345001220703125
1772536285241169400,6.44316943359375,-1.002288818359375,-0.0525360107421875,0.03350830078125
1772536285251217400,6.453217529296875,-0.9999237060546875,-0.0535888671875,0.0347747802734375
1772536285261266400,6.463266357421875,-0.9976654052734375,-0.0540313720703125,0.033599853515625
1772536285271314400,6.473314453125,-0.9991607666015625,-0.0535888671875,0.03216552734375
1772536285281363500,6.483363525390625,-0.9974822998046875,-0.052947998046875,0.0313568115234375
1772536285291411500,6.493411376953125,-0.9971923828125,-0.0531463623046875,0.0336456298828125
1772536285301460500,6.50346044921875,-1.0000457763671875,-0.05426025390625,0.0306396484375
1772536285311508500,6.513508544921875,-0.99725341796875,-0.0531158447265625,0.0294342041015625
1772536285321556500,6.523556396484375,-0.9964141845703125,-0.0528106689453125,0.0335235595703125
1772536285331605500,6.53360546875,-1.0029144287109375,-0.05389404296875,0.0362548828125
1772536285341653500,6.543653564453125,-1.0044403076171875,-0.0516357421875,0.033721923828125
1772536285351702500,6.55370263671875,-0.9973907470703125,-0.0481719970703125,0.031097412109375
1772536285361750300,6.563750244140625,-0.996124267578125,-0.0456085205078125,0.0305023193359375
1772536285371799600,6.573799560546875,-0.9986724853515625,-0.04791259765625,0.0327301025390625
1772536285381847300,6.583847412109375,-1.001220703125,-0.050384521484375,0.0351409912109375
1772536285391895600,6.5938955078125,-1.0042877197265625,-0.05157470703125,0.038116455078125
1772536285401944300,6.6039443359375,-1.0053558349609375,-0.05133056640625,0.0370941162109375
1772536285411992600,6.61399267578125,-1.002105712890625,-0.049072265625,0.033599853515625
1772536285422041300,6.624041259765625,-1.0022735595703125,-0.047454833984375,0.0332183837890625
1772536285432089600,6.634089599609375,-1.0029754638671875,-0.0462493896484375,0.031005859375
1772536285442138400,6.644138427734375,-1.0015716552734375,-0.04638671875,0.0299072265625
1772536285452186600,6.6541865234375,-1.003814697265625,-0.04779052734375,0.0321807861328125
1772536285462234600,6.664234619140625,-1.0069732666015625,-0.0485382080078125,0.032562255859375
1772536285472283400,6.674283447265625,-1.001983642578125,-0.0490570068359375,0.032012939453125
1772536285482331400,6.684331298828125,-1.000335693359375,-0.050262451171875,0.0341796875
1772536285492380400,6.69438037109375,-1.0016021728515625,-0.0528717041015625,0.0353546142578125
1772536285502428400,6.704428466796875,-1.0005950927734375,-0.054443359375,0.038238525390625
1772536285512477400,6.7144775390625,-1.0023345947265625,-0.054351806640625,0.0372772216796875
1772536285522525400,6.724525390625,-0.999542236328125,-0.05340576171875,0.0325164794921875
1772536285532574500,6.734574462890625,-0.9971160888671875,-0.0513916015625,0.0324249267578125
1772536285542622500,6.74462255859375,-1.000396728515625,-0.051055908203125,0.030364990234375
1772536285552670500,6.75467041015625,-1.0025177001953125,-0.0513916015625,0.032989501953125
1772536285562719500,6.764719482421875,-1.0055389404296875,-0.048431396484375,0.034698486328125
1772536285572767500,6.774767578125,-1.0078125,-0.04541015625,0.0338592529296875
1772536285582816500,6.78481640625,-1.004791259765625,-0.0425872802734375,0.03369140625
1772536285592864500,6.794864501953125,-1.00616455078125,-0.0396575927734375,0.033294677734375
1772536285602913300,6.804913330078125,-1.006011962890625,-0.038848876953125,0.0352020263671875
1772536285612961500,6.81496142578125,-1.0025634765625,-0.04083251953125,0.0378875732421875
1772536285623009500,6.825009521484375,-1.002349853515625,-0.043609619140625,0.039642333984375
1772536285633058600,6.83505859375,-1.0054473876953125,-0.045745849609375,0.0423583984375
1772536285643106600,6.8451064453125,-1.003509521484375,-0.04669189453125,0.041229248046875
1772536285653155600,6.855155517578125,-1.0005035400390625,-0.046478271484375,0.037689208984375
1772536285663203600,6.86520361328125,-0.9990081787109375,-0.0465850830078125,0.035125732421875
1772536285673252600,6.875252685546875,-1.0003204345703125,-0.048492431640625,0.034515380859375
1772536285683300600,6.885300537109375,-1.0009918212890625,-0.0501251220703125,0.03472900390625
1772536285693348400,6.895348388671875,-1.000640869140625,-0.05108642578125,0.03363037109375
1772536285703397600,6.905397705078125,-1.0022430419921875,-0.0535125732421875,0.0321502685546875
1772536285713445400,6.9154453125,-1.003204345703125,-0.0531158447265625,0.031036376953125
1772536285723494700,6.92549462890625,-1.00054931640625,-0.0533905029296875,0.0314483642578125
1772536285733542400,6.93554248046875,-0.9992828369140625,-0.0529937744140625,0.0328216552734375
1772536285743591400,6.94559130859375,-1.0009765625,-0.052459716796875,0.032196044921875
1772536285753639400,6.955639404296875,-1.0007171630859375,-0.051666259765625,0.0316619873046875
1772536285763687400,6.9656875,-0.9999237060546875,-0.0504608154296875,0.0361785888671875
1772536285773736400,6.975736328125,-1.0021820068359375,-0.0490875244140625,0.0366973876953125
1772536285783784400,6.985784423828125,-1.00201416015625,-0.047210693359375,0.035430908203125
1772536285793833500,6.99583349609375,-0.9997100830078125,-0.0453033447265625,0.0368499755859375
1772536285803881500,7.005881591796875,-1.0032958984375,-0.0454254150390625,0.0375823974609375
1772536285813930500,7.015930419921875,-1.0035247802734375,-0.0444793701171875,0.0370330810546875
1772536285823978500,7.025978515625,-1.0028839111328125,-0.0447845458984375,0.036102294921875
1772536285834026500,7.036026611328125,-1.0046844482421875,-0.046051025390625,0.0377044677734375
1772536285844075500,7.046075439453125,-1.0052947998046875,-0.046142578125,0.0367584228515625
1772536285854123500,7.05612353515625,-1.0026702880859375,-0.0471954345703125,0.034698486328125
1772536285864172500,7.066172607421875,-1.0007171630859375,-0.0474700927734375,0.035247802734375
1772536285874220300,7.07622021484375,-1.004241943359375,-0.05059814453125,0.0352630615234375
1772536285884269600,7.08626953125,-1.0029296875,-0.051971435546875,0.0352325439453125
1772536285894317300,7.0963173828125,-1.00274658203125,-0.0528564453125,0.0345001220703125
1772536285904365600,7.106365478515625,-1.0008392333984375,-0.053436279296875,0.032745361328125
1772536285914414300,7.116414306640625,-0.997833251953125,-0.054290771484375,0.032073974609375
1772536285924462600,7.126462646484375,-0.9977569580078125,-0.0542755126953125,0.033477783203125
1772536285934511400,7.136511474609375,-1.000213623046875,-0.053680419921875,0.0331878662109375
1772536285944559600,7.1465595703125,-1.0015106201171875,-0.0531463623046875,0.0333251953125
1772536285954608400,7.1566083984375,-0.9998016357421875,-0.051177978515625,0.03485107421875
1772536285964656600,7.16665673828125,-1.0005035400390625,-0.0480804443359375,0.0337066650390625
1772536285974704400,7.176704345703125,-0.9990234375,-0.047027587890625,0.036895751953125
1772536285984753700,7.186753662109375,-1.0012969970703125,-0.04718017578125,0.038726806640625
1772536285994801400,7.196801513671875,-1.001251220703125,-0.047210693359375,0.0369415283203125
1772536286004850700,7.2068505859375,-0.9995574951171875,-0.046661376953125,0.0360107421875
1772536286014898400,7.2168984375,-1.0007476806640625,-0.0466766357421875,0.0358428955078125
1772536286024947700,7.22694775390625,-0.9998779296875,-0.04681396484375,0.0348358154296875
1772536286034995500,7.236995361328125,-0.9993133544921875,-0.04730224609375,0.0349273681640625
1772536286045043500,7.24704345703125,-1.0022735595703125,-0.0483551025390625,0.036590576171875
1772536286055092500,7.257092529296875,-1.0062408447265625,-0.0493621826171875,0.03369140625
1772536286065140500,7.267140380859375,-1.004119873046875,-0.0492095947265625,0.0323944091796875
1772536286075189500,7.277189453125,-1.004791259765625,-0.04766845703125,0.0321044921875
1772536286085237500,7.287237548828125,-1.0037994384765625,-0.0475921630859375,0.0307464599609375
1772536286095286500,7.29728662109375,-1.001251220703125,-0.0494232177734375,0.03094482421875
1772536286105334500,7.30733447265625,-1.002288818359375,-0.050872802734375,0.031982421875
1772536286115382800,7.3173828125,-1.001861572265625,-0.052276611328125,0.033447265625
1772536286125431600,7.327431640625,-0.9997711181640625,-0.05364990234375,0.03436279296875
1772536286135479600,7.3374794921875,-0.999969482421875,-0.0536346435546875,0.0361785888671875
1772536286145528600,7.347528564453125,-0.9976348876953125,-0.0531768798828125,0.0355682373046875
1772536286155576600,7.35757666015625,-0.99871826171875,-0.051300048828125,0.03436279296875
1772536286165625600,7.36762548828125,-1.00042724609375,-0.0507659912109375,0.03326416015625
1772536286175673600,7.377673583984375,-1.0010223388671875,-0.0496978759765625,0.0322265625
1772536286185722600,7.38772265625,-1.0014190673828125,-0.0472412109375,0.0323486328125
1772536286195770600,7.3977705078125,-1.0024566650390625,-0.046783447265625,0.0302734375
1772536286205818600,7.407818603515625,-1.0021820068359375,-0.0469818115234375,0.0299224853515625
1772536286215867400,7.417867431640625,-1.006744384765625,-0.0452117919921875,0.0325927734375
1772536286225915600,7.42791552734375,-1.0095977783203125,-0.0457305908203125,0.0310516357421875
1772536286235964400,7.43796435546875,-1.0037994384765625,-0.0456390380859375,0.030426025390625
1772536286246012400,7.448012451171875,-1.00299072265625,-0.0437774658203125,0.0308074951171875
1772536286256061400,7.4580615234375,-1.0023651123046875,-0.0452117919921875,0.0315093994140625
1772536286266109400,7.468109375,-1.0005645751953125,-0.0477142333984375,0.033416748046875
1772536286276157700,7.47815771484375,-1.0008697509765625,-0.049102783203125,0.0333099365234375
1772536286286206500,7.48820654296875,-0.9984893798828125,-0.049774169921875,0.0346832275390625
1772536286296254700,7.498254638671875,-1.0001678466796875,-0.0502166748046875,0.0370941162109375
1772536286306303500,7.508303466796875,-0.99810791015625,-0.050506591796875,0.034881591796875
1772536286316351700,7.518351806640625,-0.99652099609375,-0.0512542724609375,0.0348968505859375
1772536286326400500,7.528400390625,-0.9992523193359375,-0.051422119140625,0.0345001220703125
1772536286336448800,7.53844873046875,-0.99932861328125,-0.0524444580078125,0.0327301025390625
1772536286346496500,7.54849658203125,-1.0019683837890625,-0.0527496337890625,0.03411865234375
1772536286356545500,7.558545654296875,-1.0040435791015625,-0.0531005859375,0.0316009521484375
1772536286366593500,7.568593505859375,-1.0013275146484375,-0.0522308349609375,0.0296478271484375
1772536286376642600,7.578642578125,-1.0019378662109375,-0.052154541015625,0.0292510986328125
1772536286386690600,7.588690673828125,-1.0031890869140625,-0.0541534423828125,0.030517578125
1772536286396739600,7.598739501953125,-1.0032958984375,-0.055023193359375,0.030609130859375
1772536286406787600,7.60878759765625,-1.0011444091796875,-0.0544586181640625,0.0290374755859375
1772536286416836600,7.618836669921875,-1.0027618408203125,-0.0540313720703125,0.0297393798828125
1772536286426884600,7.628884521484375,-1.004669189453125,-0.0538330078125,0.030029296875
1772536286436932600,7.6389326171875,-1.0032806396484375,-0.0525360107421875,0.02996826171875
1772536286446981600,7.648981689453125,-0.999298095703125,-0.0503997802734375,0.0291900634765625
1772536286457029600,7.659029541015625,-1.00146484375,-0.049652099609375,0.0294189453125
1772536286467078400,7.669078369140625,-1.003875732421875,-0.049041748046875,0.03106689453125
1772536286477126700,7.679126708984375,-1.0027618408203125,-0.0479278564453125,0.03125
1772536286487175400,7.689175537109375,-1.000396728515625,-0.046600341796875,0.0335693359375
1772536286497223700,7.6992236328125,-1.0026092529296875,-0.0440826416015625,0.03326416015625
1772536286507271400,7.709271484375,-1.0018463134765625,-0.0460357666015625,0.033050537109375
1772536286517320700,7.71932080078125,-1.0014190673828125,-0.0452728271484375,0.0345458984375
1772536286527368400,7.729368408203125,-1.000213623046875,-0.046783447265625,0.033935546875
1772536286537417700,7.739417724609375,-0.99969482421875,-0.0484771728515625,0.0330657958984375
1772536286547465500,7.749465576171875,-1.0016021728515625,-0.0502777099609375,0.03369140625
1772536286557514800,7.7595146484375,-1.0018310546875,-0.051116943359375,0.03179931640625
1772536286567562500,7.7695625,-0.999359130859375,-0.050018310546875,0.030487060546875
1772536286577610500,7.779610595703125,-1.00140380859375,-0.0498046875,0.030029296875
1772536286587659500,7.789659423828125,-1.000091552734375,-0.0512847900390625,0.0300750732421875
1772536286597707500,7.79970751953125,-0.9995880126953125,-0.050994873046875,0.0326385498046875
1772536286607756500,7.809756591796875,-1.00213623046875,-0.05029296875,0.0329437255859375
1772536286617804500,7.819804443359375,-1.00042724609375,-0.050506591796875,0.0333099365234375
1772536286627853600,7.829853515625,-1.0001373291015625,-0.049072265625,0.03253173828125
1772536286637901600,7.839901611328125,-1.0027008056640625,-0.047943115234375,0.0318756103515625
1772536286647949600,7.849949462890625,-1.0002899169921875,-0.0467376708984375,0.030853271484375
1772536286657998600,7.85999853515625,-1.0002593994140625,-0.046600341796875,0.0311431884765625
1772536286668046600,7.870046630859375,-1.0037994384765625,-0.0489959716796875,0.03192138671875
1772536286678095600,7.880095703125,-1.0051422119140625,-0.049835205078125,0.036468505859375
1772536286688143600,7.8901435546875,-1.00469970703125,-0.0476837158203125,0.03521728515625
1772536286698192600,7.900192626953125,-1.0015106201171875,-0.044769287109375,0.032867431640625
1772536286708240400,7.910240478515625,-1.000885009765625,-0.0419158935546875,0.033447265625
1772536286718289700,7.92028955078125,-1.0025634765625,-0.041778564453125,0.03472900390625
1772536286728337400,7.93033740234375,-0.999847412109375,-0.042449951171875,0.0342864990234375
1772536286738385700,7.9403857421875,-1.0001373291015625,-0.043731689453125,0.032318115234375
1772536286748434400,7.950434326171875,-0.999847412109375,-0.0460205078125,0.031982421875
1772536286758482400,7.960482421875,-0.9981689453125,-0.04742431640625,0.0329132080078125
1772536286768531500,7.970531494140625,-0.9978485107421875,-0.0506439208984375,0.0337371826171875
1772536286778579500,7.980579345703125,-1.000274658203125,-0.053253173828125,0.03314208984375
1772536286788628500,7.99062841796875,-0.9997100830078125,-0.0540618896484375,0.031158447265625
1772536286798676500,8.000676513671875,-1.0007171630859375,-0.0507049560546875,0.030487060546875
1772536286808724700,8.010724853515624,-1.00360107421875,-0.0473480224609375,0.029388427734375
1772536286818773500,8.0207734375,-1.0018157958984375,-0.048431396484375,0.0244293212890625
1772536286828821800,8.03082177734375,-1.0017852783203125,-0.046478271484375,0.02813720703125
1772536286838870500,8.04087060546875,-1.007904052734375,-0.0466461181640625,0.0303955078125
1772536286848918800,8.050918701171875,-1.0098419189453125,-0.0465240478515625,0.0309906005859375
1772536286858967600,8.060967529296875,-1.0057525634765625,-0.04461669921875,0.0319366455078125
1772536286869015600,8.071015625,-1.003448486328125,-0.04248046875,0.03118896484375
1772536286879063600,8.0810634765625,-1.003387451171875,-0.0426483154296875,0.032379150390625
1772536286889112600,8.091112548828125,-1.0032958984375,-0.0439605712890625,0.03369140625
1772536286899160600,8.10116064453125,-1.0007476806640625,-0.044708251953125,0.03558349609375
1772536286909209600,8.111209716796875,-1.002838134765625,-0.0464019775390625,0.0360107421875
1772536286919257600,8.121257568359376,-1.004364013671875,-0.0472869873046875,0.035247802734375
1772536286929306600,8.131306640625,-1.001922607421875,-0.0465850830078125,0.03314208984375
1772536286939354600,8.141354736328125,-0.999969482421875,-0.0467376708984375,0.03314208984375
1772536286949402600,8.151402587890624,-1.000244140625,-0.0485992431640625,0.032318115234375
1772536286959451600,8.16145166015625,-1.0003662109375,-0.0507354736328125,0.030487060546875
1772536286969499400,8.17149951171875,-0.999176025390625,-0.050994873046875,0.0305023193359375
1772536286979548400,8.18154833984375,-1.00286865234375,-0.0511474609375,0.03173828125
1772536286989596400,8.191596435546876,-1.0023651123046875,-0.051300048828125,0.029754638671875
1772536286999645400,8.2016455078125,-0.998046875,-0.0507354736328125,0.030792236328125
1772536287009693400,8.211693359375,-0.998016357421875,-0.0498046875,0.033172607421875
1772536287019742500,8.221742431640624,-1.0001373291015625,-0.0524444580078125,0.03497314453125
1772536287029790500,8.23179052734375,-0.998779296875,-0.0520477294921875,0.0360260009765625
1772536287039838500,8.24183837890625,-1.000213623046875,-0.0520477294921875,0.0382080078125
1772536287049887500,8.251887451171875,-1.0000762939453125,-0.050933837890625,0.0365447998046875
1772536287059935200,8.261935302734376,-0.9995574951171875,-0.048492431640625,0.0356292724609375
1772536287069984500,8.271984619140625,-1.0002288818359375,-0.0476531982421875,0.0359344482421875
1772536287080032300,8.2820322265625,-1.0037994384765625,-0.046051025390625,0.0379791259765625
1772536287090081500,8.29208154296875,-1.00640869140625,-0.0457305908203125,0.03570556640625
1772536287100129300,8.30212939453125,-1.0037384033203125,-0.044525146484375,0.0345611572265625
1772536287110177500,8.312177490234374,-1.0039825439453125,-0.0425567626953125,0.0361480712890625
1772536287120226300,8.322226318359375,-1.0079498291015625,-0.044036865234375,0.0351409912109375
1772536287130274600,8.332274658203126,-1.005645751953125,-0.044158935546875,0.033477783203125
1772536287140323300,8.3423232421875,-1.003662109375,-0.0438995361328125,0.0341644287109375
1772536287150371600,8.35237158203125,-1.0067901611328125,-0.0464324951171875,0.034759521484375
1772536287160420400,8.36242041015625,-1.00634765625,-0.0488433837890625,0.03369140625
1772536287170468400,8.37246826171875,-1.0008697509765625,-0.0502471923828125,0.032073974609375
1772536287180516600,8.3825166015625,-1.000091552734375,-0.051177978515625,0.03204345703125
1772536287190565400,8.3925654296875,-1.0059051513671875,-0.0537109375,0.0344696044921875
1772536287200613400,8.40261328125,-0.9998931884765625,-0.0538330078125,0.030181884765625
1772536287210662400,8.412662353515625,-0.9930572509765625,-0.0500640869140625,0.0302886962890625
1772536287220710400,8.42271044921875,-0.999359130859375,-0.0495147705078125,0.032684326171875
1772536287230759400,8.432759521484375,-1.0003509521484375,-0.052398681640625,0.0341644287109375
1772536287240807400,8.442807373046875,-0.9979400634765625,-0.051239013671875,0.034912109375
1772536287250856400,8.4528564453125,-0.997650146484375,-0.050323486328125,0.0338592529296875
1772536287260904400,8.462904541015625,-0.99786376953125,-0.0509185791015625,0.034210205078125
1772536287270952400,8.472952392578126,-0.9954833984375,-0.0497894287109375,0.0349273681640625
1772536287281001200,8.483001220703125,-0.9976654052734375,-0.0503997802734375,0.035064697265625
1772536287291049500,8.493049560546876,-0.998077392578125,-0.051666259765625,0.0341949462890625
1772536287301098200,8.50309814453125,-0.99951171875,-0.05108642578125,0.03656005859375
1772536287311146500,8.513146484375,-1.0033721923828125,-0.0501556396484375,0.0351715087890625
1772536287321195300,8.5231953125,-1.0027008056640625,-0.0505828857421875,0.0343017578125
1772536287331243500,8.533243408203125,-0.99822998046875,-0.0504913330078125,0.0338592529296875
1772536287341291500,8.54329150390625,-0.9994659423828125,-0.050811767578125,0.0348358154296875
1772536287351340500,8.553340576171875,-1.0030364990234375,-0.0523529052734375,0.0348663330078125
1772536287361388500,8.563388427734376,-1.0020599365234375,-0.0514068603515625,0.0360107421875
1772536287371437600,8.5734375,-1.0063934326171875,-0.0490570068359375,0.0376129150390625
1772536287381485600,8.583485595703126,-1.0045318603515625,-0.049713134765625,0.035003662109375
1772536287391534300,8.593534423828125,-1.001373291015625,-0.0506591796875,0.0353851318359375
1772536287401582600,8.60358251953125,-1.002471923828125,-0.0514373779296875,0.03900146484375
1772536287411630300,8.61363037109375,-1.0031280517578125,-0.053558349609375,0.04034423828125
1772536287421679600,8.6236796875,-1.0018463134765625,-0.0541534423828125,0.0377044677734375
1772536287431727400,8.633727294921876,-1.00225830078125,-0.0538177490234375,0.0360565185546875
1772536287441776600,8.643776611328125,-1.00390625,-0.0535125732421875,0.0367584228515625
1772536287451824400,8.653824462890626,-1.0027008056640625,-0.052764892578125,0.0377349853515625
1772536287461873400,8.663873291015625,-1.0027313232421875,-0.051605224609375,0.038482666015625
1772536287471921400,8.67392138671875,-1.0041656494140625,-0.0503082275390625,0.0377655029296875
1772536287481969400,8.683969482421874,-1.002655029296875,-0.0500946044921875,0.03887939453125
1772536287492018400,8.694018310546875,-1.00482177734375,-0.0487213134765625,0.0390777587890625
1772536287502066400,8.70406640625,-1.0002593994140625,-0.048370361328125,0.03631591796875
1772536287512115500,8.714115478515625,-0.996429443359375,-0.0478363037109375,0.0379791259765625
1772536287522163500,8.72416357421875,-1.000244140625,-0.0489959716796875,0.03900146484375
1772536287532212500,8.73421240234375,-1.000244140625,-0.052032470703125,0.038421630859375
1772536287542260500,8.744260498046875,-0.99884033203125,-0.05169677734375,0.038543701171875
1772536287552309500,8.7543095703125,-0.9977874755859375,-0.0513153076171875,0.0370941162109375
1772536287562357500,8.764357421875,-0.99456787109375,-0.0528411865234375,0.0341644287109375
1772536287572405200,8.7744052734375,-0.997344970703125,-0.0535430908203125,0.036956787109375
1772536287582454500,8.78445458984375,-0.99664306640625,-0.0549468994140625,0.0352630615234375
1772536287592502300,8.794502197265626,-0.9994049072265625,-0.05462646484375,0.04052734375
1772536287602551600,8.804551513671875,-0.9853668212890625,-0.0532684326171875,0.0337677001953125
1772536287612599300,8.814599365234375,-0.978057861328125,-0.0480194091796875,0.03631591796875
1772536287622648600,8.824648681640625,-1.009735107421875,-0.04827880859375,0.041595458984375
1772536287632696300,8.8346962890625,-1.0068511962890625,-0.0518646240234375,0.03057861328125
1772536287642744600,8.84474462890625,-1.0001373291015625,-0.0517425537109375,0.03369140625
1772536287652793300,8.85479345703125,-1.00762939453125,-0.0526123046875,0.0381317138671875
1772536287662841600,8.864841552734376,-1.0089111328125,-0.0562286376953125,0.040496826171875
1772536287672890400,8.874890380859375,-1.0063323974609375,-0.0554046630859375,0.0409698486328125
1772536287682938400,8.8849384765625,-1.0113067626953125,-0.04962158203125,0.0420074462890625
1772536287692987400,8.8949873046875,-1.0122528076171875,-0.0484771728515625,0.0398712158203125
1772536287703035400,8.905035400390625,-1.0109100341796875,-0.04742431640625,0.0394744873046875
1772536287713084400,8.91508447265625,-1.0133209228515625,-0.047119140625,0.0419921875
1772536287723132400,8.92513232421875,-1.01092529296875,-0.048370361328125,0.042388916015625
1772536287733180400,8.935180419921876,-1.0019073486328125,-0.04608154296875,0.04180908203125
1772536287743229400,8.9452294921875,-0.98956298828125,-0.04388427734375,0.0417633056640625
1772536287753277400,8.95527734375,-1.00244140625,-0.046356201171875,0.0353546142578125
