time,seconds_elapsed,z,y,x
1772536354595702500,0.07570263671875,-0.05640227070152759,-0.17118048679772763,-0.11735701707564293
1772536354605750500,0.08575048828125,-0.0016290625065565108,-0.10195165041200815,-0.1587136760703288
1772536354615798500,0.095798583984375,0.032170331242680546,-0.001054696684703231,-0.15156033371696248
1772536354625846300,0.10584619140625,0.0816641377300024,0.019400719910115,-0.094951891185157
1772536354635895600,0.1158955078125,0.10521043301224708,0.00005808686278760433,-0.08552205526717006
1772536354645943300,0.125943359375,0.16367898859381674,-0.066987048808299,0.01823474487066269
1772536354655991600,0.135991455078125,0.12719020963013172,-0.03796542738750577,0.09752612558733671
1772536354666039600,0.14603955078125,0.08633446762859821,0.02029284644424915,0.10734033944671972
1772536354676088600,0.156088623046875,0.143926240375638,0.04104636920280754,0.08700988267213106
1772536354686136600,0.166136474609375,0.18610417089164255,0.03394961587488651,0.10888744102455675
1772536354696184300,0.176184326171875,0.14683423677682875,0.044180612107925114,0.10511194107383488
1772536354706232600,0.186232666015625,0.08747019366025924,0.007436250947974622,0.08849884258825332
1772536354716281300,0.19628125,0.05108955124616622,-0.05761438643764704,0.05782075919732451
1772536354726329600,0.20632958984375,0.027505846562981603,-0.06328161841910332,0.015734105427656322
1772536354736377600,0.216377685546875,0.038832711741328234,-0.032999110217019914,-0.027456564061157405
1772536354746425300,0.22642529296875,0.029807693764567374,-0.03052165072020143,-0.06206164817009121
1772536354756474400,0.236474365234375,-0.035808980005979534,-0.07642711385935544,-0.08992440014565363
1772536354766522400,0.2465224609375,-0.02320259641110897,-0.14888357052206994,-0.1225180713669397
1772536354776570600,0.256570556640625,-0.011145078870654105,-0.22676665534339843,-0.12376997112417593
1772536354786618400,0.266618408203125,-0.0739303286075592,-0.2589506863178685,-0.0475746841261629
1772536354796666400,0.276666259765625,-0.1370119309425354,-0.2225848396141082,-0.039523123424593354
1772536354806715400,0.28671533203125,-0.10619476787447929,-0.1651328771965578,-0.04435869948803447
1772536354816763400,0.296763427734375,-0.10157061520516872,-0.14303331012390552,-0.018326660937815903
1772536354826811600,0.306811767578125,-0.11013619897663593,-0.12055753015000373,-0.016607088869903235
1772536354836859400,0.316859375,-0.04077449345886707,-0.09095463824253529,0.004198027078574523
1772536354846908700,0.32690869140625,-0.00886135184764862,-0.059353740918263787,0.02164813351072371
1772536354856956400,0.336956298828125,-0.025453590208292007,-0.03286404912788421,0.05355784105584025
1772536354867004400,0.34700439453125,-0.08665829275548458,-0.019356917301006613,0.07700214640148915
1772536354877052700,0.357052734375,-0.08096914120316505,0.009953384868055581,0.06319780346001498
1772536354887101400,0.367101318359375,-0.06896130802333354,0.03517802515868097,0.026377746715350075
1772536354897149400,0.3771494140625,-0.06069324589371681,0.044230040740221736,-0.032061185479513366
1772536354907197400,0.387197509765625,-0.0293055894613266,0.0627266148848459,-0.051422436462342735
1772536354917245400,0.397245361328125,-0.034251229169964786,0.06100797439869493,-0.06184186337299179
1772536354927294500,0.40729443359375,-0.03574117546677589,0.005371500437892973,-0.07849234842662699
1772536354937342500,0.417342529296875,-0.04972761524319649,-0.007489296309463679,-0.056285064929490904
1772536354947390500,0.427390380859375,-0.06701718821823596,-0.04167568008229136,-0.04386885187816806
1772536354957438500,0.4374384765625,-0.05017185187935829,-0.08967121083587408,-0.010690453271218574
1772536354967486500,0.447486572265625,-0.03836626327335834,-0.11261230676658451,0.021316625117592046
1772536354977535500,0.457535400390625,0.0010427870512008666,-0.1276721479281783,0.0027754583459929563
1772536354987583500,0.46758349609375,0.052339259046316144,-0.1238498131610453,-0.019514199355104938
1772536354997631500,0.477631591796875,0.06884265007972717,-0.1297980175083503,-0.006171411794063169
1772536355007679500,0.487679443359375,0.07033025828897953,-0.1268796458436176,0.024471107093140015
1772536355017728500,0.497728515625,0.05187456414401531,-0.11762443584017455,0.03798539702987764
1772536355027776500,0.507776611328125,0.04206979396641254,-0.11495580115281044,0.034353945192345414
1772536355037824300,0.51782421875,0.0640969168573618,-0.09970288510452956,0.009296542094252071
1772536355047872000,0.5278720703125,0.08577040400505065,-0.08798219830300659,0.020569749989756383
1772536355057921300,0.53792138671875,0.004403203395009041,-0.11030311650875955,0.0351772031747736
1772536355067969000,0.547968994140625,-0.07143968083560466,-0.09275639043487607,0.026521009377250448
1772536355078017000,0.55801708984375,-0.06835398977994918,-0.022394896757416426,-0.013953866380802355
1772536355088065000,0.56806494140625,-0.07403963420093058,-0.004667882213182747,-0.07073807190489023
1772536355098113000,0.578113037109375,-0.11946458381414413,0.008825513349287212,-0.0898119984128978
1772536355108162000,0.588162109375,-0.13173252923488615,-0.013197335225343703,-0.10550350680784322
1772536355118210000,0.5982099609375,-0.05846329488456249,-0.0420168582027778,-0.10352792328540235
1772536355128258000,0.608258056640625,-0.030413258442282674,-0.06777681094650179,-0.07220788872912526
1772536355138306000,0.61830615234375,-0.03015899142026901,-0.08443035104032605,-0.04442671408979222
1772536355148355000,0.62835498046875,-0.05439911418557167,-0.10994422006849199,0.008065141702350228
1772536355158403000,0.638403076171875,-0.07323650112450122,-0.12849785816259682,0.07519034773916937
1772536355168451000,0.648451171875,-0.03300502850115299,-0.12852664586566387,0.07809112894828431
1772536355178499000,0.6584990234375,-0.0540577534019947,-0.07343490977343171,0.05005423511536792
1772536355188548000,0.668548095703125,-0.07237783846855163,-0.030094840142875907,0.033400174431735645
1772536355198596000,0.67859619140625,-0.07029752506315708,-0.019234386899881065,0.03431254916945472
1772536355208644000,0.68864404296875,-0.05740355669856071,-0.005292955308966338,-0.0012447302309330551
1772536355218692000,0.698692138671875,-0.018113748839497564,-0.05362312484439462,-0.02491997652193531
1772536355228741000,0.7087412109375,-0.03195990336239338,-0.07876607820093631,-0.022480173021228983
1772536355238789000,0.7187890625,-0.0779173524171114,-0.10293883481845259,-0.014240615466888993
1772536355248837000,0.728837158203125,-0.08430266954004764,-0.13479001710936425,0.0028084724163170904
1772536355258885000,0.738885009765625,-0.07044774718880653,-0.10347666802220046,-0.014699912674864753
1772536355268934000,0.748933837890625,-0.012760112851858138,-0.10539748001694679,-0.037366721708839756
1772536355278982100,0.758982177734375,-0.0035761049211025238,-0.12236330093033611,-0.036358110921876505
1772536355289030100,0.769030029296875,-0.023109072908759114,-0.11557941294386982,-0.04679530638465657
1772536355299078000,0.779077880859375,-0.0403331794321537,-0.09050254709348082,-0.04933156513031572
1772536355309126100,0.789126220703125,-0.02470657123327255,-0.06904635595828294,-0.04524871626347303
1772536355319175000,0.7991748046875,-0.002835515686869621,-0.06692044984549284,-0.04329242196339182
1772536355329223200,0.80922314453125,-0.01693067653477192,-0.05259454898163676,-0.047953682639542965
1772536355339271200,0.819271240234375,0.036195933496952055,-0.0333689664427191,-0.08402389826443978
1772536355349319000,0.82931884765625,0.046855859199166294,-0.027281097896397113,-0.07771792085487395
1772536355359368200,0.8393681640625,0.002639700853824615,0.0005445552054792642,-0.05670924515831284
1772536355369416000,0.849416015625,0.03090191874206066,-0.011494476830214262,-0.03593242372255772
1772536355379464200,0.859464111328125,0.025273557466268536,-0.03225764419995248,-0.021727327093621716
1772536355389512000,0.869511962890625,-0.01034019222855568,-0.020929756108298895,-0.015948615828016773
1772536355399561200,0.879561279296875,0.0130798463255167,-0.02478650460168719,-0.019540804234240202
1772536355409609000,0.88960888671875,0.01920680477321148,-0.03449577851556241,-0.019878210361907258
1772536355419657000,0.899656982421875,-0.03671031275987625,-0.04141922110319137,-0.04938598959813825
1772536355429705200,0.909705322265625,-0.018873627296090125,-0.03683846918419003,-0.08394392836340703
1772536355439754000,0.91975390625,0.012214753928780554,-0.02559175656996667,-0.07401556833875365
1772536355449802200,0.92980224609375,-0.01421089618206024,-0.04767079231124371,-0.056583335490012536
1772536355459850000,0.93985009765625,-0.036277766561508176,-0.06139470869395881,-0.06691119795995765
1772536355469898000,0.94989794921875,-0.0058294368058443066,-0.06260496126655489,-0.08562486718767322
1772536355479946200,0.9599462890625,0.004141922110319138,-0.05132679406814277,-0.10001484626368619
1772536355489995000,0.9699951171875,0.026062077495455742,-0.0622877485435456,-0.11827527356487698
1772536355500043300,0.980043212890625,0.043024318212270735,-0.07286653530094772,-0.1041754365418572
1772536355510091000,0.990091064453125,0.008757306951284408,-0.0826024780260399,-0.10274418902918696
1772536355520139000,1.000138916015625,0.01004559319615364,-0.10117040037382394,-0.07669737303494475
1772536355530188000,1.01018798828125,-0.025226211193203923,-0.08694982304796577,-0.07377564036934636
1772536355540236000,1.020236083984375,-0.02463701312839985,-0.07748250466380267,-0.06882779957046732
1772536355550284000,1.030283935546875,-0.04157295036017895,-0.07501863530091941,-0.057002401152299716
1772536355560332000,1.04033203125,-0.07228606853187083,-0.05031257552430033,-0.0689714458248578
1772536355570381000,1.050381103515625,-0.05424713849425315,-0.03898812149874866,-0.04711106236951891
1772536355580429000,1.060428955078125,-0.020379355683922767,-0.04229739217720926,-0.030742641093698328
1772536355590477000,1.07047705078125,0.00011865794360637664,-0.04081540999114513,-0.016045541430427693
1772536355600525000,1.080525146484375,-0.02266191366314888,-0.03670618457403034,0.007636805888218805
1772536355610573000,1.090572998046875,-0.019101006311178205,-0.05845653635021299,0.020175193147640675
1772536355620622000,1.1006220703125,-0.023898177459836006,-0.09268913388494401,0.04381994383567944
1772536355630670000,1.110670166015625,-0.02235211706161499,-0.0730439011618495,0.03898581081065349
1772536355640718000,1.120718017578125,-0.03183306211233139,-0.05268606318999081,0.05293805605652742
1772536355650766000,1.13076611328125,-0.03679273034632206,-0.04089786411020904,0.049588599498150865
1772536355660815000,1.140815185546875,-0.05073825359046459,-0.032311383681185545,0.03229298037481494
1772536355670863000,1.150863037109375,-0.021933014866709708,-0.023894341534934936,0.0327146033203695
1772536355680911000,1.1609111328125,-0.020682722544670105,-0.03622234657984227,0.029634574820520353
1772536355690959000,1.170958984375,-0.08421499125659465,-0.05224610087014735,0.02075012522507459
1772536355701008100,1.181008056640625,-0.1221580606818199,-0.05884575486350804,0.008856451910245231
1772536355711056000,1.191055908203125,-0.08907587529122829,-0.050301177347451445,-0.00299096654348541
1772536355721104100,1.201104248046875,-0.07265607088804245,-0.04401902833804488,-0.01171979631895665
1772536355731152100,1.211152099609375,-0.08022796744704246,-0.039711796130798754,-0.024939265744294968
1772536355741201200,1.221201171875,-0.07304360890090465,-0.040231143829785286,-0.03909223946034908
1772536355751249200,1.231249267578125,-0.03374269512593746,-0.06334993441496044,-0.05227155497181229
1772536355761297000,1.241296875,-0.03622866672277451,-0.06432908164542168,-0.02114657263017725
1772536355771345200,1.25134521484375,-0.0620662878125906,-0.06337470353003591,-0.0011040705180726945
1772536355781393200,1.26139306640625,-0.021173136410117147,-0.056203058334998786,-0.018339187059248797
1772536355791442200,1.271442138671875,0.007169745498895644,-0.0579557106886059,-0.014082534261769614
1772536355801490200,1.281490234375,-0.0021679916888475417,-0.048835306045971805,0.004380119346943684
1772536355811538000,1.291537841796875,-0.02913081741631031,-0.04205258710328489,0.013698916655487847
1772536355821586200,1.301586181640625,0.012741992673277854,-0.05137918184250593,-0.010721615594462492
1772536355831635000,1.311635009765625,0.0435486343473196,-0.027382183650694787,0.00317041248033056
1772536355841683200,1.32168310546875,0.02142272725701332,-0.02381133942659944,0.009132430723856668
1772536355851731000,1.33173095703125,0.015351298388838768,-0.05271397411022335,-0.007168836750020273
1772536355861779000,1.341779052734375,0.04084463608562946,-0.053833552724681794,-0.01876619285775232
1772536355871828000,1.351827880859375,0.06885317147374152,-0.04512403043787926,-0.01732915150017943
1772536355881876000,1.3618759765625,0.06185527541041374,-0.06355879139266908,-0.0172689160627895
1772536355891924200,1.37192431640625,0.0002829085946083069,-0.08387531097345054,-0.004720781444199383
1772536355901972000,1.381971923828125,-0.06031272214353084,-0.0905794117219746,-0.004983480651129502
1772536355912020000,1.39202001953125,-0.03679682199954987,-0.09945121189840138,-0.004531421468115877
1772536355922069000,1.402069091796875,-0.014639350727200507,-0.06789378838967532,-0.00551763091031462
1772536355932117000,1.412116943359375,-0.047266193565726276,-0.06493932249825447,0.009058445322327316
1772536355942165200,1.422165283203125,-0.08994389029741287,-0.06172459823545068,0.010594630497216711
1772536355952213000,1.432212890625,-0.06458674620091914,-0.05367054418269544,0.01220968731130706
1772536355962262300,1.44226220703125,-0.03431669562160969,-0.04163958585560321,0.015446185014501679
1772536355972310000,1.45231005859375,-0.05341185671389102,-0.03030925007853657,0.014989618619729299
1772536355982358000,1.46235791015625,-0.047343934977054594,-0.05690919731035828,0.000412642771366518
1772536355992406000,1.472406005859375,0.008262801432609558,-0.05315850300733,-0.02039970206891885
1772536356002455000,1.482455078125,0.029321371552348135,-0.04164250846505165,-0.0006073776088887825
1772536356012503000,1.4925029296875,-0.010922376030683517,-0.06903937822822481,-0.00018150546319084242
1772536356022551000,1.502551025390625,-0.022267361387610433,-0.08414254707489162,-0.0403593459198717
1772536356032599300,1.512599365234375,0.019048399341106415,-0.0838048760857433,-0.04775664396379143
1772536356042648300,1.5226484375,-0.0023655600875616073,-0.08447835490051657,-0.06399787692967802
1772536356052696300,1.5326962890625,-0.039952655681967736,-0.08569182234350592,-0.080349283138616
1772536356062744000,1.542744140625,-0.03117547498643398,-0.08458093849215656,-0.067399986123899
1772536356072792300,1.552792236328125,-0.020752280649542806,-0.08212240289151668,-0.054595207579829726
1772536356082840300,1.56284033203125,-0.05431961920857429,-0.05305054912082851,-0.040945566576300184
1772536356092889300,1.572889404296875,-0.020862755286693572,-0.03751505327150225,-0.045999105372512714
1772536356102937300,1.582937255859375,0.005715455037355423,-0.038963790775090455,-0.037214686652016826
1772536356112985000,1.592985107421875,-0.0103261637032032,-0.034985242532938714,-0.01882269854316255
1772536356123033300,1.603033447265625,-0.0018096797704696655,-0.02501278763823211,-0.016721246451616753
1772536356133082000,1.61308203125,0.023483751440048217,-0.025355171335116028,-0.020363384079944806
1772536356143130400,1.62313037109375,-0.011187748968601226,-0.01943973674625158,-0.013398559169156941
1772536356153178000,1.63317822265625,-0.015582769057154654,-0.02506882867440581,-0.02038439261864405
1772536356163226000,1.64322607421875,-0.008704115459322929,-0.023721724914386868,-0.01662190855476656
1772536356173275100,1.653275146484375,0.0004261164575815201,-0.0228180175403133,-0.04523374702320434
1772536356183323100,1.6633232421875,0.013861352092027664,-0.037685258739255365,-0.05414570568008348
1772536356193371400,1.673371337890625,0.013808160600066184,-0.042972186166234314,-0.051026678610406814
1772536356203419100,1.683419189453125,0.002972293809056282,-0.06069488986153155,-0.05481650848058052
1772536356213467100,1.693467041015625,0.00232055190205574,-0.08260496224407106,-0.0704762106648879
1772536356223516200,1.70351611328125,0.03895370777249336,-0.10059179676827043,-0.0698523933778517
1772536356233564200,1.713564208984375,0.006503390544652939,-0.10486194836813956,-0.04771688277556095
1772536356243612400,1.7236123046875,-0.02783551690876484,-0.10946323161851614,-0.04386102476473897
1772536356253660200,1.73366015625,-0.0005208090037107468,-0.10768964607473462,-0.05265903818574734
1772536356263709200,1.743709228515625,0.019124971708655358,-0.08723850379623473,-0.0529740589516703
1772536356273757200,1.753757080078125,-0.013451602247357367,-0.08551566205900162,-0.0420824981843587
1772536356283805200,1.76380517578125,-0.022846038058400152,-0.08991028028875589,-0.023157446661707944
1772536356293853200,1.773853271484375,-0.022366730108857154,-0.07977467072159052,-0.020041104739462023
1772536356303902200,1.783902099609375,-0.039083471632003784,-0.058055919660069046,0.002136962224460876
1772536356313950200,1.7939501953125,-0.05713175401985645,-0.04618464540671557,0.014393709969636983
1772536356323998200,1.803998291015625,-0.06828969237208365,-0.03777081813085824,0.034908989825798195
1772536356334046200,1.814046142578125,-0.06105389589965343,-0.04877539255227893,0.03527871362075675
1772536356344094200,1.82409423828125,-0.01600830099284649,-0.052220345374383026,0.014155914591811597
1772536356354143200,1.834143310546875,-0.009624152913689612,-0.04138287114817649,0.028271003982890397
1772536356364191200,1.844191162109375,-0.03651157531738281,-0.052531274487078186,0.04734389844443649
1772536356374239200,1.8542392578125,-0.021228081467747687,-0.05947864593956619,0.04657748521578032
1772536356384287200,1.864287353515625,-0.0311006561845541,-0.06149268917571753,0.04396341656013392
1772536356394336300,1.874336181640625,-0.0301899710804224,-0.07625077091176062,0.05099088577781804
1772536356404384300,1.88438427734375,-0.05905073938369751,-0.09292571911979466,0.052478694916469976
1772536356414432300,1.894432373046875,-0.03691138828992843,-0.08582710262835025,0.020683989769860637
1772536356424480300,1.904480224609375,-0.011833645656704903,-0.06817001151517033,0.009038095512398285
1772536356434529300,1.914529296875,-0.00907177972793579,-0.07783058744911105,0.015063907698646652
1772536356444577300,1.924577392578125,-0.05240589454174041,-0.07750515488702803,0.004585125558375148
1772536356454625000,1.934625,-0.06088906072676181,-0.08438925184495746,0.01147965942863957
1772536356464673300,1.94467333984375,-0.004324877461791038,-0.06549922140333801,-0.02173299878258258
1772536356474722000,1.95472216796875,0.03633972588181496,-0.04562555021923035,-0.02582063798897434
1772536356484770300,1.964770263671875,0.022699907585978507,-0.06401990609839558,-0.01150450960046146
1772536356494818300,1.974818359375,-0.022895137897133825,-0.09633742725942283,0.015597428911813767
1772536356504866000,1.984865966796875,-0.06288987915515899,-0.08831815225910394,0.018901010776648762
1772536356514914300,1.994914306640625,-0.03570902676284313,-0.039255576795898375,0.012233999768656212
1772536356524963000,2.004963134765625,-0.01860591627061367,-0.019971213274449107,0.0016044714879943057
1772536356535011300,2.01501123046875,-0.01982932058572769,-0.010395210351422428,-0.0029651254243974108
1772536356545059300,2.025059326171875,-0.025112813946604726,-0.022645839311182497,0.006953733836259925
1772536356555107000,2.035107177734375,-0.04114098868370056,-0.04814567981399596,0.021310151994321493
1772536356565156000,2.045156005859375,-0.06294423969089985,-0.05957775893248617,0.05503204179424792
1772536356575204000,2.0552041015625,-0.05073708454668521,-0.03807535403538495,0.029290163563331587
1772536356585252400,2.06525244140625,-0.00682663114964962,-0.010853913904353975,-0.0030089211836399044
1772536356595300000,2.075300048828125,0.013555062621831893,-0.01487045606933534,-0.005576168722606962
1772536356605348000,2.08534814453125,0.014023849177360534,-0.0402265041872859,0.0029481925559055526
1772536356615397000,2.095397216796875,-0.0022264438778162,-0.07944485424533486,0.01353693673503003
1772536356625445000,2.105445068359375,-0.01602642117142677,-0.10539667629934847,0.02954796511614695
1772536356635493400,2.115493408203125,-0.008685410758852959,-0.1120208436794579,0.0021795314295915886
1772536356645541000,2.125541015625,0.017061609438061714,-0.08272095330655574,-0.02645400398906786
1772536356655590400,2.13559033203125,0.0008949030131101608,-0.06409614967238157,-0.026753532641625496
1772536356665638100,2.14563818359375,0.0004132569760084152,-0.08377371376249938,-0.04719155742693692
1772536356675686100,2.15568603515625,0.03399053240716457,-0.08360208352264016,-0.05076040605676826
1772536356685734400,2.165734375,0.0621837767124176,-0.056374944303184744,-0.042052276576031
1772536356695783200,2.175783203125,-0.01042377885878086,-0.07391531370151788,-0.01521106907588546
1772536356705831200,2.1858310546875,-0.09209726893901825,-0.09534742984138428,-0.0015509329361608252
1772536356715879200,2.195879150390625,-0.012931377765536307,-0.035594095146283505,-0.06081330120996572
1772536356725927200,2.20592724609375,0.04792202712595463,0.03125358172394335,-0.05736278173017781
1772536356735976200,2.21597607421875,-0.02007540430128574,-0.0036019700147211548,-0.033551793930027635
1772536356746024200,2.226024169921875,-0.06139408763945102,-0.05983458323776722,-0.026306699906289577
1772536356756072200,2.236072265625,-0.06271569163203239,-0.04273837741035968,-0.012668411413836293
1772536356766120200,2.2461201171875,-0.04995440973639488,-0.020819464134238658,-0.038289882702054454
1772536356776168200,2.256168212890625,-0.037827918612957,-0.009085260264016687,-0.03989315318022854
1772536356786217200,2.26621728515625,-0.04774491699337959,-0.009918350087292492,-0.04269500862609129
1772536356796265200,2.27626513671875,-0.03839607388973236,-0.0204693720549345,-0.0574710461439332
1772536356806313200,2.286313232421875,-0.0018120178580284117,-0.035529834271036086,-0.06332206916050054
1772536356816361200,2.296361328125,-0.04240940118432045,-0.05783898897375911,-0.03141680946163833
1772536356826410200,2.30641015625,-0.0719131435662508,-0.07868245503809303,-0.04361194080791902
1772536356836458200,2.316458251953125,-0.003889408653974533,-0.05345533052943647,-0.06943800389068201
1772536356846506200,2.32650634765625,0.014697218394279479,-0.018929741397500036,-0.07029044686839915
1772536356856554200,2.33655419921875,-0.01656593487560749,-0.027785284558869895,-0.05249428977782372
1772536356866603300,2.346603271484375,-0.023117256215214727,-0.062125178392976516,-0.04449553697572555
1772536356876651300,2.3566513671875,-0.005987257716059685,-0.0680623864222318,-0.052672934280359185
1772536356886699300,2.36669921875,-0.022304770788550376,-0.07064502332657575,-0.031806518881989175
1772536356896747000,2.3767470703125,-0.023764906468987462,-0.07167363572195172,-0.04209368629865348
1772536356906795300,2.386795166015625,-0.028180969345569608,-0.03004690934792161,-0.05194598084583413
1772536356916844000,2.396843994140625,0.00722527507841587,-0.006840148218348622,-0.053762231920985504
1772536356926892300,2.406892333984375,0.003147650375962257,-0.00490695166606456,-0.06441688322646077
1772536356936940300,2.416940185546875,-0.05476268680095672,0.005097724997811019,-0.04542134658375289
1772536356946988000,2.426988037109375,-0.09321136766076088,0.005054068519175052,-0.04104708615543786
1772536356957037300,2.437037353515625,-0.02485562431514263,0.034036673103831704,-0.06545600788269658
1772536356967085000,2.4470849609375,-0.030618425625562665,0.051101314749196165,-0.05404063330383505
1772536356977133300,2.45713330078125,-0.061701546153426164,0.021537257014773784,-0.041373345268005506
1772536356987181300,2.467181396484375,-0.07456804198920726,0.014603073837421834,-0.04231293223963584
1772536356997230300,2.477230224609375,-0.02625204710960388,-0.01640007678940892,-0.035587053484143684
1772536357007278000,2.487278076171875,-0.041534956437349314,-0.030304281642474232,-0.017287949556822422
1772536357017326000,2.497326171875,-0.0557528668820858,-0.04526822468154132,-0.03433571998248808
1772536357027374300,2.507374267578125,-0.01056757124364376,-0.05044365455806255,-0.03653577132701175
1772536357037422300,2.51742236328125,0.022186697366833687,-0.056179933187738056,-0.044859849376627244
1772536357047471600,2.5274716796875,-0.0028010288953781125,-0.0695475834786892,-0.045590688968403265
1772536357057519400,2.537519287109375,-0.052792263510823244,-0.0780760501101613,-0.03197075126668205
1772536357067567400,2.5475673828125,-0.005989011281728744,-0.06335694867763668,-0.05530052000470459
1772536357077615600,2.55761572265625,0.03390694577693939,-0.036995778637751935,-0.05399815956871025
1772536357087664400,2.567664306640625,-0.015974398723244666,-0.032864852845482524,-0.03293014120061416
1772536357097712600,2.577712646484375,-0.0218681329369545,-0.02968136397115886,-0.021977374598244205
1772536357107760400,2.587760498046875,0.020713117682933806,-0.02038125538006425,-0.006018328707758337
1772536357117808400,2.597808349609375,-0.006569441518187523,-0.01733655392192304,0.0025351787501364013
1772536357127857400,2.607857421875,-0.029031448695063588,-0.024409634113311766,0.002786077921418473
1772536357137905400,2.617905517578125,0.008531681501865387,-0.01954893274176866,0.002939113058662042
1772536357147953400,2.627953369140625,0.008411854514479636,-0.02035034878514707,0.01952247399310581
1772536357158001400,2.63800146484375,-0.031767595660686494,-0.021714732473529876,0.02189328336123144
1772536357168049700,2.648049560546875,-0.050400399938225746,-0.01651632358022034,0.012610023156949318
1772536357178098400,2.658098388671875,-0.01115267765522003,0.0066951502570882435,0.002211602501710877
1772536357188146400,2.668146484375,-0.04944061499536037,0.02267678243871778,-0.0009411281914566643
1772536357198194400,2.6781943359375,-0.10707622688412666,0.0035895854571834206,-0.009048195639660115
1772536357208242400,2.688242431640625,-0.06374561920166015,0.0016268705494701862,-0.008551710509741678
1772536357218291500,2.69829150390625,-0.03885375452935695,0.006802410023845732,0.002272452143742703
1772536357228339500,2.70833935546875,-0.060356561285257335,-0.007078669681958854,-0.0010744014655938371
1772536357238387500,2.718387451171875,-0.07692132711708545,-0.02789042543377727,-0.005096163228387013
1772536357248435500,2.728435546875,-0.06639993310272693,-0.014624262755922973,-0.002067732485034503
1772536357258484500,2.738484375,-0.024943887120485304,-0.0036718934457749125,-0.015482482453878036
1772536357268532500,2.748532470703125,-0.007167407411336898,0.007743599864095449,-0.01948516734015429
1772536357278580500,2.75858056640625,-0.03802022631466388,0.0020337708499282596,0.0028197701284661887
1772536357288628200,2.768628173828125,-0.03447334748804569,-0.020350567980855702,-0.008085864829970523
1772536357298676500,2.778676513671875,-0.0020388123512268064,-0.011146101783961058,-0.017519470457488206
1772536357308725200,2.788725341796875,0.013364508485794067,-0.0013109364680945874,-0.01476987720511388
1772536357318773500,2.7987734375,0.015627777242660523,-0.026335049217939374,-0.02226600283087464
1772536357328821500,2.808821533203125,0.022421090644598005,-0.04767082884386181,-0.02314892771182349
1772536357338869500,2.818869384765625,0.033140637579560275,-0.031115561492741105,-0.02539978679497726
1772536357348918500,2.82891845703125,0.028667876079678533,-0.041558775704354046,-0.016862835462950167
1772536357358966300,2.83896630859375,-0.00042260932624340057,-0.031448519774153826,-0.012707661145413293
1772536357369014500,2.8490146484375,-0.008672551277279854,-0.018256956702470777,-0.032705890290951355
1772536357379062500,2.8590625,0.017615736189484595,0.00334141938239336,-0.04747211880083196
1772536357389111600,2.869111572265625,0.015910101315379142,0.03056720689497888,-0.03594372371799545
1772536357399159600,2.87915966796875,-0.008382043898105622,0.009636281742900609,-0.0398531773628667
1772536357409207300,2.889207275390625,-0.026831308302283287,-0.0036430326774716374,-0.02538092226430308
1772536357419255600,2.899255615234375,-0.03075578826963901,-0.005891103865206242,-0.015401544438465498
1772536357429303300,2.90930322265625,-0.046185412591695785,0.0013135668165981768,-0.001705059485370293
1772536357439352600,2.9193525390625,-0.054261167019605636,-0.0017230244003236294,-0.016982541436038445
1772536357449400300,2.929400390625,-0.04407411952614784,0.012301774625107646,-0.026298838543531017
1772536357459448600,2.939448486328125,-0.038982349345088,0.014166655181534588,-0.034499938667449166
1772536357469496600,2.94949658203125,-0.04199614420831203,-0.0001816036446020007,-0.02406469313316047
1772536357479545300,2.95954541015625,-0.020219196686148643,-0.006377170349098742,-0.02541937969472492
1772536357489593600,2.969593505859375,-0.029163550642132757,-0.012408303739503026,-0.02477377755085472
1772536357499641300,2.979641357421875,-0.03634323301315307,-0.013289287825115024,-0.02642358830120647
1772536357509689600,2.989689697265625,-0.004629997888207435,-0.026815928070060908,-0.007000512712099589
1772536357519738400,2.99973828125,-0.0064174658268690106,-0.03870641848053783,0.004404160092945676
1772536357529786400,3.009786376953125,-0.01938625299334526,-0.06864800429046154,0.008346488527534529
1772536357539834600,3.019834716796875,0.0047784664481878274,-0.06456493622791022,-0.009899065431510097
1772536357549882400,3.02988232421875,0.029548750567436218,-0.06120751555878669,-0.015834602093487044
1772536357559930600,3.0399306640625,-0.014317863687872886,-0.05862886070981621,-0.024753410616260952
1772536357569979400,3.0499794921875,-0.0816506937265396,-0.0765692988090217,-0.012073742589470929
1772536357580027400,3.06002734375,-0.03756020758748054,-0.04090736259091645,-0.054783935084962286
1772536357590075400,3.070075439453125,0.006930091524124145,-0.0064911886502057314,-0.04669208347219973
1772536357600123400,3.080123291015625,-0.06143383512794971,-0.0109729006415233,-0.037134812649106605
1772536357610172400,3.09017236328125,-0.07474281403422355,-0.026207477315515277,-0.035570979132177306
1772536357620220400,3.100220458984375,-0.049774961516261096,-0.016696612050570547,-0.034175131726451216
1772536357630268700,3.1102685546875,-0.0023936171382665634,-0.0005195668946951627,-0.0504734606078593
1772536357640316400,3.12031640625,0.02146539735496044,-0.004962225517258048,-0.04031608216688037
1772536357650365400,3.130365478515625,0.008395487901568412,-0.0349291284315288,-0.03687476434027776
1772536357660413400,3.140413330078125,0.0037497079223394393,-0.0550062132332474,-0.01344200101866154
1772536357670461400,3.15046142578125,-0.0005301613539457321,-0.06331866249386221,-0.01053610067643458
1772536357680509400,3.160509521484375,0.010643559089303017,-0.06360916987303644,-0.03019593731361674
1772536357690557400,3.170557373046875,0.006129881057143211,-0.06566639466378837,-0.02847411620640196
1772536357700606500,3.1806064453125,-0.0036029929280281064,-0.061887058788165444,-0.0400485583710717
1772536357710654500,3.190654541015625,0.008064648512005805,-0.052318764247559005,-0.04825296241363976
1772536357720702500,3.200702392578125,-0.022927286601066587,-0.05617529354523867,-0.03023739726858912
1772536357730750500,3.21075048828125,-0.046909050691127774,-0.050519678936339914,-0.05285575720109045
1772536357740799500,3.220799560546875,-0.04577215561568737,-0.03600073971841484,-0.04282695530953351
1772536357750847200,3.23084716796875,-0.05497428372502327,-0.027988186719827352,-0.026261068382987286
1772536357760895500,3.2408955078125,-0.05822130282223224,-0.03637552784755826,-0.025792660853371487
1772536357770943500,3.250943603515625,-0.0312660758793354,-0.015314473509788512,-0.005068697549437638
1772536357780992500,3.260992431640625,-0.036784547039866444,-0.02519318570643663,0.00499132317675685
1772536357791040500,3.27104052734375,-0.044997079589962956,-0.023393369742855427,-0.0009898794005574018
1772536357801088500,3.281088623046875,-0.0048632221221923825,-0.029610636822506784,-0.0007947752410989779
1772536357811136500,3.291136474609375,-0.021269582521915433,-0.03245703922957182,0.011076542537444037
1772536357821184500,3.3011845703125,-0.07671557541191577,-0.03003090806119144,0.011067548663524211
1772536357831233500,3.311233642578125,-0.057819736284017556,-0.01741696221437305,0.0021389718038677527
1772536357841281500,3.321281494140625,-0.038974750560522076,0.012809651082009077,-0.01858027037270367
1772536357851329500,3.33132958984375,-0.03994447237551212,-0.0030286636387929318,-0.0381501271714922
1772536357861377500,3.34137744140625,-0.047988662621378894,-0.031342903975211084,-0.01705345353106968
1772536357871426300,3.35142626953125,-0.09120061236023902,-0.04990063372254371,-0.01186371656798292
1772536357881474600,3.361474609375,-0.0789320824176073,-0.042724860341660675,-0.023114616733556612
1772536357891522300,3.371522216796875,-0.012353285616636275,-0.03588332388382405,-0.03438653913756134
1772536357901570600,3.381570556640625,0.005758125135302544,-0.036481983896717425,-0.037676283131644596
1772536357911618600,3.39161865234375,-0.02114332579374313,-0.051626288471370935,-0.017549502552859485
1772536357921667600,3.40166748046875,-0.013748539367318152,-0.06484649311564862,-0.030978486543032337
1772536357931715600,3.411715576171875,0.027758944541215896,-0.03701283937040716,-0.044753096499945966
1772536357941763300,3.421763427734375,0.04115735529661178,-0.03781812787130475,-0.039234470075787974
1772536357951811600,3.4318115234375,0.010762217032909393,-0.06459755985587835,-0.021398681944434065
1772536357961860400,3.4418603515625,-0.013912790018320083,-0.06784614985566585,-0.021417790786991825
1772536357971908600,3.45190869140625,0.02591711606681347,-0.041185047021135686,-0.037737550615496
1772536357981956600,3.46195654296875,0.06515723956525325,-0.01961786979213357,-0.03895408223182894
1772536357992004400,3.47200439453125,-0.002243395012617111,-0.032844102318398655,-0.009998033435601973
1772536358002053400,3.482053466796875,-0.05718085385859012,-0.05502933838050812,0.008522314310254296
1772536358012101400,3.492101318359375,-0.016806757894158364,-0.043869792593084274,-0.01651468417898286
1772536358022149600,3.502149658203125,0.004688450077176094,-0.010306984078697859,-0.01628102383686928
1772536358032197400,3.512197265625,-0.047587096083164214,-0.00819280493631959,0.007371329631490516
1772536358042249000,3.5222490234375,-0.061139820617437356,-0.018093290573358536,-0.02118652104807552
1772536358052298000,3.532298095703125,-0.006644844841957092,-0.024078977386839687,-0.02648911183506716
1772536358062346000,3.542345947265625,-0.009461071306467056,-0.037543073789589106,-0.003964655572472838
1772536358072394000,3.55239404296875,-0.051608022162318225,-0.06771792036611586,0.005925950845479383
1772536358082442000,3.56244189453125,-0.04362053053975105,-0.05595792446751147,-0.016314066448301308
1772536358092491000,3.572490966796875,-0.05329144520461559,-0.022175006929039953,-0.008818373505736235
1772536358102539000,3.5825390625,-0.10487082579433918,-0.005889971354044974,-0.0325305497070658
1772536358112587000,3.5925869140625,-0.05970481937825679,-0.0020383739598095417,-0.04503406886579468
1772536358122635000,3.602635009765625,-0.024793080472946167,0.004782704231888055,-0.035630232755455654
1772536358132684000,3.61268408203125,-0.013266893330216406,-0.020314802547730503,-0.01839420974869281
1772536358142732000,3.62273193359375,-0.012530980271100996,-0.05906538896355778,-0.00811268662152579
1772536358152780000,3.632780029296875,-0.015355390042066572,-0.07306275199279189,-0.016168279610818716
1772536358162828000,3.642828125,-0.008570259946584701,-0.05962101355232298,-0.016082868632976897
1772536358172875800,3.652875732421875,0.004236614656448364,-0.05561115685645491,-0.009107824863918357
1772536358182925000,3.662925048828125,-0.012860066094994545,-0.04660900829862803,-0.018710807125415885
1772536358192972800,3.672972900390625,-0.010784428864717482,-0.043747773648612195,-0.012000821200443896
1772536358203021000,3.68302099609375,-0.02291325807571411,-0.0391349095582962,-0.017655054419720543
1772536358213069000,3.693069091796875,-0.010642390045523644,-0.0404911464728415,-0.032370762885338626
1772536358223118000,3.7031181640625,-0.03337795346677303,-0.034526721643097696,-0.016735384574823545
1772536358233166000,3.713166015625,-0.0403939697086811,-0.024192703427001833,-0.027533551987237295
1772536358243213800,3.7232138671875,-0.03183189306855202,-0.00528195899091661,-0.01619958121466916
1772536358253262000,3.733261962890625,-0.051392918106913564,0.004338869454525411,-0.023267807134427127
1772536358263310800,3.743310791015625,-0.05358896684646606,0.0005292480384930968,-0.028221246557030826
1772536358273359000,3.753359130859375,-0.02243921082317829,0.006848806448839604,-0.015629994315921793
1772536358283406800,3.76340673828125,-0.04474456613361835,-0.0025739421412348746,-0.0024149179379106497
1772536358293454800,3.773454833984375,-0.023090368208289146,-0.017875154310651124,-0.01443707875390537
1772536358303504000,3.78350390625,0.007646130838990211,-0.028056612313538787,-0.005151923990881186
1772536358313552000,3.7935517578125,-0.009065934509038925,-0.040434082523360844,-0.00720927093757491
1772536358323600100,3.80360009765625,-0.03504734798371792,-0.05953435818217694,0.001954370629409095
1772536358333648000,3.81364794921875,-0.026724925318360328,-0.07627521123327315,0.0019997703989152794
1772536358343696000,3.82369580078125,-0.03273264130055904,-0.07430873346589505,0.0008787065052019898
1772536358353745000,3.833744873046875,-0.016443185278773306,-0.06488397558182478,-0.010859913245233473
1772536358363793000,3.84379296875,-0.000029810616374015806,-0.04094711007941514,-0.024215047689550556
1772536358373841200,3.853841064453125,-0.011613280904293059,-0.03353131739757955,-0.02728684493388282
1772536358383889000,3.863888916015625,-0.03414952236115932,-0.03715579150505364,-0.022563010732783002
1772536358393938200,3.873938232421875,-0.007462006443738937,-0.03677146836258471,-0.024536342932633123
1772536358403986000,3.88398583984375,0.01293780750632286,-0.018373714949935675,-0.02367385805151425
1772536358414034000,3.894033935546875,0.010319149440526962,-0.02148706119749695,-0.023216035847994497
1772536358424082000,3.90408203125,-0.009471592700481415,-0.022659429445117712,-0.01633919632298057
1772536358434130000,3.9141298828125,0.021351415586471557,-0.026214235849864778,-0.01301026538775768
1772536358444179000,3.924178955078125,0.054015083304047584,-0.027050686674006282,-0.0246155273823766
1772536358454227000,3.93422705078125,0.005172434201836586,-0.02982764057405293,-0.01239059112794348
1772536358464275000,3.94427490234375,-0.014019757524132728,-0.028057452563755213,-0.023040567399945575
1772536358474323000,3.954322998046875,-0.0013274492114782332,-0.0028260537387803197,-0.020702619121805762
1772536358484372000,3.9643720703125,-0.033224808731675146,-0.005321852609887719,-0.021087691182945855
1772536358494420000,3.974419921875,-0.05211071098744869,-0.02043546978533268,-0.014050502005557063
1772536358504468000,3.984468017578125,-0.04917290396988391,-0.03428019953612238,-0.010914174457918853
1772536358514516000,3.994515869140625,-0.04252747460603714,-0.02991878945622593,-0.011507917408744106
1772536358524565000,4.00456494140625,-0.05251520013511181,-0.03834310159347951,0.0041418399119284004
1772536358534613000,4.014613037109375,-0.06419862366616726,-0.02185026848670095,-0.009551711015275213
1772536358544661000,4.024660888671875,-0.042108372411131856,-0.023173041523061693,-0.010978711611090692
1772536358554709000,4.034708984375,-0.019910569128394125,-0.03185045163854956,-0.011945893267478094
1772536358564757000,4.044757080078125,-0.015065467184782027,-0.04288023356646299,0.009602067804400576
1772536358574806000,4.054805908203125,-0.06091711777746677,-0.05817665996290743,0.008535383854381507
1772536358584853800,4.064853759765625,-0.020718378379940984,-0.04069865174368024,-0.00896798142674379
1772536358594902000,4.074902099609375,-0.0028133038550615308,-0.02474409023206681,-0.005608508081140462
1772536358604950000,4.084949951171875,-0.03683130879104137,-0.03843545605204999,-0.0035108862062741535
1772536358614999000,4.0949990234375,-0.016071429356932638,-0.05035425924155861,-0.01469344525981578
1772536358625047000,4.105047119140625,-0.010575170028209686,-0.03804159789625555,-0.01788922165191034
1772536358635094800,4.1150947265625,-0.01404839909672737,-0.06028280192930251,-0.008614449573116143
1772536358645143000,4.12514306640625,-0.003892331263422966,-0.06895641265250742,-0.022641087787540162
1772536358655191000,4.13519091796875,0.0077747256547212595,-0.04673559382036328,-0.0340109039083356
1772536358665240000,4.145239990234375,-0.017044073781371117,-0.04574716730490327,-0.029427208830288144
1772536358675288000,4.1552880859375,-0.029295652589201925,-0.04367459881454706,-0.022908362704887986
1772536358685335800,4.165335693359375,-0.03334931189417839,-0.024331454310566186,-0.0071612996142474
1772536358695384000,4.175384033203125,-0.017570728003978728,-0.011176314259134233,-0.01607325370454928
1772536358705432800,4.185432861328125,-0.0039139585733413695,-0.014478461077064275,-0.019798009848722722
1772536358715481000,4.195481201171875,0.0068944356888532635,-0.008855616226606071,-0.011984520802902989
1772536358725528800,4.20552880859375,0.0026256723284721374,-0.037791495592705907,0.003201353324577212
1772536358735576800,4.215576904296875,0.00036766426861286163,-0.05913209752421826,0.014288852222519926
1772536358745625900,4.2256259765625,-0.006459551402926445,-0.05151621569301933,0.016280786374851596
1772536358755673900,4.235673828125,-0.0033656770408153533,-0.038971170363947746,-0.005304887775355018
1772536358765722000,4.24572216796875,0.02805120548605919,-0.029019867855124174,-0.023781327880825848
1772536358775769900,4.255769775390625,0.008908698120713234,-0.019813940353505314,-0.02900058548263041
1772536358785817900,4.26581787109375,-0.02235387062728405,-0.03695533702950925,-0.024087978110625408
1772536358795867000,4.275866943359375,-0.009649871876835822,-0.05202701475936919,-0.02809350340795936
1772536358805915000,4.285914794921875,-0.006451952618360519,-0.04587181659787893,-0.027144630301464346
1772536358815963100,4.295963134765625,-0.022753683599829672,-0.04896189156770706,-0.02281778464487288
1772536358826011000,4.306010986328125,-0.035762218254804606,-0.05822079136557877,-0.006634873720502946
1772536358836060200,4.31606005859375,-0.04276245240569115,-0.04932429513931274,0.000022705022152513263
1772536358846108000,4.32610791015625,-0.044812955194711686,-0.03688186993449926,-0.005815814705868251
1772536358856156000,4.336156005859375,-0.04463058436512947,-0.04400952985733747,-0.0041005021128978116
1772536358866204000,4.346203857421875,-0.055687400430440896,-0.031577808709628875,-0.0005933513668249361
1772536358876252000,4.356251953125,-0.04610708665847778,-0.020429149642400442,-0.015617146250791848
1772536358886301000,4.366301025390625,-0.03175006000399589,-0.01089249234907329,-0.02898520068383077
1772536358896349000,4.376348876953125,-0.02815875751376152,-0.0016308160722255706,-0.030827049707830883
1772536358906397000,4.38639697265625,-0.028904022923111915,-0.0009354176865890622,-0.025031314242188817
1772536358916445000,4.39644482421875,-0.014527122524380683,0.0033658962365239855,-0.023524078883859326
1772536358926494000,4.406493896484375,-0.023943770167231558,0.01008366018421948,-0.03181486658522626
1772536358936542000,4.4165419921875,-0.02947802341878414,0.0004699555993080139,-0.028904844907019285
1772536358946590000,4.42658984375,-0.029629414588212964,-0.008625022341124713,-0.022148799342126584
1772536358956638000,4.436637939453125,-0.01961421653032303,-0.004265292761661112,-0.025508405118470544
1772536358966687000,4.44668701171875,-0.013796470162272452,-0.0020283640224486588,-0.029973768763185943
1772536358976735000,4.45673486328125,-0.013219547057151794,-0.0112537268768996,-0.007985386430448852
1772536358986783000,4.466782958984375,-0.01978489692211151,-0.04225081308912486,-0.0014324599389336072
1772536358996831000,4.4768310546875,-0.033197336202859876,-0.03962378905378282,0.004141593316756189
1772536359006879000,4.48687890625,-0.029698388171195984,-0.029117008086666462,-0.009758940008189528
1772536359016928000,4.496927978515625,0.001609188762307167,-0.019834946608915924,-0.026203328580071683
1772536359026975700,4.506975830078125,-0.009745148944854736,-0.026601298938691613,-0.02572336760998005
1772536359037019400,4.517019287109375,-0.061202364459633826,-0.04403996152821928,-0.0031617770827258936
1772536359047067600,4.527067626953125,-0.04549333867430687,-0.02491758363544941,-0.014159850981412455
1772536359057116400,4.537116455078125,-0.016504560077190398,0.0002740311684086919,-0.03408357870219042
1772536359067164700,4.54716455078125,-0.02166705740690231,-0.004308583914116025,-0.037018314696545714
1772536359077212700,4.557212646484375,-0.047643210184574125,-0.026485709735006094,-0.011565592137933707
1772536359087260400,4.567260498046875,-0.04862228434979916,-0.020095351110771296,-0.0008073274776455946
1772536359097309700,4.577309814453125,-0.0286345583319664,0.0017248875638470054,-0.012956966581230517
1772536359107357400,4.587357421875,-0.01749181754887104,-0.016450820595957337,-0.023701606858253944
1772536359117405700,4.59740576171875,-0.0030839374899864196,-0.0024537498276680707,-0.010835933006380218
1772536359127453400,4.607453369140625,-0.009155950880050659,-0.006437668364681303,-0.005708917982003185
1772536359137501400,4.61750146484375,-0.003367430606484413,-0.02365958293098956,-0.0065260932835168204
1772536359147550500,4.627550537109375,-0.02732639834284782,-0.017628960997238752,-0.00660362463229103
1772536359157598500,4.637598388671875,-0.0331657720208168,-0.017551986770890652,0.003866669382492546
1772536359167646700,4.647646728515625,-0.026426234632730482,0.0008131795464083552,-0.009861030409485102
1772536359177694500,4.657694580078125,-0.031381811213493344,0.022126856938377022,-0.03801302938889712
1772536359187743700,4.66774365234375,-0.015443652847409247,0.01341894208677113,-0.035903371158009394
1772536359197791500,4.67779150390625,-0.0173322430729866,0.011789295058324932,-0.017903407724178394
1772536359207839500,4.687839599609375,-0.02893207997381687,-0.015234613206610082,-0.027020871491055004
1772536359217887700,4.6978876953125,-0.014921674799919127,-0.03248071236610412,-0.028158552017784676
1772536359227936500,4.7079365234375,-0.02422258710861206,-0.027857765273191032,-0.021841244930028914
1772536359237984800,4.71798486328125,-0.03651099079549312,-0.0034128771834075447,-0.018750681336433626
1772536359248032500,4.728032470703125,-0.005117489144206047,0.008132891442626715,-0.036550998578895814
1772536359258080500,4.73808056640625,0.01772913343608379,0.013436039352044462,-0.022412779473979023
1772536359268128500,4.74812841796875,-0.03901975874602794,-0.007371222887746989,-0.011097349005099386
1772536359278177500,4.758177490234375,-0.04936345810592174,-0.04181947246715426,-0.016891673398367127
1772536359288225500,4.7682255859375,-0.023030746975541114,-0.03060260700192302,-0.011431617894186638
1772536359298273500,4.7782734375,-0.022453823870420456,-0.013406411398760974,-0.01994486412364058
1772536359308321500,4.788321533203125,-0.02188625311553478,0.005321195022761822,-0.015535080290795302
1772536359318370600,4.79837060546875,-0.02072247003316879,-0.00028418723624199627,0.003844610531022772
1772536359328418600,4.80841845703125,-0.0188093298882246,-0.004597045466676354,-0.00010335534319747238
1772536359338466600,4.818466552734375,-0.059227264994382856,-0.00022964403741061685,0.01573394559745211
1772536359348514600,4.8285146484375,-0.05597849233150482,0.0029318887334316966,-0.0024036590416682884
1772536359358562600,4.8385625,0.021886837637424467,0.026327888824790716,-0.03144667944351676
1772536359368611600,4.848611572265625,0.00024725275933742524,0.009611877954006195,-0.008634877014858648
1772536359378659600,4.85865966796875,-0.046643677753210065,-0.02395188040845096,-0.015320642955671064
1772536359388707600,4.86870751953125,-0.03139993139207363,-0.03789974174015224,-0.011261901050200685
1772536359398755600,4.878755615234375,0.002867079868912697,-0.022634075808152555,-0.015297810069355182
1772536359408804600,4.8888046875,-0.0186567696750164,-0.007896087012067437,-0.007999647851241753
1772536359418852600,4.8988525390625,-0.035377602851390834,-0.006604878157749771,-0.011130940747447311
1772536359428900600,4.908900634765625,-0.03040507513582706,-0.001087210714817047,-0.0392508366886992
1772536359438948600,4.918948486328125,-0.012139350605010986,-0.00491714426651597,-0.026531571870460173
1772536359448996600,4.92899658203125,-0.025929975548386573,-0.008653335120156407,-0.0218121284333989
1772536359459045600,4.939045654296875,-0.026001287218928335,-0.016577406117692588,-0.020644093867600893
1772536359469093600,4.94909375,-0.016385902133584023,-0.0025888474494218825,-0.026758836721116674
1772536359479141400,4.959141357421875,0.003397241222858429,-0.0068175710603594775,-0.024194667055224998
1772536359489189600,4.969189697265625,-0.010479308438301086,-0.026774536613747475,-0.01346424253322184
1772536359499238400,4.97923828125,-0.03391045290827751,-0.03938084714338183,0.007884255010378547
1772536359509286700,4.98928662109375,-0.027977555727958677,-0.037670316898450254,0.013858913539769127
1772536359519334700,4.999334716796875,-0.023656769919395446,-0.02379033317118883,0.010227653498481959
1772536359529382400,5.00938232421875,-0.07524082668423653,-0.03525799505971372,0.023879532124870456
1772536359539431700,5.019431640625,-0.0011310498565435408,-0.009926496861129999,-0.027073222732800058
1772536359549479400,5.0294794921875,-0.009054244071245193,0.028237083446979522,0.0005439341509714722
1772536359559527700,5.039527587890625,-0.014773790761828422,0.018830080415308474,-0.013219492258224635
1772536359569575400,5.049575439453125,-0.01871697542965412,0.039939357808977366,-0.007595994387217797
1772536359579623700,5.059623779296875,-0.053203766921162604,0.03430544357523322,-0.03346675512823276
1772536359589672400,5.06967236328125,-0.04745031796097755,0.019813392364233733,-0.04471199730457738
1772536359599720400,5.079720458984375,-0.0417144046574831,0.03242781313508749,-0.02357740280656144
1772536359609768700,5.089768798828125,-0.051851767790317534,0.011814356434345245,-0.027774598768074064
1772536359619816400,5.09981640625,-0.013970657685399054,0.02098155936077237,-0.02293153351792134
1772536359629865700,5.10986572265625,0.003101473146677017,0.019254297176748512,-0.0039873252036515625
1772536359639913500,5.11991357421875,-0.03159633074700832,0.005593947549536824,0.03233137615644373
1772536359649961500,5.12996142578125,-0.009379822763800621,-0.018958090709149836,-0.016830357965454457
1772536359660009700,5.140009765625,0.06928805575966834,0.0014662000950425862,-0.04394168878551572
1772536359670058500,5.15005859375,0.03024257805049419,-0.004749459549412131,-0.013977891143783927
1772536359680106800,5.160106689453125,0.007840776628255844,-0.02736351548284292,-0.0298659267578274
1772536359690154500,5.170154541015625,-0.0033200843334197996,-0.00916574162170291,-0.02447528322804719
1772536359700202500,5.180202392578125,-0.021672902625799177,0.0005175210680812597,-0.027987383002229034
1772536359710250500,5.19025048828125,-0.015481646770238876,0.0034878421157598493,-0.040156315894750876
1772536359720299500,5.200299560546875,-0.011088380247354507,-0.007916545278206467,-0.024092594920238478
1772536359730347500,5.210347412109375,-0.026759412109851836,-0.011317147501930594,-0.021105614998703823
1772536359740395500,5.2203955078125,-0.016090718579292295,-0.03045183688700199,-0.01326586128375493
1772536359750443800,5.23044384765625,-0.027104864546656608,-0.022599442886188623,-0.0022160229485016316
1772536359760492500,5.240492431640625,-0.029594927796721456,-0.014752236517146229,-0.010396872585546224
1772536359770540500,5.25054052734375,-0.026540216401219365,-0.010063055787608027,0.0006256576176732778
1772536359780588500,5.260588623046875,-0.035757542079687114,-0.0019237346041947603,0.005960625437460839
1772536359790636500,5.270636474609375,-0.03975625632703304,-0.003937266383692622,0.009498882566206157
1772536359800684800,5.280684814453125,-0.029127894806861877,-0.005507657505571842,0.012224371140496805
1772536359810733600,5.290733642578125,-0.028547464570403098,0.0033615123223513363,0.009008112507732584
1772536359820781600,5.300781494140625,-0.04773731820881366,-0.004874474168568849,-0.014798550743749365
1772536359830829600,5.31082958984375,-0.06198679283559322,-0.008278510458394884,-0.006598375351727009
1772536359840877600,5.320877685546875,-0.07247603814601898,0.0075632748611271375,0.006228382128709927
1772536359850926600,5.330926513671875,-0.06409925494492054,0.016466127762943504,0.008797666361136361
1772536359860974600,5.340974609375,-0.04988777424097061,0.032496202196180816,-0.0005769413714297115
1772536359871022600,5.351022705078125,-0.03494564117491245,0.04504515651538968,0.005775998718710616
1772536359881070600,5.361070556640625,-0.047854807108640665,0.043291663911566136,0.007710546977864578
1772536359891118600,5.37111865234375,-0.044185763207077976,0.04141293749287724,0.0003055040189065039
1772536359901167600,5.381167724609375,-0.014949147328734397,0.041056306074932214,-0.005927435553912073
1772536359911215600,5.391215576171875,-0.02430149756371975,0.02600866680778563,-0.014069569748919456
1772536359921263600,5.401263671875,-0.01864507923722267,0.0028525398869067428,-0.030386580497911198
1772536359931311600,5.4113115234375,-0.02433890696465969,-0.025118001578375695,-0.024035932829556985
1772536359941360400,5.4213603515625,-0.01024082350730896,-0.035491803815588356,-0.046065375541755924
1772536359951408600,5.43140869140625,0.010294599521160125,-0.04617934817709028,-0.06347209035675042
1772536359961456600,5.44145654296875,0.006150339323282242,-0.047698228307440874,-0.06696007860298268
1772536359971504600,5.451504638671875,-0.03375964626073837,-0.04096884698718786,-0.044723121486790474
1772536359981553700,5.4615537109375,-0.039865561920404434,-0.03132313982881606,-0.04371456549875438
1772536359991601400,5.471601318359375,-0.010067805027961731,-0.00007226151861250401,-0.03972749602342956
1772536360001649700,5.481649658203125,-0.005416179829835891,0.017300971151888368,-0.050050563587248326
1772536360011697400,5.491697509765625,-0.014390344402194022,0.009032032239437103,-0.040222348601976404
1772536360021745700,5.50174560546875,-0.00540624295771122,0.00866875188499689,-0.01425294522549957
1772536360031794400,5.51179443359375,0.0045043256819248196,0.0068062459487468,-0.00452886646813713
1772536360041843000,5.521843017578125,-0.014435937109589576,-0.005149930109083652,0.0160912391691003
1772536360051891000,5.531890869140625,-0.03796586577892303,0.003990604006126523,0.019133346811356023
1772536360061938700,5.541938720703125,-0.042186698344349856,0.003517871927842498,0.004122505023796111
1772536360071988000,5.551988037109375,-0.03668108666539192,0.00845116361156106,-0.011903559954604133
1772536360082035700,5.56203564453125,-0.01594166549742222,-0.001785933568701148,-0.022137889789044855
1772536360092084000,5.572083984375,-0.024859715968370437,-0.026181246895715594,-0.017839261013362556
1772536360102132000,5.582132080078125,-0.03996785325109958,-0.047897842532768846,-0.007539893985539674
1772536360112181000,5.592180908203125,-0.015607903498411178,-0.04247486763596534,-0.011051591900922357
1772536360122228700,5.602228759765625,-0.03885083191990852,-0.038229046759754415,-0.003985818233154714
1772536360132276700,5.61227685546875,-0.04666472054123878,-0.030692732970789074,-0.001604220326244831
1772536360142325000,5.622324951171875,-0.03996843777298927,-0.02345131047517061,0.0004853814973030239
1772536360152372700,5.632372802734375,-0.029215573090314865,-0.01445858733281493,-0.000806576275685802
1772536360162422000,5.642422119140625,-0.042404140487313266,-0.020958178485184907,-0.007189226517500355
1772536360172469800,5.6524697265625,-0.030624270844459532,-0.010981558872014284,-0.01915721174413338
1772536360182517800,5.662517822265625,-0.03516659044921398,0.0024521423924714326,-0.023506465595355255
1772536360192566000,5.67256591796875,-0.061712652069330215,0.021154504774883388,-0.03435973104573786
1772536360202614800,5.68261474609375,-0.0581926612496376,0.023182357340678573,-0.024769763529440388
1772536360212663000,5.6926630859375,-0.03733282857239246,0.037455797364935275,-0.027131460292637348
1772536360222710800,5.702710693359375,-0.045346039158105846,0.06007694062627852,-0.029399770550802347
1772536360232758800,5.7127587890625,-0.06384615696668625,0.04396642136797309,-0.025335845580138263
1772536360242806800,5.722806884765625,-0.01712181519269943,0.029361484367027877,-0.028075527076562867
1772536360252855800,5.732855712890625,-0.0003162263423204422,0.040324996125698086,-0.029859168223477898
1772536360262903800,5.74290380859375,0.00168225399851799,0.03410743678510189,-0.03326272045611404
1772536360272951800,5.752951904296875,0.022245149555802344,-0.007248802084475755,-0.023072741220053285
1772536360282999800,5.762999755859375,0.0028881226569414135,-0.029739304703474044,-0.004027565882494673
1772536360293048800,5.773048828125,-0.006849427503347397,-0.04858743223212659,-0.002732639834284782
1772536360303096800,5.783096923828125,-0.0026285949379205704,-0.05307385693117976,0.0015771679225377738
1772536360313144800,5.793144775390625,0.008066402077674865,-0.05102284268550575,-0.011184926823852583
1772536360323192800,5.80319287109375,-0.002333995905518532,-0.0446510426312685,-0.006332527489773929
1772536360333240800,5.81324072265625,-0.026678748089075086,-0.0379649889960885,-0.011793569374643266
1772536360343289900,5.823289794921875,-0.02681669525504112,-0.02049151082150638,-0.011072826485196127
1772536360353337900,5.833337890625,-0.031027590948343276,-0.020855667958781122,-0.014111417862959205
1772536360363385900,5.8433857421875,-0.018363924208283422,-0.035864436520263554,-0.0017991309769917279
1772536360373433900,5.853433837890625,-0.008248188385367393,-0.03709755851179361,-0.003800013337470591
1772536360383483000,5.86348291015625,-0.020417934128642082,-0.040006139434874056,0.00013985599526204168
1772536360393531000,5.87353076171875,-0.02163140157163143,-0.0522349949542433,0.003495450033480301
1772536360403579000,5.883578857421875,-0.037352117794752115,-0.051679772224277255,0.0018594828621018677
1772536360413627000,5.893626953125,-0.024656302350759506,-0.0347643663238734,0.0008907382946461438
1772536360423675600,5.903675537109375,-0.026201778227090834,-0.0070195964384824035,0.004864674293762072
1772536360433724000,5.913723876953125,-0.01699848107397556,0.011370412059128284,-0.0005350293253082782
1772536360443772000,5.92377197265625,-0.028909868142008778,0.01069192827567458,-0.010447525060549377
1772536360453819600,5.933819580078125,-0.03872399066984653,-0.00556428306363523,-0.010525083808787167
1772536360463868000,5.943867919921875,-0.048396658900380134,-0.014446604634076356,0.0011558829037006944
1772536360473916700,5.953916748046875,-0.04117079930007458,-0.006170578393712639,-0.005629840846825391
1772536360483965000,5.96396484375,-0.048158758491277695,0.01094035007879138,-0.010817536549875512
1772536360494013000,5.974012939453125,-0.03257189778089523,0.027092005065083503,-0.001947672602208331
1772536360504060700,5.984060791015625,-0.028206688308715817,0.03797865219525993,-0.00999698654776439
1772536360514110000,5.99410986328125,-0.017850129467248916,0.02522219260521233,-0.013204093759693204
1772536360524157700,6.00415771484375,-0.04986322432160377,0.007632979096472263,-0.00026120821945369244
1772536360534206000,6.0142060546875,0.019292729490995406,-0.010155337180942296,-0.025747805648203937
1772536360544254000,6.02425390625,-0.0006862286984920501,-0.041042131419107314,-0.0061652263651601966
1772536360554301700,6.0343017578125,-0.029923429098725318,-0.04938873867765069,-0.022366547445766626
1772536360564350700,6.044350830078125,0.027643209207057953,-0.040430502326786515,-0.0302491995875258
1772536360574398700,6.054398681640625,-0.0008218377768993377,-0.027376228833943604,-0.04602476040357724
1772536360584447000,6.064447021484375,0.00421674091219902,-0.035865021042153236,-0.02891425205618143
1772536360594494700,6.07449462890625,0.0045949265748262405,-0.04151559414975345,-0.03789950427813455
1772536360604544000,6.0845439453125,-0.02016132901906967,-0.0347947614621371,-0.01906393483695574
1772536360614591700,6.094591796875,-0.018539865297079086,-0.04636610292084515,-0.030254743412323294
1772536360624639700,6.1046396484375,0.00988835680782795,-0.014360314590111374,-0.020213333200942724
1772536360634688000,6.11468798828125,-0.0376753583997488,0.012006298809871077,-0.01501066825762391
1772536360644735700,6.12473583984375,-0.01729658723771572,0.019879297207295893,0.005490194914117455
1772536360654785000,6.134784912109375,-0.01591886914372444,0.036419659250229594,-0.0034704617226962
1772536360664832800,6.144832763671875,-0.010645897176861763,0.03573671848736703,0.0014424630264285952
1772536360674880800,6.154880859375,0.023073417073488235,0.02724697643108666,0.01443209205153398
1772536360684928800,6.1649287109375,0.01000116953253746,0.008708060982078313,0.027435119414329526
1772536360694977800,6.174977783203125,-0.042837271207571026,-0.015753157187998294,0.027384165545227004
1772536360705025800,6.18502587890625,-0.05346271011829376,-0.01106821424216032,0.015892666123388334
1772536360715073800,6.19507373046875,-0.025184710139036177,0.011573021959140896,-0.007319949358236044
1772536360725121800,6.205121826171875,-0.021770517781376838,0.018434212965518237,-0.03619658195092343
1772536360735170800,6.2151708984375,-0.029468671068549154,-0.0031445085708051916,-0.022009897761512548
1772536360745218800,6.22521875,-0.06713876877129077,-0.019622180641070006,-0.021749210131866856
1772536360755266800,6.235266845703125,-0.02676876446008682,-0.03532097729332745,-0.021660691598197446
1772536360765314800,6.245314697265625,0.012231705063581465,-0.04378200471177697,-0.01693099619518034
1772536360775362800,6.25536279296875,-0.02927987049818039,-0.06573840045407414,-0.010875979605689643
1772536360785411800,6.265411865234375,-0.07331307349205017,-0.0738189041223377,0.0016835326401516794
1772536360795459800,6.2754599609375,-0.0500058476626873,-0.054946957326680416,0.002561685447860509
1772536360805507800,6.2855078125,-0.00023556232154369353,-0.022604484387487172,-0.011178789344010873
1772536360815555800,6.295555908203125,-0.01319441261589527,-0.025335224525630473,-0.007086551594315096
1772536360825604900,6.30560498046875,-0.023480244308710096,-0.0396365024048835,-0.015104255692055448
1772536360835652900,6.31565283203125,0.0040974984467029565,-0.03217113496027887,-0.008897701802663504
1772536360845700900,6.325700927734375,-0.03621405367553234,-0.03239120745174587,0.008597312350291758
1772536360855748900,6.335748779296875,-0.05017360544502735,-0.03182115247882902,-0.01476665776814334
1772536360865796900,6.345796875,0.0023100305080413818,0.008591887256503105,-0.005421486192615703
1772536360875846000,6.355845947265625,-0.035436639562249184,0.027807459858059883,-0.002698673632601276
1772536360885894000,6.365893798828125,-0.07046878997683524,0.010028934322297572,-0.0007484528802800923
1772536360895941600,6.375941650390625,-0.07125321835279465,0.0022932255037128924,-0.003314978900039568
1772536360905990000,6.385989990234375,-0.03271861277520657,0.022102380084246396,-0.006374823128385469
1772536360916038700,6.39603857421875,-0.009320786052942275,0.02029175046570599,-0.030171056317398325
1772536360926087000,6.4060869140625,0.012422843721508979,0.004169833030551672,-0.04178186213681474
1772536360936135000,6.416135009765625,0.0024339491486549377,-0.027298195161670445,-0.01559991198820062
1772536360946182700,6.4261826171875,-0.017391864305734632,-0.057155573286861175,-0.0041124494206625966
1772536360956232000,6.43623193359375,-0.03149754654765129,-0.06210998082384467,-0.027000372125720602
1772536360966279700,6.44627978515625,0.009610708910226822,-0.04362769093289971,-0.04444168333006091
1772536360976328000,6.456327880859375,0.009404372683167458,-0.03707278939671814,-0.03878258898928761
1772536360986376000,6.4663759765625,-0.023276830691099166,-0.04619651850759983,-0.046367655557114626
1772536360996423700,6.476423583984375,-0.023174539360404013,-0.04341353672556579,-0.03656416402114555
1772536361006472700,6.48647265625,0.0011608604729175568,-0.02788914679214358,-0.04824295704285614
1772536361016520700,6.496520751953125,0.004409633135795593,-0.030422464662045238,-0.03534849548791535
1772536361026569000,6.50656884765625,-0.0369347691655159,-0.030406974831968542,-0.02243933868734166
1772536361036617500,6.516617431640625,-0.022477789267897605,-0.009353884604945779,-0.030561955331126225
1772536361046666500,6.52666650390625,-0.026299393382668495,0.013406009539961815,-0.007440817525237798
1772536361056714500,6.536714599609375,-0.03850187235176563,0.005778071944788098,-0.02013057768777944
1772536361066762500,6.546762451171875,-0.040241994017362594,0.009181377582252025,0.0018754658825229852
1772536361076810200,6.556810302734375,-0.03001344546973705,0.011263298422843217,-0.008950646699452771
1772536361086858500,6.5668583984375,-0.022482465443015097,0.01005794122107327,-0.009015537762362509
1772536361096907300,6.5769072265625,-0.033194413593411444,-0.004290609866008163,-0.01034897832321003
1772536361106955500,6.58695556640625,-0.037756606942415234,-0.005733575215935707,-0.01375956308483146
1772536361117003500,6.59700341796875,-0.03753331958055496,0.001819762773066759,-0.024315105963964013
1772536361127051300,6.60705126953125,-0.0462806896597147,0.005298471734300255,-0.015794091986585407
1772536361137100500,6.6171005859375,-0.03380348540246486,0.008695786022394895,-0.027643729796865954
1772536361147148300,6.627148193359375,-0.03285305280983448,0.017756094508245588,-0.03053650122946128
1772536361157196500,6.637196533203125,-0.05778349592685699,0.008555281573161481,-0.021143992514023557
1772536361167244500,6.64724462890625,-0.031681086421012875,-0.011078443375229835,-0.026357964302645996
1772536361177292300,6.657292236328125,0.006384148079156876,-0.0071780749358236785,-0.028262765877507624
1772536361187341600,6.667341552734375,-0.003568506136536598,-0.019025529922172425,-0.02018131236117333
1772536361197389300,6.677389404296875,-0.05510112497508526,-0.03234539554864168,-0.014302784849749877
1772536361207437600,6.6874375,-0.012085574591159819,0.0004052198000252247,-0.032204452707991
1772536361217485300,6.6974853515625,0.03732464526593685,0.015881825068965554,-0.03564740536925383
1772536361227534600,6.70753466796875,-0.002009001734852791,-0.018290201384946702,-0.03423332818709314
1772536361237582300,6.717582275390625,-0.03148001089096069,-0.028327392078936097,-0.004268745094072073
1772536361247630300,6.72763037109375,-0.0052495910912752144,-0.02931559939868748,0.005760609353333711
1772536361257678600,6.7376787109375,-0.011599836900830269,-0.030633550129458308,-0.008255284846434369
1772536361267726300,6.747726318359375,-0.03632335926890373,-0.024867387818172573,-0.004231518356222659
1772536361277775600,6.757775634765625,-0.01943769091963768,-0.011847162725403905,-0.006691734457295388
1772536361287823400,6.7678232421875,0.004026186776161194,-0.003115501672029495,-0.013796634559053927
1772536361297871400,6.777871337890625,-0.005882628297805786,0.01102474042661488,-0.022431146247731522
1772536361307919600,6.787919677734375,-0.02672083366513252,0.0018091683138161897,-0.028942765764612702
1772536361317968400,6.797968505859375,-0.027658406776189803,-0.0062275692779570815,-0.018853342559887094
1772536361328016600,6.8080166015625,-0.03262158214151859,0.005318856935203075,0.0002928545998875052
1772536361338064400,6.818064453125,-0.05580722741782665,0.0100189974501729,-0.015311669631348923
1772536361348112400,6.8281123046875,-0.0442851319283247,0.03485730530433356,-0.02585755876614712
1772536361358161400,6.838161376953125,-0.014064765709638594,0.04779306698404252,-0.03039488253537565
1772536361368209400,6.84820947265625,-0.004535889863967895,0.029646219592541455,-0.03749005582756362
1772536361378257400,6.85825732421875,-0.017015432208776472,-0.001040156702697277,-0.022631929516838862
1772536361388305400,6.868305419921875,-0.0157288995295763,-0.007822437253966927,-0.003859333176119253
1772536361398353400,6.878353515625,-0.006060322952270507,-0.009866510302200912,0.003213308623852208
1772536361408402400,6.88840234375,0.0005026888251304626,-0.023422230511158704,0.006212609170842915
1772536361418450400,6.898450439453125,-0.02284019283950329,-0.023993892919272182,-0.003172775684064254
1772536361428498400,6.90849853515625,-0.025053777235746384,-0.029795199609175323,0.0016915332835167646
1772536361438546400,6.91854638671875,-0.02231763027012348,-0.03727401105724275,-0.009339527286030352
1772536361448595500,6.928595458984375,-0.02708031462728977,-0.04680632096901536,-0.024632729678926987
1772536361458643500,6.9386435546875,-0.045621933490037916,-0.02866312683932483,-0.02087067373166792
1772536361468691500,6.94869140625,-0.05729542014896869,-0.014222586619853973,-0.026766873897099867
1772536361478739500,6.958739501953125,-0.05494155049920082,0.0004225362610071897,-0.030117380768246948
1772536361488787500,6.968787353515625,-0.05157353537082672,0.0021247370690107344,-0.010077504438068718
1772536361498836500,6.97883642578125,-0.055717211046814916,0.016555998003482817,-0.0021863949952181426
1772536361508884500,6.988884521484375,-0.039221418797969816,0.029395167440921067,0.0030791151843965053
1772536361518932200,6.99893212890625,-0.03769055596888065,0.028066110794246195,0.012651921503338963
1772536361528980500,7.00898046875,-0.041407530665397645,0.030441388558223842,0.01266109119048342
1772536361539029200,7.019029296875,-0.00007715688943862914,0.040708150224387646,-0.0038563466345891352
1772536361549077500,7.029077392578125,0.032467852884531016,0.027250556627660988,-0.000019992475258186458
1772536361559125500,7.03912548828125,0.005646481454372406,0.005692585618421435,0.00999115046202205
1772536361569173500,7.049173583984375,0.005939326921105385,-0.01798646919801831,0.002056147078517824
1772536361579221500,7.059221435546875,0.011206453669071198,-0.01125299622453749,0.004555215618945658
1772536361589270300,7.069270263671875,-0.013886486533284186,-0.01148278639242053,-0.021600869436049833
1772536361599318500,7.079318603515625,-0.0015770400583744047,-0.02132591581903398,-0.03280482062078081
1772536361609366500,7.089366455078125,-0.01710837118923664,-0.03253704566322267,-0.038096972212148826
1772536361619414500,7.09941455078125,-0.03536006719470024,-0.03484086562618613,-0.04303693109867163
1772536361629463600,7.109463623046875,-0.018034838384389875,-0.031040815756097434,-0.04685959465936757
1772536361639511300,7.11951123046875,-0.036029344758391375,-0.014881635050475597,-0.04716399356657639
1772536361649559600,7.1295595703125,-0.05045651403963566,-0.01745996110588312,-0.04339635726190172
1772536361659607300,7.139607177734375,-0.006381225469708442,-0.010581307508051394,-0.037738532429607584
1772536361669655600,7.149655517578125,-0.014508417823910713,0.002787146500498056,-0.01774642249760218
1772536361679704300,7.159704345703125,-0.034303836140036584,-0.01612542456649244,-0.010039793643029406
1772536361689752300,7.16975244140625,-0.004249474138021469,-0.01903824327327311,-0.0123227260815911
1772536361699800600,7.179800537109375,0.022402385944128037,-0.005541998166590929,-0.008523470795946194
1772536361709848300,7.189848388671875,-0.02377601238489151,-0.0053485214211046695,-0.002247066540736705
1772536361719897600,7.199897705078125,-0.06813011789619922,-0.014607932675629853,0.02236661137784831
1772536361729945300,7.2099453125,-0.03246025409996509,0.01684657844789326,-0.013827239759871735
1772536361739993600,7.21999365234375,-0.031705051818490024,0.05333681871630251,-0.01531071978327818
1772536361750041600,7.23004150390625,-0.0799386291116476,0.045840033220127224,-0.010642408311832696
1772536361760090400,7.24009033203125,-0.09052782766520977,0.030668767573311922,-0.009903791838977485
1772536361770138600,7.250138671875,-0.07005027230381965,0.026207842641696334,-0.010848306147474795
1772536361780186400,7.260186279296875,-0.09194061707258223,0.026906346299871802,-0.0012751801681239157
1772536361790234600,7.270234619140625,-0.08020809370279312,0.021727701552957297,-0.01950142207192257
1772536361800282400,7.280282470703125,-0.03526946630179882,0.022318726248666643,-0.01857343877311796
1772536361810331400,7.290331298828125,-0.037482466176152224,0.009004851971566677,-0.023451073013152926
1772536361820379400,7.30037939453125,-0.03956277958154678,0.002024564630165696,-0.031536645582178606
1772536361830427400,7.310427490234375,-0.0033066403299570083,-0.0017333265986293554,-0.03772707945383154
1772536361840475600,7.3204755859375,0.0018599486529827117,-0.020960005116090176,-0.05037050712346099
1772536361850524400,7.3305244140625,-0.024671499919891357,-0.027601123631000517,-0.05220243525835685
1772536361860572400,7.340572509765625,0.014082885888218879,-0.01865231269560754,-0.044646019396279005
1772536361870620400,7.350620361328125,0.042400633355975145,-0.017424232205376027,-0.03688391576111316
1772536361880668400,7.36066845703125,-0.023078093248605727,-0.007482172448933124,-0.028794717329740524
1772536361890716700,7.370716552734375,-0.0013169278174638747,0.006339870546013117,-0.04257529580313712
1772536361900765400,7.380765380859375,0.015230302357673644,0.02605411338470876,-0.030476167610660194
1772536361910813700,7.390813720703125,-0.008019055804610252,0.022336919492483138,-0.04174722008169628
1772536361920861400,7.400861328125,-0.00017009586989879608,0.017061974764242767,-0.037625646639661864
1772536361930909400,7.410909423828125,0.009651625442504882,0.017013970904052256,-0.017686061479337514
1772536361940958500,7.42095849609375,-0.018931494963169097,-0.007831935734674333,0.000655504766665399
1772536361951006500,7.43100634765625,-0.029513094732165335,-0.017968129823729397,-0.01204500511875376
1772536361961054500,7.441054443359375,-0.006247369956970215,0.00917735899426043,-0.0016358393072150646
1772536361971102500,7.4511025390625,-0.03068272303342819,0.01879427844956517,-0.0135973125946708
1772536361981150500,7.461150390625,-0.04720598781108856,0.02013297970741987,-0.026059081820771098
1772536361991199500,7.471199462890625,-0.009146598529815673,0.02411715397275984,-0.026917351751076055
1772536362001247500,7.48124755859375,-0.009122633132338524,0.028710619242861866,-0.0052821781866252415
1772536362011295500,7.49129541015625,-0.021536709025502202,-0.0006498422108590602,-0.006239296248368918
1772536362021343500,7.501343505859375,0.0027057518273591995,-0.0050930853553116315,-0.011709854880254715
1772536362031392500,7.511392578125,-0.007759528085589409,-0.006090206633880734,0.005452109659742564
1772536362041440300,7.521440185546875,-0.054985389640927314,-0.023442031190171835,0.00007760441401042044
1772536362051488300,7.53148828125,-0.04997019182741642,-0.03965381886586547,0.0020562292769085613
1772536362061536300,7.541536376953125,-0.02222001511454582,-0.031335341723263264,-0.0001928100252058357
1772536362071584300,7.551584228515625,-0.044321372285485265,-0.027066359167173502,-0.008563254817062988
1772536362081633000,7.561633056640625,-0.04044599215686321,-0.03259484026506543,-0.024565975452493876
1772536362091681300,7.571681396484375,-0.027951836764812468,-0.017247414333745836,-0.007032583784218878
1772536362101729300,7.581729248046875,-0.07111702475249766,-0.010109890604019164,0.030698943515866994
1772536362111777300,7.59177734375,-0.012030045011639595,-0.05102138138078153,-0.023473997231014072
1772536362121826000,7.601825927734375,0.028063480445742604,0.013755992021411657,0.0009743157917167991
1772536362131874300,7.611874267578125,-0.027465514552593228,0.024129940389096736,0.010841995137697085
1772536362141922300,7.62192236328125,-0.03871054666638374,-0.00414484471976757,0.014164581955457105
1772536362151970000,7.631969970703125,-0.018549802169203756,0.005227671520411968,-0.01105569268730469
1772536362162018300,7.642018310546875,-0.0006622633010149001,0.02295936223976314,-0.01368837014529854
1772536362172067000,7.652067138671875,-0.0011953472644090652,0.014345993803814053,-0.0151780241811648
1772536362182115300,7.662115234375,-0.0033908114820718764,0.005032441209256649,-0.004213023718306795
1772536362192163300,7.672163330078125,-0.008102642434835433,-0.01572816887721419,-0.0028538185285404325
1772536362202211000,7.682211181640625,-0.007099018350243568,-0.013875088356435299,-0.008269496034877375
1772536362212260400,7.69226025390625,-0.01173661502301693,-0.02541406191550195,-0.016195402796473354
1772536362222308000,7.70230810546875,-0.0010918868899345397,-0.0209095170378685,-0.0417652123961132
1772536362232356400,7.7123564453125,-0.033981764578819275,-0.022898571963235734,-0.046449141561798746
1772536362242404000,7.722404052734375,-0.029323125118017195,-0.016000044621154664,-0.061383036522474135
1772536362252452000,7.7324521484375,-0.01301496439576149,-0.006475918015837669,-0.06110150703419931
1772536362262501000,7.742501220703125,-0.027260347369313237,-0.015700842478871345,-0.058833708232687784
1772536362272549000,7.752549072265625,-0.020735914036631584,-0.036589170598238706,-0.06468441615542396
1772536362282597400,7.762597412109375,-0.013605916026234626,-0.04038118329234421,-0.04953449469073675
1772536362292645000,7.77264501953125,-0.02698796016871929,-0.04391914816014469,-0.028968274665204807
1772536362302694400,7.7826943359375,-0.03871405379772186,-0.02870119382739067,-0.020106082567339763
1772536362312742100,7.7927421875,-0.03219137403070926,-0.01478065889403224,-0.010517064899113028
1772536362322790100,7.8027900390625,-0.014174655824899672,0.0016750205401331185,-0.018487870248360558
1772536362332838400,7.81283837890625,-0.004279284754395485,0.022310250681266186,-0.007923431676719337
1772536362342886100,7.82288623046875,-0.023550386935472487,0.006854103678464889,0.006921661622496322
1772536362352935400,7.832935302734375,-0.028142390900850293,-0.013857918025925755,0.02117891769693233
1772536362362983200,7.842983154296875,-0.027165070301294326,0.0014814707294106483,0.02707738288468681
1772536362373031200,7.85303125,0.004063596177101135,0.01308430330492556,0.009336385480873286
1772536362383079200,7.8630791015625,-0.03744622581899166,0.034421982626989485,0.0378350242071785
1772536362393128200,7.873128173828125,0.0031797990798950195,0.02073291836194694,0.00016150157148949802
1772536362403176200,7.88317626953125,-0.023715222108364103,0.009264598886296152,0.00393714765268378
1772536362413224200,7.89322412109375,-0.03237432938218117,0.00023446634300053118,0.00015489830076694487
1772536362423272200,7.903272216796875,-0.013923311412334442,-0.016604586385563017,0.00630174875902012
1772536362433320200,7.9133203125,-0.04514613267183304,-0.030676293292641637,-0.014843376266164705
1772536362443369200,7.923369140625,-0.012945406290888785,-0.022408011967316267,-0.021601755352038888
1772536362453417200,7.933417236328125,-0.01336392396390438,-0.009618161564320325,-0.0270452524470631
1772536362463465200,7.94346533203125,-0.01467325299680233,-0.025520371834188697,-0.023049570407019927
1772536362473513200,7.95351318359375,-0.011061492240428924,-0.03645516895502805,-0.02324494684864767
1772536362483562200,7.963562255859375,0.011860533663630485,-0.03024053222388029,-0.02333456136086024
1772536362493610200,7.9736103515625,0.021938860085606575,-0.033908480146899816,-0.01976306868279353
1772536362503658200,7.983658203125,0.02097965966463089,-0.046126010554656385,-0.0020385292234364897
1772536362513706200,7.993706298828125,-0.008218377768993377,-0.03879647138416767,0.020964708690671248
1772536362523755300,8.00375537109375,0.00391045144200325,-0.02031293938420713,0.012636970529379322
1772536362533803300,8.01380322265625,0.04655132329463958,-0.005876563883200288,-0.00033183490340597924
1772536362543851300,8.023851318359375,0.02333937453329563,-0.015019801412150263,-0.006543859552359208
1772536362553899300,8.033899169921876,0.019622984358668327,-0.03322941184155643,-0.014407587797939776
1772536362563947300,8.043947265625,-0.010550035586953162,-0.03973725936561823,-0.005287174022151157
1772536362573996300,8.053996337890625,0.01348024381995201,-0.05042210031338036,-0.004536383054312318
1772536362584044300,8.064044189453124,-0.035194647499918935,-0.04021729796752333,-0.00847448055506684
1772536362594092000,8.074092041015625,-0.051069092980027195,-0.03328822935670614,-0.020630690963333472
1772536362604140300,8.084140380859376,-0.04300678255558014,-0.005482742260023951,-0.028609022031910715
1772536362614189000,8.09418896484375,-0.032736148431897164,0.013282017834112047,-0.03097864637323655
1772536362624237300,8.1042373046875,-0.02759235580265522,0.016753858663141726,-0.004857532166922465
1772536362634285300,8.114285400390624,-0.02219137354195118,0.003054419134557247,-0.006354063468147069
1772536362644333000,8.1243330078125,-0.0051543140232563015,-0.034396628990024325,-0.01877509882505983
1772536362654381300,8.13438134765625,-0.040511458608508105,-0.018863836554437876,0.023503332923352716
1772536362664430000,8.14443017578125,-0.02947626985311508,0.006589169131964444,0.013607888787612318
1772536362674478300,8.154478271484376,-0.014824644166231155,-0.03631817163713276,0.007444434254430234
1772536362684526000,8.164526123046874,-0.040115152767300606,-0.0399166345205158,0.013032280856743454
1772536362694574000,8.174573974609375,-0.01976736126542091,-0.043216333653032776,0.013674058492155744
1772536362704623000,8.184623046875,-0.026793898901343344,-0.04200863836370408,0.006498412975436076
1772536362714671000,8.194671142578125,-0.03323416108191013,-0.03457702705822885,-0.014963486381340771
1772536362724719400,8.20471923828125,-0.028029578176140782,-0.0530606321234256,-0.030010952118551357
1772536362734767000,8.21476708984375,-0.04330956489443779,-0.04016564084552228,-0.02964152515111491
1772536362744815000,8.224815185546875,-0.05575462044775486,-0.02613828453682363,-0.024469730270095167
1772536362754864000,8.234864013671874,-0.06539806258380412,-0.004722936868667602,-0.023469147525960576
1772536362764912000,8.244912109375,-0.04126081567108631,0.008166428386047482,-0.015904183031246064
1772536362774960400,8.25496044921875,-0.04408522544205189,0.016239771661162375,-0.025569617803394794
1772536362785008000,8.265008056640625,-0.023714053064584732,0.027244053821638223,-0.027049974287953225
1772536362795057400,8.275057373046875,-0.02602992879152298,0.021282222807779905,0.020255400510691104
1772536362805105200,8.285105224609374,0.027678865042328832,-0.014181377826631068,-0.030105790795153006
1772536362815153200,8.295153076171875,0.04400689950883388,0.0107264881324023,-0.020448420598451048
1772536362825201200,8.305201171875,0.009651625442504882,0.01029861810915172,-0.00834079857226461
1772536362835249200,8.315249267578125,-0.021702128720283508,-0.012858970116451382,-0.02598201626287773
1772536362845298200,8.325298095703126,-0.009683774146437644,-0.010760682662948965,-0.04339560834323056
1772536362855346200,8.33534619140625,-0.00486029951274395,-0.010638444522768258,-0.0365855995348189
1772536362865394200,8.345394287109375,-0.017125906845927238,-0.033037469466030596,-0.04838156179594807
1772536362875442200,8.355442138671876,-0.012799860340356826,-0.0544276826929301,-0.06759626674782485
1772536362885491200,8.3654912109375,-0.012245733588933943,-0.05526669080033898,-0.04109278389411047
1772536362895539200,8.375539306640626,-0.021268998000025748,-0.06014021512083709,-0.03970844426308758
1772536362905587200,8.385587158203125,-0.0171101247549057,-0.05256225414723158,-0.05214432099610567
1772536362915635200,8.39563525390625,0.003949029886722564,-0.03507788925245404,-0.057909770921338345
1772536362925683200,8.40568310546875,-0.029453473499417303,-0.036222236981987954,-0.026115780444070695
1772536362935732200,8.415732177734375,-0.047290743485093115,-0.039420886892825364,-0.01441446506329812
1772536362945780200,8.4257802734375,0.02528174077272415,-0.030482743481919167,-0.02982258080644533
1772536362955828200,8.435828125,-0.033220132556557654,-0.008333017124608159,0.007563338793208823
1772536362965876200,8.445876220703125,-0.0233101484388113,-0.008031915286183357,0.00831575546255335
1772536362975925200,8.45592529296875,-0.0572387215256691,0.00023826573528349399,0.006212901431787759
1772536362985973000,8.465972900390625,-0.08552256672382354,0.002404430793225765,0.00045604580496437844
1772536362996021200,8.476021240234376,-0.05626841518878936,0.03945566594526172,-0.0018268227015156297
1772536363006069200,8.4860693359375,-0.0320329685986042,0.035878391980379815,-0.013844775416562333
1772536363016117000,8.496116943359375,-0.060357145807147024,0.011132950041443108,-0.0055412949136924
1772536363026166300,8.506166259765624,-0.08707973303794861,-0.012627353317663072,0.011075456833699718
1772536363036214000,8.516214111328125,-0.06831599585711956,-0.021969109093397856,0.00430281176045537
1772536363046262800,8.5262626953125,-0.05073182384967804,-0.028120398264750837,-0.012788946220697834
1772536363056310500,8.536310546875,-0.013864859223365783,-0.012571750672906636,-0.011451222210377454
1772536363066359800,8.54635986328125,-0.012326982131600378,-0.015008695496246218,-0.008961825680593028
1772536363076407600,8.556407470703125,-0.006460135924816131,-0.03546506193913519,-0.02661696229870431
1772536363086455800,8.566455810546875,0.019444705182313917,-0.020248861172050235,-0.0017564243464265018
1772536363096503800,8.57650390625,0.028794717329740524,-0.01607427890114486,0.002053964254586026
1772536363106551600,8.586551513671875,0.05378185907006264,-0.022866788585484025,-0.01742056981041096
1772536363116600800,8.596600830078126,0.08991291063725948,-0.017834712702408433,-0.026382002765359354
1772536363126648600,8.606648681640625,0.07258768182694912,-0.015865823782235382,-0.03192232956467196
1772536363136696800,8.61669677734375,0.051211716321110726,-0.03407740697301924,-0.021155345025099814
1772536363146744800,8.626744873046874,0.04734042784571647,-0.04048340155780315,0.019835622462350874
1772536363156793600,8.636793701171875,0.07470365106761455,0.020308263209089635,-0.007504667408531531
1772536363166841900,8.646841796875,-0.07167115150392055,0.02247654715888202,-0.028693037920398637
1772536363176889600,8.6568896484375,-0.0254191034168005,-0.03208535637296736,-0.03849338765121065
1772536363186937900,8.666937744140625,-0.06905775413513184,-0.008953048719093203,-0.016181648265756667
1772536363196985600,8.676985595703124,0.005133855757117271,-0.016679843578860164,-0.08417860476896166
1772536363207035000,8.687034912109375,-0.03219137403070926,-0.044771673336252565,-0.019632428040448575
1772536363217082600,8.69708251953125,-0.11663608238995074,-0.07062653782181441,-0.004383439248614013
1772536363227130600,8.707130615234375,-0.12549451162815092,-0.051896410649642344,0.01698604171751067
1772536363237179000,8.717178955078126,-0.07254267364144325,-0.0032783640835434198,0.01588100308505818
1772536363247227600,8.7272275390625,-0.07052607312202454,0.023159049530327318,0.00862399942781776
1772536363257276000,8.73727587890625,-0.057227615609765047,0.02201492099650204,0.025828926326707004
1772536363267323600,8.74732373046875,-0.06630173342525959,0.013136252687871455,0.032633290845621374
1772536363277371600,8.75737158203125,-0.02323357607126236,0.01135594514235854,0.031706650120532136
1772536363287420000,8.767419921875,-0.0029302082329988478,0.026252631631493568,0.012628129635797812
1772536363297468700,8.77746875,-0.0037111294776201245,0.0012831716783344746,0.02590664033857174
