time,seconds_elapsed,z,y,x
1772571852146158000,0.071157958984375,0.0022907445672899485,0.03649919852614403,-0.031612277030944824
1772571852163980500,0.08898046875,-0.0022907445672899485,0.041691552847623825,-0.08888089656829834
1772571852181828600,0.10682861328125,-0.0012217304902151227,0.028557950630784035,-0.12110403180122375
1772571852199660300,0.124660400390625,0.0010690141934901476,-0.02825251780450344,-0.11026117950677872
1772571852217494500,0.14249462890625,-0.0064140851609408855,-0.11789698898792267,-0.05757404863834381
1772571852235329500,0.16032958984375,-0.012064588256180286,-0.17470745742321014,-0.021074850112199783
1772571852253163800,0.178163818359375,-0.005192354787141085,-0.17012597620487213,-0.021380282938480377
1772571852270997800,0.195997802734375,-0.004886921960860491,-0.10354165732860565,-0.03298672288656235
1772571852288831700,0.213831787109375,-0.021991148591041565,-0.07483099400997162,-0.03329215571284294
1772571852306666500,0.23166650390625,-0.0529925599694252,-0.14706580340862274,-0.03222314268350601
1772571852324489000,0.249489013671875,-0.09285151958465576,-0.19792033731937408,-0.04734205827116966
1772571852342331100,0.2673310546875,-0.13026700913906097,-0.18738290667533875,-0.06902777403593063
1772571852360169000,0.2851689453125,-0.1333213448524475,-0.1540907621383667,-0.09346238523721695
1772571852378003500,0.30300341796875,-0.14233160018920898,-0.13026700913906097,-0.09376781433820724
1772571852395838200,0.320838134765625,-0.15760323405265808,-0.1215621829032898,-0.0656680166721344
1772571852413672200,0.338672119140625,-0.19364428520202637,-0.13209961354732513,-0.016340645030140877
1772571852431507000,0.3565068359375,-0.23075434565544128,-0.12568552792072296,0.03955352306365967
1772571852449340700,0.374340576171875,-0.24327708780765533,-0.10445795953273773,0.07254024595022202
1772571852467160000,0.39216015625,-0.23594669997692108,-0.11194105446338654,0.00855211354792118
1772571852485000700,0.410000732421875,-0.23716843128204346,-0.11850785464048386,-0.14996741712093353
1772571852502844700,0.4278447265625,-0.27229318022727966,-0.18188512325286865,-0.3758348524570465
1772571852520678700,0.4456787109375,-0.3179553747177124,-0.3017674386501312,-0.5836817622184753
1772571852538507800,0.4635078125,-0.35124751925468445,-0.41752639412879944,-0.6901249885559082
1772571852556347100,0.48134716796875,-0.35811975598335266,-0.48166725039482117,-0.7017314434051514
1772571852574179000,0.499178955078125,-0.35643985867500305,-0.4651738703250885,-0.6247624158859253
1772571852592018200,0.51701806640625,-0.3686571717262268,-0.38759398460388184,-0.5065600275993347
1772571852609846500,0.534846435546875,-0.4050036668777466,-0.26313021779060364,-0.3550654351711273
1772571852627687200,0.552687255859375,-0.4482223689556122,-0.16798794269561768,-0.2102903574705124
1772571852645518300,0.570518310546875,-0.48426342010498047,-0.1791362315416336,-0.12110403180122375
1772571852663353300,0.588353271484375,-0.527634859085083,-0.23197607696056366,-0.08735372871160507
1772571852681187000,0.60618701171875,-0.5725334286689758,-0.2942843437194824,-0.09728029370307922
1772571852699021300,0.624021240234375,-0.6233879923820496,-0.29504790902137756,-0.13958270847797394
1772571852716855800,0.641855712890625,-0.6487388610839844,-0.299476683139801,-0.21212296187877655
1772571852734690300,0.659690185546875,-0.6464481353759766,-0.32070425152778625,-0.25931230187416077
1772571852752524800,0.67752490234375,-0.6122397184371948,-0.35659259557724,-0.24862214922904968
1772571852770358800,0.69535888671875,-0.5681046843528748,-0.41599923372268677,-0.22571471333503723
1772571852788193500,0.713193603515625,-0.523511528968811,-0.4331034719944,-0.1895209401845932
1772571852806027800,0.73102783203125,-0.4775438904762268,-0.3985895812511444,-0.14538592100143433
1772571852823862300,0.7488623046875,-0.43157628178596497,-0.40744712948799133,-0.10231992602348328
1772571852841696300,0.7666962890625,-0.40912699699401855,-0.4460843503475189,-0.07666359096765518
1772571852859530500,0.784530517578125,-0.4040873646736145,-0.4277583956718445,-0.027488935738801956
1772571852877365200,0.802365234375,-0.3617849349975586,-0.1736384481191635,0.09697485715150833
1772571852895199700,0.82019970703125,-0.275958389043808,0.25732699036598206,0.28420504927635193
1772571852913033700,0.83803369140625,-0.2301434874534607,0.3202461004257202,0.2880229651927948
1772571852930868200,0.8558681640625,-0.28130343556404114,0.09407325088977814,0.04398229718208313
1772571852948702000,0.873701904296875,-0.42149701714515686,-0.1966986060142517,-0.3019201457500458
1772571852966536400,0.891536376953125,-0.5442809462547302,-0.35521814227104187,-0.5254968404769897
1772571852984370700,0.90937060546875,-0.5826127529144287,-0.45784351229667664,-0.5807801485061646
1772571853002205700,0.927205810546875,-0.49984049797058105,-0.49006664752960205,-0.4440990388393402
1772571853020039700,0.945039794921875,-0.35246923565864563,-0.2597704529762268,-0.08368854224681854
1772571853037874200,0.962874267578125,-0.22296582162380219,0.15073099732398987,0.36529740691185
1772571853055708700,0.980708740234375,-0.18631389737129211,0.33948835730552673,0.5685628056526184
1772571853073543000,0.99854296875,-0.206777885556221,0.27061331272125244,0.5195409059524536
1772571853091377000,1.016376953125,-0.24556782841682434,0.09941831976175308,0.37461310625076294
1772571853109211100,1.034211181640625,-0.2246456891298294,-0.12568552792072296,0.21792617440223694
1772571853127045600,1.052045654296875,-0.17531833052635193,-0.33017265796661377,0.0734565481543541
1772571853144879900,1.0698798828125,-0.14523321390151978,-0.3900374472141266,-0.044287730008363724
1772571853162714600,1.087714599609375,-0.15974126756191254,-0.31261029839515686,-0.1235474944114685
1772571853180547600,1.105547607421875,-0.19654589891433716,-0.11239920556545258,-0.17531833052635193
1772571853198384600,1.123384521484375,-0.25534167885780334,0.05910121276974678,-0.22586742043495178
1772571853216217000,1.141217041015625,-0.30024027824401855,0.09911288321018219,-0.27458393573760986
1772571853234051000,1.159051025390625,-0.33505958318710327,0.10247264802455902,-0.27030786871910095
1772571853251887600,1.1768876953125,-0.3576616048812866,0.1059851199388504,-0.23487769067287445
1772571853269720300,1.19472021484375,-0.3747658133506775,0.0884227454662323,-0.20723603665828705
1772571853287554600,1.212554443359375,-0.40653082728385925,0.036193765699863434,-0.2096794992685318
1772571853305389600,1.2303896484375,-0.46273043751716614,-0.008399397134780884,-0.1999056488275528
1772571853323223800,1.248223876953125,-0.5210680365562439,-0.029626963660120964,-0.19303341209888458
1772571853341057800,1.266057861328125,-0.5371032953262329,-0.04245513305068016,-0.12980885803699493
1772571853358892000,1.28389208984375,-0.5351179838180542,-0.08185594528913498,-0.016951510682702065
1772571853376726800,1.301726806640625,-0.5531384944915771,-0.15042556822299957,0.05513058975338936
1772571853394561300,1.319561279296875,-0.6009386777877808,-0.3168863356113434,0.04046982154250145
1772571853412395500,1.3373955078125,-0.7041749358177185,-0.6227771043777466,-0.07040221989154816
1772571853430229500,1.3552294921875,-0.8405506014823914,-0.8532260060310364,-0.21090123057365417
1772571853448064000,1.37306396484375,-0.9738719463348389,-0.7506006956100464,-0.19318613409996033
1772571853465898200,1.390898193359375,-1.0509936809539795,-0.3338378667831421,-0.016035212203860283
1772571853483732200,1.408732177734375,-1.0261008739471436,0.2701551616191864,0.11682797968387604
1772571853501567200,1.426567138671875,-0.9766207933425903,0.46639561653137207,-0.041691552847623825
1772571853519401200,1.444401123046875,-1.0219775438308716,0.36880987882614136,-0.3501785099506378
1772571853537236000,1.462236083984375,-1.1317806243896484,-0.06948592513799667,-0.6562219858169556
1772571853555070200,1.4800703125,-1.2527319192886353,-0.48227810859680176,-0.7307475209236145
1772571853572904700,1.49790478515625,-1.3138184547424316,-0.6672175526618958,-0.5451972484588623
1772571853590726700,1.5157265625,-1.320690631866455,-0.5592471361160278,-0.1492038369178772
1772571853608572700,1.53357275390625,-1.2512047290802002,-0.337044894695282,0.2249511331319809
1772571853626407400,1.551407470703125,-1.1675162315368652,-0.19792033731937408,0.4285219609737396
1772571853644242000,1.569241943359375,-1.0421360731124878,-0.1563815027475357,0.4786129295825958
1772571853662063900,1.58706396484375,-0.8967501521110535,-0.18280142545700073,0.46792277693748474
1772571853679910400,1.604910400390625,-0.7848091125488281,-0.3130684494972229,0.46593746542930603
1772571853697745400,1.622745361328125,-0.7637342810630798,-0.44837507605552673,0.4795292317867279
1772571853715566800,1.64056689453125,-0.8229882121086121,-0.5268712639808655,0.4596760869026184
1772571853733414100,1.6584140625,-0.9088147878646851,-0.5387831330299377,0.36942076683044434
1772571853751248400,1.676248291015625,-1.0028879642486572,-0.5473352670669556,0.20525072515010834
1772571853769082400,1.694082275390625,-1.0824532508850098,-0.574976921081543,0.007024950347840786
1772571853786917000,1.711917236328125,-1.1643091440200806,-0.5380195379257202,-0.18646661937236786
1772571853804751400,1.72975146484375,-1.2218831777572632,-0.42928555607795715,-0.3576616048812866
1772571853822585900,1.7475859375,-1.2699888944625854,-0.23167064785957336,-0.518471896648407
1772571853840419800,1.765419921875,-1.2702943086624146,-0.016340645030140877,-0.6453791260719299
1772571853858254800,1.7832548828125,-1.2211196422576904,0.11682797968387604,-0.7487680912017822
1772571853876089000,1.801089111328125,-1.1552989482879639,0.1670716404914856,-0.8558222055435181
1772571853893923300,1.81892333984375,-1.0713049173355103,0.09911288321018219,-0.9256135821342468
1772571853911755500,1.836755615234375,-0.9750936627388,0.06918048858642578,-0.9080511927604675
1772571853929593900,1.85459375,-0.9054549932479858,0.05467243865132332,-0.8342891931533813
1772571853947426000,1.872426025390625,-0.8868235945701599,-0.014966198243200779,-0.7550294399261475
1772571853965260300,1.89026025390625,-0.8900306820869446,-0.0757472887635231,-0.6575964093208313
1772571853983095000,1.908094970703125,-0.8753699064254761,-0.14324790239334106,-0.5535966157913208
1772571854000929300,1.92592919921875,-0.8539896011352539,-0.2675589919090271,-0.48319441080093384
1772571854018763500,1.943763427734375,-0.8686503767967224,-0.3393356502056122,-0.47280970215797424
1772571854036597800,1.96159765625,-0.8871290683746338,-0.13011430203914642,-0.531147301197052
1772571854054432800,1.979432861328125,-0.8834638595581055,0.18585574626922607,-0.7209737300872803
1772571854072267000,1.99726708984375,-0.9147707223892212,0.4106541574001312,-0.9476047158241272
1772571854090101000,2.01510107421875,-1.0093021392822266,0.3914119005203247,-1.092837929725647
1772571854107936000,2.03293603515625,-1.0922271013259888,0.299476683139801,-0.9066767692565918
1772571854125770200,2.050770263671875,-1.007622241973877,0.20326541364192963,-0.3098613917827606
1772571854143604500,2.0686044921875,-0.751669704914093,0.08445212244987488,0.4103487432003021
1772571854161439200,2.086439208984375,-0.5222898125648499,0.06673702597618103,1.1174252033233643
1772571854179273000,2.10427294921875,-0.35216382145881653,0.3271183371543884,1.7427985668182373
1772571854197108000,2.12210791015625,-0.3116939961910248,0.5867360830307007,2.133294105529785
1772571854214942500,2.1399423828125,-0.31322115659713745,0.31291571259498596,1.9920315742492676
1772571854232776700,2.157776611328125,-0.28787025809288025,-0.23640485107898712,1.4216361045837402
1772571854250610400,2.1756103515625,-0.3510948121547699,-0.4248567819595337,0.9353874325752258
1772571854268441300,2.19344140625,-0.3228422701358795,-0.5503895878791809,0.5381723046302795
1772571854286280000,2.211280029296875,-0.26481008529663086,-0.6320928335189819,0.252287358045578
1772571854304114700,2.22911474609375,-0.2629774808883667,-0.6823364496231079,0.05421429127454758
1772571854321946000,2.246946044921875,-0.2961169183254242,-0.6389650702476501,-0.04566217586398125
1772571854339784000,2.264783935546875,-0.3501785099506378,-0.5537493228912354,-0.07895433157682419
1772571854357619000,2.282618896484375,-0.4005748927593231,-0.45326200127601624,-0.07238753139972687
1772571854375448600,2.300448486328125,-0.4288274049758911,-0.39553526043891907,-0.07376197725534439
1772571854393289200,2.318289306640625,-0.42119157314300537,-0.45875978469848633,-0.1088867336511612
1772571854411118600,2.33611865234375,-0.3484986126422882,-0.5517640113830566,-0.10659598559141159
1772571854428956200,2.3539560546875,-0.2509129047393799,-0.6351471543312073,-0.07131851464509964
1772571854446788900,2.371788818359375,-0.1869247704744339,-0.6574437022209167,-0.0835358202457428
1772571854464609500,2.389609619140625,-0.1999056488275528,-0.617584764957428,-0.1768454909324646
1772571854482447000,2.407447021484375,-0.25961771607398987,-0.5294674634933472,-0.2632829248905182
1772571854500284700,2.42528466796875,-0.3321579694747925,-0.37308594584465027,-0.2744311988353729
1772571854518130000,2.4431298828125,-0.37339138984680176,-0.21013765037059784,-0.24419337511062622
1772571854535961600,2.460961669921875,-0.4178318381309509,-0.04337143152952194,-0.19792033731937408
1772571854553795800,2.4787958984375,-0.47418415546417236,0.0377209298312664,-0.22098049521446228
1772571854571630300,2.49663037109375,-0.5464189648628235,-0.0003054326225537807,-0.31932979822158813
1772571854589464300,2.51446435546875,-0.608421802520752,-0.05192354694008827,-0.4560109078884125
1772571854607298800,2.532298828125,-0.6475171446800232,-0.001832595793530345,-0.561079740524292
1772571854625133600,2.550133544921875,-0.6580545902252197,0.10644327104091644,-0.5586362481117249
1772571854642968300,2.56796826171875,-0.6620252132415771,0.303600013256073,-0.37950003147125244
1772571854660802800,2.585802734375,-0.6301075220108032,0.5589417219161987,-0.10415252298116684
1772571854678636300,2.60363623046875,-0.6250678896903992,0.4288274049758911,-0.052839845418930054
1772571854696471300,2.62147119140625,-0.6614143252372742,-0.042760565876960754,-0.31230485439300537
1772571854714305800,2.639305908203125,-0.7483099102973938,-0.7547240257263184,-0.7971791625022888
1772571854732140300,2.657140380859375,-0.7652614116668701,-1.0731375217437744,-1.0010554790496826
1772571854749974000,2.67497412109375,-0.735634446144104,-0.8891143798828125,-0.8231409192085266
1772571854767808800,2.692808837890625,-0.6788240075111389,-0.5462662577629089,-0.3880521357059479
1772571854785643000,2.71064306640625,-0.5035057067871094,-0.24129177629947662,0.09224065393209457
1772571854803477800,2.728477783203125,-0.35659259557724,-0.1014036312699318,0.49006664752960205
1772571854821312000,2.74631201171875,-0.2353358417749405,-0.1963931769132614,0.697760820388794
1772571854839146200,2.764146240234375,-0.14706580340862274,-0.33139440417289734,0.732122004032135
1772571854856981200,2.781981201171875,-0.11636982858181,-0.380721777677536,0.6866125464439392
1772571854874815500,2.7998154296875,-0.15073099732398987,-0.3162754774093628,0.6097962260246277
1772571854892650200,2.817650146484375,-0.22647829353809357,-0.18524488806724548,0.5213735103607178
1772571854910484200,2.835484130859375,-0.34345898032188416,-0.03176499158143997,0.40515637397766113
1772571854928318500,2.853318359375,-0.4795292317867279,0.05650503560900688,0.23350323736667633
1772571854946151200,2.871151123046875,-0.6336199641227722,0.07391469180583954,0.001527163083665073
1772571854963988000,2.888988037109375,-0.7626652717590332,0.038026362657547,-0.28787025809288025
1772571854981822700,2.90682275390625,-0.8480336666107178,0.039248090237379074,-0.503047525882721
1772571854999654000,2.92465380859375,-0.9010262489318848,0.09712757170200348,-0.5971207618713379
1772571855017482800,2.942482666015625,-0.9002626538276672,0.10277807712554932,-0.6146831512451172
1772571855035325400,2.960325439453125,-0.8429940342903137,0.04596760869026184,-0.5981897711753845
1772571855053160200,2.97816015625,-0.764345109462738,-0.037110064178705215,-0.6488916277885437
1772571855070994400,2.995994384765625,-0.6388123035430908,-0.02382374368607998,-0.7672467231750488
1772571855088828400,3.013828369140625,-0.5258022546768188,0.1085812970995903,-0.8060367107391357
1772571855106663200,3.0316630859375,-0.47769662737846375,0.20173825323581696,-0.712574303150177
1772571855124497700,3.04949755859375,-0.48869219422340393,0.16630806028842926,-0.5363397002220154
1772571855142332400,3.06733251953125,-0.498924195766449,0.06872233748435974,-0.3361285924911499
1772571855160167000,3.0851669921875,-0.4612032473087311,-0.08277224004268646,-0.13148874044418335
1772571855178001200,3.103001220703125,-0.4054618179798126,-0.28878653049468994,-0.008399397134780884
1772571855195835600,3.120835693359375,-0.3095559775829315,-0.33505958318710327,0.04841107130050659
1772571855213668600,3.138668701171875,-0.14034628868103027,-0.023060163483023643,0.15806138515472412
1772571855231506000,3.156505859375,0.03390302136540413,0.3084869384765625,0.2762638032436371
1772571855249338400,3.17433837890625,0.14217889308929443,0.37827831506729126,0.23945917189121246
1772571855267173000,3.192173095703125,0.07513642311096191,0.20845776796340942,-0.03848451003432274
1772571855285007600,3.210007568359375,-0.21594086289405823,-0.15424346923828125,-0.3914119005203247
1772571855302842000,3.227842041015625,-0.517861008644104,-0.29856038093566895,-0.38866302371025085
1772571855320676400,3.24567626953125,-0.5861251950263977,-0.25763240456581116,0.011301007121801376
1772571855338506800,3.2635068359375,-0.34697145223617554,-0.027030786499381065,0.5975789427757263
1772571855356345600,3.281345703125,-0.012980886735022068,0.35613444447517395,1.1330022811889648
1772571855374165200,3.299165283203125,0.23090706765651703,0.532369077205658,1.2831224203109741
1772571855392002600,3.31700244140625,0.3816380500793457,0.4095851480960846,1.0334312915802002
1772571855409852200,3.33485205078125,0.37827831506729126,0.2548835277557373,0.720820963382721
1772571855427683000,3.35268310546875,0.3098613917827606,0.01710422709584236,0.5002986192703247
1772571855445516800,3.370516845703125,0.26022860407829285,-0.2025018334388733,0.42149701714515686
1772571855463352600,3.3883525390625,0.20234911143779755,-0.36819902062416077,0.38209620118141174
1772571855481186600,3.4061865234375,0.156686931848526,-0.4743368625640869,0.28787025809288025
1772571855499021000,3.42402099609375,0.13607023656368256,-0.4576907753944397,0.18509216606616974
1772571855516855600,3.44185546875,0.12049316614866257,-0.3439171314239502,0.12278391420841217
1772571855534690300,3.459690185546875,0.12400564551353455,-0.14935655891895294,0.06627888232469559
1772571855552524800,3.47752490234375,0.144622340798378,0.06734789162874222,0.017409659922122955
1772571855570358800,3.49535888671875,0.16859880089759827,0.18112154304981232,-0.01725694350898266
1772571855588193800,3.51319384765625,0.1866193264722824,0.1586722433567047,0.0007635815418325365
1772571855606028300,3.5310283203125,0.156686931848526,0.11530081182718277,0.06154467165470123
1772571855623862800,3.54886279296875,0.10476338863372803,0.09437867999076843,0.10354165732860565
1772571855641696800,3.56669677734375,0.029016099870204926,0.10842858254909515,0.12690725922584534
1772571855659528700,3.58452880859375,-0.02932153269648552,0.15882496535778046,0.16951510310173035
1772571855677365800,3.60236572265625,-0.08888089656829834,0.1866193264722824,0.23671028017997742
1772571855695204000,3.6202041015625,-0.14324790239334106,0.2050980031490326,0.3032945990562439
1772571855713035000,3.638034912109375,-0.21181751787662506,0.192422553896904,0.3159700334072113
1772571855730869500,3.655869384765625,-0.26450464129447937,0.10170906037092209,0.2148718535900116
1772571855748703200,3.673703125,-0.31291571259498596,0.030695978552103043,0.08124507963657379
1772571855766536200,3.6915361328125,-0.35063666105270386,-0.012064588256180286,-0.05115996301174164
1772571855784372500,3.70937255859375,-0.3672827184200287,-0.04153883829712868,-0.17104226350784302
1772571855802207000,3.72720703125,-0.34865134954452515,-0.05742133408784866,-0.21135938167572021
1772571855820041500,3.74504150390625,-0.34025195240974426,-0.04612032696604729,-0.16982053220272064
1772571855837876500,3.76287646484375,-0.32589662075042725,0.11911872029304504,-0.07635815441608429
1772571855855710700,3.780710693359375,-0.33628132939338684,0.1895209401845932,-0.0708603709936142
1772571855873545500,3.79854541015625,-0.3828597962856293,0.1540907621383667,-0.21303924918174744
1772571855891379500,3.81637939453125,-0.45692721009254456,-0.08536841720342636,-0.4934264123439789
1772571855909214000,3.8342138671875,-0.5490151643753052,-0.4957171380519867,-0.737772524356842
1772571855927048200,3.852048095703125,-0.5792529582977295,-0.6855435371398926,-0.7098253965377808
1772571855944883000,3.869883056640625,-0.47280970215797424,-0.5115996599197388,-0.3689626157283783
1772571855962717700,3.8877177734375,-0.29046642780303955,-0.10812314599752426,0.13744467496871948
1772571855980551700,3.9055517578125,-0.12797626852989197,0.11102475970983505,0.5224425196647644
1772571855998387700,3.9233876953125,-0.029932396486401558,0.09514226019382477,0.6264423131942749
1772571856016221200,3.94122119140625,0.041233405470848083,0.07208210229873657,0.589790403842926
1772571856034054700,3.9590546875,0.07406741380691528,0.09239336848258972,0.5134322643280029
1772571856051891200,3.97689111328125,0.08628471940755844,0.045204028487205505,0.380721777677536
1772571856069724200,3.99472412109375,0.046273041516542435,-0.048258353024721146,0.19288070499897003
1772571856087559000,4.012558837890625,-0.04581489413976669,-0.10384709388017654,0.016493361443281174
1772571856105393400,4.030393310546875,-0.13744467496871948,-0.10506882518529892,-0.05314527451992035
1772571856123227600,4.0482275390625,-0.21242839097976685,-0.0754418596625328,-0.036193765699863434
1772571856141062100,4.066062255859375,-0.2532036304473877,-0.04841107130050659,-0.0633772686123848
1772571856158897000,4.08389697265625,-0.26053401827812195,-0.03634648025035858,-0.1638645976781845
1772571856176731100,4.101731201171875,-0.2744311988353729,-0.032528575509786606,-0.22189679741859436
1772571856194566100,4.119566162109375,-0.29917123913764954,-0.014355333521962166,-0.14996741712093353
1772571856212400600,4.137400634765625,-0.30405816435813904,-0.03878994286060333,-0.052381694316864014
1772571856230234600,4.155234619140625,-0.26251932978630066,-0.076052725315094,-0.023976460099220276
1772571856248069000,4.173069091796875,-0.19135354459285736,-0.0913243517279625,-0.057879481464624405
1772571856265903400,4.1909033203125,-0.1339322030544281,-0.041691552847623825,-0.08200865983963013
1772571856283738000,4.208738037109375,-0.10354165732860565,0.07971791177988052,-0.049785517156124115
1772571856301572600,4.226572509765625,-0.09269879758358002,0.18096883594989777,-0.04993823543190956
1772571856319407000,4.244406982421875,-0.08368854224681854,0.2629774808883667,-0.0705549344420433
1772571856337241900,4.262241943359375,-0.0682641938328743,0.22937989234924316,-0.12889257073402405
1772571856355076600,4.28007666015625,-0.04703662544488907,0.03497203439474106,-0.1872301995754242
1772571856372911000,4.2979111328125,-0.029474247246980667,-0.1342376321554184,-0.18997909128665924
1772571856390732800,4.31573291015625,-0.00855211354792118,-0.2929098904132843,-0.1644754707813263
1772571856408579300,4.333579345703125,0.06688974797725677,-0.2984076738357544,-0.039706241339445114
1772571856426414300,4.351414306640625,0.1898263692855835,0.09285151958465576,0.18784105777740479
1772571856444248800,4.369248779296875,0.2692388594150543,0.33826664090156555,0.2353358417749405
1772571856459875300,4.384875244140625,0.2649627923965454,0.2819143235683441,0.07681630551815033
1772571856477677600,4.402677490234375,0.18936823308467865,0.0029016099870204926,-0.1586722433567047
1772571856495526000,4.42052587890625,0.052381694316864014,-0.28130343556404114,-0.3228422701358795
1772571856513356800,4.438356689453125,-0.02977968007326126,-0.2733621895313263,-0.27580565214157104
1772571856531192600,4.456192626953125,-0.004734205547720194,-0.15806138515472412,-0.02428189292550087
1772571856549027000,4.474027099609375,0.1088867336511612,-0.016493361443281174,0.32650747895240784
1772571856566860500,4.491860595703125,0.2716823220252991,0.15256360173225403,0.5992587804794312
1772571856584695000,4.509695068359375,0.3819434940814972,0.24113905429840088,0.6667594313621521
1772571856602529500,4.527529541015625,0.4008803069591522,0.2970332205295563,0.5450445413589478
1772571856620365300,4.545365234375,0.37659841775894165,0.3877467215061188,0.34376442432403564
1772571856638198800,4.56319873046875,0.3903428912162781,0.3949243724346161,0.16798794269561768
1772571856656033000,4.581032958984375,0.42668938636779785,0.27382034063339233,0.07590000331401825
1772571856673868000,4.598867919921875,0.4668537676334381,0.05054909735918045,0.04214970022439957
1772571856691703300,4.616703369140625,0.531147301197052,-0.21930062770843506,0.018478672951459885
1772571856709536500,4.63453662109375,0.55695641040802,-0.3202461004257202,0.044135015457868576
1772571856727371000,4.65237109375,0.49556443095207214,-0.26022860407829285,0.09987647086381912
1772571856745205800,4.670205810546875,0.41752639412879944,-0.11530081182718277,0.12919799983501434
1772571856763041500,4.68804150390625,0.3620903789997101,-0.005192354787141085,0.14446963369846344
1772571856780874500,4.70587451171875,0.3471241891384125,0.05345070734620094,0.19379699230194092
1772571856798709200,4.723709228515625,0.3604104816913605,0.031154127791523933,0.27091872692108154
1772571856816543700,4.741543701171875,0.3703370690345764,-0.02626720629632473,0.3168863356113434
1772571856834379800,4.7593798828125,0.35475999116897583,0.008399397134780884,0.280539870262146
1772571856852212700,4.777212646484375,0.3150537610054016,0.09346238523721695,0.18738290667533875
1772571856870047000,4.795046875,0.26374107599258423,0.14126259088516235,0.10476338863372803
1772571856887881500,4.812881591796875,0.20036379992961884,0.08002334833145142,0.06948592513799667
1772571856905717200,4.83071728515625,0.12568552792072296,-0.024129176512360573,0.08246681094169617
1772571856923550500,4.848550537109375,0.04657847434282303,-0.08903361111879349,0.04657847434282303
1772571856941385000,4.866385009765625,-0.02168571576476097,-0.1469130963087082,-0.12446379661560059
1772571856959219700,4.8842197265625,-0.07925976812839508,-0.1823432743549347,-0.41599923372268677
1772571856977055200,4.90205517578125,-0.13897185027599335,-0.13729196786880493,-0.6939429044723511
1772571856994889000,4.919888916015625,-0.2269364446401596,-0.076052725315094,-0.8330674767494202
1772571857012723500,4.937723388671875,-0.31520646810531616,-0.08139779418706894,-0.8141306638717651
1772571857030556400,4.955556396484375,-0.37659841775894165,0.08429940044879913,-0.589179515838623
1772571857048397600,4.9733974609375,-0.3816380500793457,0.4873177409172058,-0.21181751787662506
1772571857066225000,4.991224853515625,-0.422871470451355,0.5390886068344116,0.029016099870204926
1772571857084061200,5.009061279296875,-0.49205195903778076,0.2880229651927948,-0.013439035043120384
1772571857101887700,5.0268876953125,-0.5690209865570068,-0.2154827117919922,-0.34865134954452515
1772571857119719000,5.044718994140625,-0.6389650702476501,-0.5962044596672058,-0.6698137521743774
1772571857137565200,5.062565185546875,-0.6653849482536316,-0.6327036619186401,-0.6722571849822998
1772571857155399200,5.080399169921875,-0.588263213634491,-0.3917173445224762,-0.33139440417289734
1772571857173234000,5.09823388671875,-0.4349360466003418,-0.047189339995384216,0.16233743727207184
1772571857191069200,5.116069091796875,-0.29504790902137756,0.19792033731937408,0.5688682794570923
1772571857208902700,5.133902587890625,-0.21578814089298248,0.20051652193069458,0.7153232097625732
1772571857226737400,5.1517373046875,-0.16722436249256134,0.11194105446338654,0.6466008424758911
1772571857244572000,5.169572021484375,-0.19288070499897003,-0.1160643994808197,0.5464189648628235
1772571857262407400,5.187407470703125,-0.1774563491344452,-0.5071708559989929,0.3962988257408142
1772571857280240600,5.20524072265625,-0.15622878074645996,-0.746019184589386,0.2405281960964203
1772571857298075400,5.223075439453125,-0.16829337179660797,-0.5832235813140869,0.14324790239334106
1772571857315910000,5.240909912109375,-0.19853121042251587,-0.5002986192703247,0.13377949595451355
1772571857333745400,5.258745361328125,-0.20341812074184418,-0.42577308416366577,0.035124752670526505
1772571857351579000,5.276578857421875,-0.22861631214618683,-0.3358231782913208,-0.12400564551353455
1772571857369413000,5.2944130859375,-0.23884831368923187,-0.2779437005519867,-0.32070425152778625
1772571857387247400,5.312247314453125,-0.24083362519741058,-0.1846340149641037,-0.44745880365371704
1772571857405083100,5.330083251953125,-0.26404649019241333,-0.09453139454126358,-0.47189339995384216
1772571857422916900,5.347916748046875,-0.2054034322500229,-0.16737708449363708,-0.46547931432724
1772571857440751000,5.365751220703125,-0.12278391420841217,-0.13973543047904968,-0.3856086730957031
1772571857458585600,5.383585693359375,-0.07635815441608429,-0.03649919852614403,-0.2255619913339615
1772571857476421400,5.40142138671875,-0.03436116874217987,-0.04703662544488907,-0.11988230794668198
1772571857494255000,5.419255126953125,-0.021532999351620674,0.0633772686123848,-0.14492778480052948
1772571857512089300,5.43708935546875,-0.06108652427792549,0.4057672321796417,-0.2808452844619751
1772571857529913900,5.454913818359375,-0.11942415684461594,0.7881689071655273,-0.41111230850219727
1772571857547746800,5.472746826171875,-0.11530081182718277,0.8556694984436035,-0.4355469346046448
1772571857565592800,5.4905927734375,-0.06734789162874222,0.6285803318023682,-0.3839288055896759
1772571857583421700,5.508421630859375,0.028557950630784035,0.2993239760398865,-0.3303253948688507
1772571857601261800,5.52626171875,0.11728613078594208,-0.006108652334660292,-0.2612976133823395
1772571857619086000,5.544086181640625,0.2002110779285431,-0.0685696229338646,-0.07162395119667053
1772571857636931000,5.56193115234375,0.304210901260376,0.09911288321018219,0.17104226350784302
1772571857654765600,5.579765625,0.30833423137664795,-0.015271631069481373,0.1918116807937622
1772571857672600000,5.59760009765625,0.2018909603357315,-0.4057672321796417,-0.06719517707824707
1772571857690435300,5.615435302734375,0.05726861581206322,-0.7932085394859314,-0.36300668120384216
1772571857708269000,5.63326904296875,-0.06185010448098183,-0.7654141783714294,-0.37522396445274353
1772571857726103600,5.651103515625,-0.02932153269648552,-0.3520110845565796,-0.05742133408784866
1772571857743935500,5.668935546875,0.13637566566467285,0.16752979159355164,0.3828597962856293
1772571857761776000,5.686776123046875,0.35216382145881653,0.5433646440505981,0.7053966522216797
1772571857779608300,5.7046083984375,0.528245747089386,0.7577783465385437,0.8165740966796875
1772571857797440000,5.72243994140625,0.5529857873916626,0.8407033085823059,0.7370089292526245
1772571857815274500,5.7402744140625,0.4456261992454529,0.7678576111793518,0.5580254197120667
1772571857833113600,5.758113525390625,0.2612976133823395,0.5484042763710022,0.3646865487098694
1772571857850944800,5.77594482421875,0.005039638374000788,0.24083362519741058,0.23777928948402405
1772571857868776400,5.7937763671875,-0.18585574626922607,-0.2050980031490326,0.0835358202457428
1772571857886616800,5.811616943359375,-0.15760323405265808,-0.6501133441925049,-0.07925976812839508
1772571857904449500,5.829449462890625,0.012980886735022068,-0.8468119502067566,-0.1999056488275528
1772571857922283000,5.847282958984375,0.21868975460529327,-0.7533495426177979,-0.29107728600502014
1772571857940117800,5.86511767578125,0.342695415019989,-0.4334088861942291,-0.408363401889801
1772571857957952300,5.8829521484375,0.37751471996307373,0.04352414980530739,-0.5352706909179688
1772571857975787800,5.900787841796875,0.3488040566444397,0.2719877362251282,-0.6091853380203247
1772571857993621500,5.91862158203125,0.32268956303596497,0.2028072625398636,-0.5739079117774963
1772571858011455500,5.93645556640625,0.33337971568107605,0.12599095702171326,-0.45753806829452515
1772571858029290000,5.9542900390625,0.3764457106590271,0.10430523753166199,-0.3222314119338989
1772571858047125800,5.972125732421875,0.40393465757369995,0.10842858254909515,-0.17211128771305084
1772571858064959200,5.989959228515625,0.3998112976551056,0.11423180252313614,-0.033139441162347794
1772571858082794000,6.0077939453125,0.3425426781177521,0.06734789162874222,0.05543602257966995
1772571858100628200,6.025628173828125,0.22296582162380219,0.05009094998240471,0.04153883829712868
1772571858118459600,6.043459716796875,0.0754418596625328,0.10751228034496307,-0.04795292019844055
1772571858136297500,6.06129736328125,-0.07391469180583954,0.18310685455799103,-0.12599095702171326
1772571858154131700,6.079131591796875,-0.19104810059070587,0.14324790239334106,-0.156686931848526
1772571858171966200,6.09696630859375,-0.24846944212913513,-0.010537425056099892,-0.11301007121801376
1772571858189801700,6.1148017578125,-0.2070833146572113,-0.08231408894062042,0.11178833991289139
1772571858207635200,6.13263525390625,-0.1739438772201538,0.031612277030944824,0.41401392221450806
1772571858225469700,6.1504697265625,-0.17333301901817322,0.30772337317466736,0.6291912198066711
1772571858243303700,6.1683037109375,-0.18509216606616974,0.5215262174606323,0.6592763066291809
1772571858261140700,6.186140625,-0.1875356286764145,0.5650503635406494,0.4992296099662781
1772571858278973000,6.203972900390625,-0.21563543379306793,0.3568980097770691,0.13240504264831543
1772571858296808000,6.221807861328125,-0.2919935882091522,-0.16691893339157104,-0.35705074667930603
1772571858314642400,6.239642333984375,-0.3119994103908539,-0.6395758986473083,-0.5723807215690613
1772571858332478200,6.257478271484375,-0.30146199464797974,-0.8504771590232849,-0.3335324227809906
1772571858350311200,6.275311279296875,-0.27809640765190125,-0.7405213713645935,0.20357084274291992
1772571858368145700,6.293145751953125,-0.23151792585849762,-0.38957929611206055,0.6976081132888794
1772571858385980200,6.310980224609375,-0.14645494520664215,-0.04795292019844055,0.9582948684692383
1772571858403816000,6.32881591796875,-0.07131851464509964,0,0.9169087409973145
1772571858421649200,6.346649169921875,-0.007788531947880983,-0.08628471940755844,0.6953173875808716
1772571858439484000,6.36448388671875,0.035124752670526505,-0.14905111491680145,0.4447098970413208
1772571858457315800,6.38231591796875,0.0656680166721344,-0.2269364446401596,0.23839016258716583
1772571858475142400,6.400142333984375,0.03497203439474106,-0.3116939961910248,0.10552696883678436
1772571858492990500,6.417990478515625,0.016951510682702065,-0.375071257352829,-0.029626963660120964
1772571858510822100,6.435822265625,-0.03588833287358284,-0.3286454975605011,-0.20952677726745605
1772571858528656100,6.45365625,-0.09529497474431992,-0.20387627184391022,-0.4132503271102905
1772571858546492200,6.4714921875,-0.14156801998615265,-0.04382958263158798,-0.49816060066223145
1772571858564325600,6.48932568359375,-0.15683965384960175,0.07238753139972687,-0.4859432876110077
1772571858582157300,6.5071572265625,-0.128434419631958,0.03878994286060333,-0.5059491395950317
1772571858599982800,6.52498291015625,-0.08429940044879913,0.16508632898330688,-0.4602869749069214
1772571858617833500,6.54283349609375,-0.012828170321881771,0.2941316068172455,-0.3651446998119354
1772571858635664000,6.560663818359375,0.08979719132184982,0.3631593883037567,-0.28695395588874817
1772571858653498000,6.578498046875,0.18157969415187836,0.38469240069389343,-0.2532036304473877
1772571858671332600,6.59633251953125,0.21899518370628357,0.3481931984424591,-0.26251932978630066
1772571858689168100,6.614168212890625,0.2370157092809677,0.3107776939868927,-0.22327125072479248
1772571858707001300,6.63200146484375,0.26221391558647156,0.3223841190338135,-0.098502017557621
1772571858724835800,6.6498359375,0.2808452844619751,0.2871066629886627,0.010079276748001575
1772571858742670800,6.6676708984375,0.30925053358078003,0.21563543379306793,0.07666359096765518
1772571858760506400,6.68550634765625,0.33307427167892456,0.12736541032791138,0.12507465481758118
1772571858778339800,6.70333984375,0.33017265796661377,-0.05726861581206322,0.19837848842144012
1772571858796174000,6.721174072265625,0.3194825351238251,-0.25503623485565186,0.33276882767677307
1772571858814008000,6.739008056640625,0.3712533414363861,-0.1794416606426239,0.5422956347465515
1772571858831845400,6.756845458984375,0.43676865100860596,0.20693060755729675,0.7596109509468079
1772571858849677800,6.774677734375,0.4584543704986572,0.33460143208503723,0.8071057200431824
1772571858867511800,6.79251171875,0.38576140999794006,0.08704829961061478,0.750142514705658
1772571858885346600,6.8103466796875,0.3043636083602905,-0.37110063433647156,0.6753115057945251
1772571858903178800,6.8281787109375,0.25014930963516235,-0.6496551632881165,0.6375905871391296
1772571858921003500,6.84600341796875,0.244804248213768,-0.6185010671615601,0.6672175526618958
1772571858938850300,6.863850341796875,0.3289509415626526,-0.33139440417289734,0.7768678665161133
1772571858956684800,6.881684814453125,0.4830417037010193,0.1160643994808197,0.9001099467277527
1772571858974520600,6.8995205078125,0.6348416805267334,0.6440047025680542,1.0002918243408203
1772571858992354000,6.91735400390625,0.7076873779296875,0.9378308653831482,0.936609148979187
1772571859010188000,6.93518798828125,0.7171558141708374,0.9573785662651062,0.6870706677436829
1772571859028022800,6.953022705078125,0.660192608833313,0.8225300312042236,0.40454551577568054
1772571859045858600,6.970858642578125,0.5923865437507629,0.6484334468841553,0.22571471333503723
1772571859063692000,6.988692138671875,0.5042692422866821,0.4729624092578888,0.12431107461452484
1772571859081526500,7.006526611328125,0.41523563861846924,0.27519479393959045,0.03833179548382759
1772571859099360300,7.0243603515625,0.3517056703567505,0.09376781433820724,-0.013439035043120384
1772571859117196000,7.042196044921875,0.2767219543457031,-0.05696318298578262,-0.06108652427792549
1772571859135030500,7.060030517578125,0.1722639948129654,-0.15012013912200928,-0.1771509200334549
1772571859152853500,7.077853515625,0.13805554807186127,-0.017562376335263252,-0.29168814420700073
1772571859170698800,7.09569873046875,0.1745547503232956,0.26511552929878235,-0.30711251497268677
1772571859188536800,7.113536865234375,0.22632557153701782,0.4544837474822998,-0.27030786871910095
1772571859206367700,7.13136767578125,0.22586742043495178,0.4499022662639618,-0.22540926933288574
1772571859224202500,7.149202392578125,0.21471913158893585,0.3862195611000061,-0.1647808998823166
1772571859242037000,7.167037109375,0.22937989234924316,0.32162055373191833,-0.08231408894062042
1772571859259872800,7.184872802734375,0.22281309962272644,0.18936823308467865,-0.020616702735424042
1772571859277706000,7.2027060546875,0.17119498550891876,0.07299839705228806,0.02015855349600315
1772571859295540700,7.220540771484375,0.10170906037092209,0.03375030308961868,0.060322944074869156
1772571859313375200,7.238375244140625,0.02733621932566166,-0.005955935921519995,0.056810468435287476
1772571859331210500,7.25621044921875,-0.05742133408784866,-0.014202617108821869,-0.026419922709465027
1772571859349031700,7.27403173828125,-0.1238529309630394,-0.016493361443281174,-0.1281289905309677
1772571859366878700,7.291878662109375,-0.16111570596694946,0.00366519158706069,-0.17012597620487213
1772571859384709400,7.30970947265625,-0.16569720208644867,0.052839845418930054,-0.1589776873588562
1772571859402548700,7.327548828125,-0.15836681425571442,0.0988074541091919,-0.14767667651176453
1772571859420382200,7.34538232421875,-0.14324790239334106,0.13026700913906097,-0.1385136991739273
1772571859438217000,7.363217041015625,-0.13500121235847473,0.2477058619260788,-0.09483683109283447
1772571859456051200,7.38105126953125,-0.13301590085029602,0.3856086730957031,0.0074830991216003895
1772571859473887000,7.398886962890625,-0.14034628868103027,0.32620203495025635,0.04199698567390442
1772571859491720200,7.41672021484375,-0.18051068484783173,0.14065171778202057,-0.12919799983501434
1772571859509554700,7.4345546875,-0.2635883390903473,-0.3094032406806946,-0.5044219493865967
1772571859527389200,7.45238916015625,-0.2811507284641266,-0.6162103414535522,-0.6818783283233643
1772571859545225000,7.470224853515625,-0.2672535479068756,-0.6898195743560791,-0.5681046843528748
1772571859563059200,7.48805908203125,-0.21853704750537872,-0.46334129571914673,-0.19364428520202637
1772571859580888600,7.505888671875,-0.12736541032791138,0.058184914290905,0.32421672344207764
1772571859598730500,7.52373046875,-0.025961773470044136,0.4902193546295166,0.7435756921768188
1772571859616562200,7.541562255859375,0.05803219974040985,0.4749477207660675,0.874453604221344
1772571859634397000,7.55939697265625,0.12461651116609573,0.24694228172302246,0.7947356700897217
1772571859652231000,7.57723095703125,0.17073683440685272,0.07284568250179291,0.661719799041748
1772571859670065200,7.595065185546875,0.182648703455925,-0.11270463466644287,0.5025894045829773
1772571859687901000,7.61290087890625,0.17027868330478668,-0.2730567753314972,0.3352122902870178
1772571859705734000,7.63073388671875,0.15164729952812195,-0.2817615866661072,0.2154827117919922
1772571859723569000,7.64856884765625,0.1082758679986,-0.14584407210350037,0.16081027686595917
1772571859741403400,7.6664033203125,0.035582900047302246,0.08567385375499725,0.0679587572813034
1772571859759239200,7.6842392578125,-0.02275473065674305,0.2840523421764374,-0.062460970133543015
1772571859777072400,7.702072265625,-0.05345070734620094,0.3878994286060333,-0.15546520054340363
1772571859794907400,7.719907470703125,-0.07422012835741043,0.39248090982437134,-0.20754146575927734
1772571859812741400,7.737741455078125,-0.08246681094169617,0.36911532282829285,-0.2194533348083496
1772571859830573300,7.7555732421875,-0.06230825558304787,0.3176499307155609,-0.17104226350784302
1772571859848398800,7.77339892578125,-0.005345070734620094,0.2785545587539673,-0.0682641938328743
1772571859866245000,7.7912451171875,0.04352414980530739,0.194713294506073,0.03741549700498581
1772571859884079600,7.80907958984375,0.09086620807647705,0.247094988822937,0.1586722433567047
1772571859901915100,7.8269150390625,0.1547016203403473,0.14324790239334106,0.2984076738357544
1772571859919748400,7.844748291015625,0.20112738013267517,0.03695734590291977,0.30695977807044983
1772571859937583400,7.862583251953125,0.1944078654050827,0.18677204847335815,0.23090706765651703
1772571859955417900,7.88041796875,0.1589776873588562,0.3689626157283783,0.09376781433820724
1772571859973253400,7.89825341796875,0.14508049190044403,0.38377609848976135,-0.04306599870324135
1772571859991086600,7.916086669921875,0.12003502249717712,0.21319197118282318,-0.06536258012056351
