time,seconds_elapsed,z,y,x
1772536391181527000,0.058527099609375,-1.0493927001953125,-0.00128173828125,-0.04071044921875
1772536391191575000,0.068574951171875,-1.0233612060546875,0.0185699462890625,-0.031005859375
1772536391201624000,0.0786240234375,-1.0172882080078125,0.018157958984375,-0.0274658203125
1772536391211672000,0.088672119140625,-1.0214996337890625,0.00689697265625,-0.0247650146484375
1772536391221720300,0.09872021484375,-1.029296875,-0.002349853515625,-0.019927978515625
1772536391231768000,0.10876806640625,-1.0168304443359375,-0.00201416015625,-0.008026123046875
1772536391241816000,0.118816162109375,-1.006317138671875,0.0042877197265625,0.009796142578125
1772536391251865000,0.128864990234375,-1.00067138671875,0.0008087158203125,0.02105712890625
1772536391261913000,0.1389130859375,-0.9826507568359375,-0.0356903076171875,0.0501708984375
1772536391271961000,0.148961181640625,-0.992767333984375,-0.0448150634765625,0.0695343017578125
1772536391282009000,0.159009033203125,-0.9800567626953125,0.0065460205078125,0.05755615234375
1772536391292058000,0.16905810546875,-0.97955322265625,-0.039886474609375,-0.05096435546875
1772536391302106000,0.179106201171875,-0.9386444091796875,-0.04315185546875,-0.0377960205078125
1772536391312154000,0.189154052734375,-0.945953369140625,-0.0110931396484375,0.0039520263671875
1772536391322202000,0.1992021484375,-0.9982147216796875,-0.0087432861328125,0.0174407958984375
1772536391332250000,0.20925,-1.009765625,-0.0283966064453125,0.0178070068359375
1772536391342299100,0.219299072265625,-0.9948272705078125,-0.037933349609375,0.0142059326171875
1772536391352347100,0.22934716796875,-0.9807586669921875,-0.0378570556640625,0.0178985595703125
1772536391362395100,0.23939501953125,-0.97381591796875,-0.0396881103515625,0.0230865478515625
1772536391372443100,0.249443115234375,-0.9709930419921875,-0.0478363037109375,0.0351409912109375
1772536391382492200,0.2594921875,-0.970794677734375,-0.0558624267578125,0.0437164306640625
1772536391392540200,0.2695400390625,-0.961944580078125,-0.0607757568359375,0.04803466796875
1772536391402588200,0.279588134765625,-0.949249267578125,-0.06512451171875,0.0452880859375
1772536391412636200,0.28963623046875,-0.94891357421875,-0.06689453125,0.0470733642578125
1772536391422684200,0.29968408203125,-0.96075439453125,-0.0683135986328125,0.0437164306640625
1772536391432733200,0.309733154296875,-0.9591827392578125,-0.098724365234375,0.0303955078125
1772536391442781200,0.31978125,-0.9539337158203125,-0.119140625,0.0530548095703125
1772536391452829200,0.3298291015625,-0.941253662109375,-0.05242919921875,0.0762939453125
1772536391462877000,0.339876953125,-0.9813232421875,-0.0720977783203125,-0.0228118896484375
1772536391472926200,0.34992626953125,-0.920257568359375,-0.089691162109375,-0.030487060546875
1772536391482974000,0.359973876953125,-0.9300689697265625,-0.0802459716796875,-0.0283050537109375
1772536391493022200,0.370022216796875,-0.97686767578125,-0.0718536376953125,-0.024658203125
1772536391503070200,0.3800703125,-0.994964599609375,-0.083221435546875,-0.0196533203125
1772536391513118000,0.390117919921875,-0.9825286865234375,-0.0925750732421875,-0.024169921875
1772536391523167200,0.400167236328125,-0.97271728515625,-0.086517333984375,-0.0315704345703125
1772536391533215000,0.410215087890625,-0.964599609375,-0.1040496826171875,-0.030029296875
1772536391543263200,0.42026318359375,-0.9618988037109375,-0.0953369140625,-0.0031890869140625
1772536391553311200,0.430311279296875,-0.9884033203125,-0.0846710205078125,-0.007232666015625
1772536391563360300,0.4403603515625,-0.9789581298828125,-0.10577392578125,-0.027801513671875
1772536391573408000,0.450407958984375,-0.9723663330078125,-0.1026763916015625,-0.0263214111328125
1772536391583456000,0.4604560546875,-0.98895263671875,-0.0934906005859375,-0.0235595703125
1772536391593504300,0.470504150390625,-1.0028228759765625,-0.09710693359375,-0.011260986328125
1772536391603553000,0.480552978515625,-1.017486572265625,-0.1028594970703125,-0.001007080078125
1772536391613601300,0.490601318359375,-1.022979736328125,-0.0985107421875,-0.004302978515625
1772536391623649000,0.50064892578125,-1.0146942138671875,-0.08758544921875,-0.0121917724609375
1772536391633697000,0.510697021484375,-1.016448974609375,-0.0737152099609375,-0.0096893310546875
1772536391643745300,0.520745361328125,-1.02459716796875,-0.0660858154296875,-0.005218505859375
1772536391653794000,0.5307939453125,-1.0220184326171875,-0.0698699951171875,-0.0030517578125
1772536391663842300,0.54084228515625,-1.0130615234375,-0.07159423828125,0.005462646484375
1772536391673890000,0.55089013671875,-1.00860595703125,-0.0729827880859375,0.0151214599609375
1772536391683938000,0.56093798828125,-1.0083160400390625,-0.0764007568359375,0.0224609375
1772536391693987000,0.570987060546875,-1.00860595703125,-0.0794525146484375,0.02496337890625
1772536391704035000,0.58103515625,-1.013214111328125,-0.0797119140625,0.02392578125
1772536391714083000,0.5910830078125,-1.0159759521484375,-0.07830810546875,0.0207366943359375
1772536391724131000,0.601131103515625,-1.0134429931640625,-0.0774078369140625,0.01116943359375
1772536391734179000,0.611178955078125,-1.012939453125,-0.0771331787109375,0.005767822265625
1772536391744228000,0.62122802734375,-1.01422119140625,-0.0767364501953125,-0.00146484375
1772536391754276000,0.631276123046875,-1.0132293701171875,-0.071746826171875,-0.0093536376953125
1772536391764324000,0.641323974609375,-1.0052337646484375,-0.06634521484375,-0.0137786865234375
1772536391774372000,0.6513720703125,-0.9951629638671875,-0.0657196044921875,-0.0194244384765625
1772536391784421000,0.661421142578125,-0.98822021484375,-0.067413330078125,-0.0172882080078125
1772536391794469000,0.67146923828125,-0.9871978759765625,-0.07257080078125,-0.0157470703125
1772536391804517000,0.68151708984375,-0.98626708984375,-0.0775909423828125,-0.0189971923828125
1772536391814565000,0.691565185546875,-0.98309326171875,-0.081207275390625,-0.0249786376953125
1772536391824613000,0.701613037109375,-0.9835968017578125,-0.081512451171875,-0.026763916015625
1772536391834662100,0.711662109375,-0.9913482666015625,-0.081268310546875,-0.0240020751953125
1772536391844710100,0.721710205078125,-0.9986419677734375,-0.0849151611328125,-0.0241546630859375
1772536391854758100,0.731758056640625,-0.9935150146484375,-0.0850830078125,-0.0302734375
1772536391864806100,0.74180615234375,-0.98187255859375,-0.0802459716796875,-0.0323028564453125
1772536391874855200,0.751855224609375,-0.9824371337890625,-0.0747222900390625,-0.0316314697265625
1772536391884903200,0.761903076171875,-0.988739013671875,-0.0710296630859375,-0.02996826171875
1772536391894951200,0.771951171875,-0.99249267578125,-0.066680908203125,-0.0296173095703125
1772536391904999000,0.7819990234375,-0.9878082275390625,-0.0637969970703125,-0.0325469970703125
1772536391915048200,0.792048095703125,-0.9833526611328125,-0.0594482421875,-0.0313568115234375
1772536391925096000,0.802095947265625,-0.9958343505859375,-0.056182861328125,-0.0222320556640625
1772536391935144200,0.812144287109375,-1.0068359375,-0.057647705078125,-0.0210723876953125
1772536391945192200,0.822192138671875,-1.0002899169921875,-0.05401611328125,-0.0242767333984375
1772536391955240000,0.832239990234375,-0.9895172119140625,-0.0475006103515625,-0.02337646484375
1772536391965289200,0.842289306640625,-0.9992523193359375,-0.0458221435546875,-0.0172271728515625
1772536391975337000,0.8523369140625,-1.0186614990234375,-0.050689697265625,-0.0146026611328125
1772536391985385200,0.86238525390625,-1.011505126953125,-0.0504302978515625,-0.0184326171875
1772536391995433200,0.87243310546875,-1.002349853515625,-0.0416717529296875,-0.0164794921875
1772536392005482200,0.882482177734375,-1.0111236572265625,-0.0355072021484375,-0.01812744140625
1772536392015530000,0.892530029296875,-1.014862060546875,-0.0362701416015625,-0.01885986328125
1772536392025578000,0.902577880859375,-1.0172576904296875,-0.0359649658203125,-0.0157470703125
1772536392035626200,0.912626220703125,-1.0148773193359375,-0.03369140625,-0.0166015625
1772536392045674000,0.922674072265625,-1.00885009765625,-0.032379150390625,-0.0183563232421875
1772536392055723300,0.93272314453125,-1.0106201171875,-0.0344085693359375,-0.0204620361328125
1772536392065770000,0.94277001953125,-1.005859375,-0.0367431640625,-0.021392822265625
1772536392075817700,0.952817626953125,-0.999053955078125,-0.0369110107421875,-0.0162811279296875
1772536392085866000,0.962865966796875,-1.0037841796875,-0.0403289794921875,-0.0122222900390625
1772536392095914800,0.972914794921875,-1.0087738037109375,-0.044830322265625,-0.014190673828125
1772536392105963000,0.982962890625,-1.006591796875,-0.0443878173828125,-0.0199127197265625
1772536392116011000,0.993010986328125,-1.00439453125,-0.0410003662109375,-0.024200439453125
1772536392126059000,1.00305908203125,-1.0045928955078125,-0.036834716796875,-0.0260162353515625
1772536392136107000,1.01310693359375,-1.0024871826171875,-0.03643798828125,-0.025238037109375
1772536392146155800,1.02315576171875,-1.0032958984375,-0.0356903076171875,-0.0240325927734375
1772536392156204000,1.0332041015625,-1.0025482177734375,-0.0358428955078125,-0.025604248046875
1772536392166251800,1.043251708984375,-1.0019073486328125,-0.0334014892578125,-0.0233001708984375
1772536392176300000,1.053300048828125,-1.008056640625,-0.03143310546875,-0.0203399658203125
1772536392186348800,1.063348876953125,-1.0106964111328125,-0.0298309326171875,-0.0212249755859375
1772536392196396800,1.073396728515625,-1.0080413818359375,-0.0296173095703125,-0.0255584716796875
1772536392206445000,1.083445068359375,-1.0066070556640625,-0.0262451171875,-0.025299072265625
1772536392216492800,1.093492919921875,-1.006683349609375,-0.026885986328125,-0.0277252197265625
1772536392226541000,1.103541015625,-1.0031280517578125,-0.02899169921875,-0.0277252197265625
1772536392236589800,1.11358984375,-1.003631591796875,-0.03143310546875,-0.02740478515625
1772536392246637800,1.123637939453125,-1.0016326904296875,-0.032012939453125,-0.0262451171875
1772536392256686000,1.13368603515625,-1.000762939453125,-0.0304107666015625,-0.02996826171875
1772536392266733800,1.14373388671875,-0.997314453125,-0.0303802490234375,-0.0333099365234375
1772536392276783000,1.153783203125,-0.9983062744140625,-0.0303802490234375,-0.030517578125
1772536392286830800,1.163830810546875,-0.9997406005859375,-0.0320587158203125,-0.029937744140625
1772536392296879000,1.173879150390625,-1.0002899169921875,-0.034820556640625,-0.0303955078125
1772536392306926800,1.1839267578125,-1.0011138916015625,-0.0355682373046875,-0.0314788818359375
1772536392316974800,1.193974853515625,-1.00360107421875,-0.0330352783203125,-0.0314483642578125
1772536392327023900,1.20402392578125,-1.0030059814453125,-0.0324554443359375,-0.0323486328125
1772536392337071900,1.21407177734375,-0.9983367919921875,-0.031646728515625,-0.032684326171875
1772536392347120000,1.2241201171875,-1.0003662109375,-0.030181884765625,-0.0290069580078125
1772536392357167900,1.23416796875,-1.00665283203125,-0.0296783447265625,-0.0279388427734375
1772536392367217000,1.244216796875,-1.008575439453125,-0.033233642578125,-0.02655029296875
1772536392377265000,1.254264892578125,-1.0038604736328125,-0.0338134765625,-0.0251312255859375
1772536392387313000,1.26431298828125,-1.0001373291015625,-0.0314483642578125,-0.0241241455078125
1772536392397361200,1.274361083984375,-0.9998931884765625,-0.0312347412109375,-0.023834228515625
1772536392407409000,1.284408935546875,-1.00030517578125,-0.0323028564453125,-0.02557373046875
1772536392417458000,1.2944580078125,-1.0100555419921875,-0.0305633544921875,-0.0249176025390625
1772536392427506000,1.304505859375,-1.009368896484375,-0.030731201171875,-0.0290069580078125
1772536392437554000,1.314553955078125,-0.9974212646484375,-0.028900146484375,-0.026824951171875
1772536392447602000,1.324601806640625,-1.00140380859375,-0.0278472900390625,-0.02752685546875
1772536392457651000,1.33465087890625,-1.0082244873046875,-0.0303955078125,-0.0282135009765625
1772536392467699000,1.344698974609375,-1.005706787109375,-0.032470703125,-0.031768798828125
1772536392477747000,1.354746826171875,-0.9953155517578125,-0.0304718017578125,-0.0330963134765625
1772536392487795000,1.364794921875,-0.998992919921875,-0.029937744140625,-0.02923583984375
1772536392497843000,1.374843017578125,-1.0070343017578125,-0.0345916748046875,-0.029388427734375
1772536392507892000,1.38489208984375,-1.00006103515625,-0.034759521484375,-0.032440185546875
1772536392517940000,1.39493994140625,-0.9905853271484375,-0.0309295654296875,-0.0305938720703125
1772536392527988000,1.404988037109375,-0.9935455322265625,-0.0325775146484375,-0.029388427734375
1772536392538036000,1.415035888671875,-0.9977569580078125,-0.0387725830078125,-0.0295867919921875
1772536392548085000,1.4250849609375,-0.9960784912109375,-0.0417633056640625,-0.0281982421875
1772536392558133000,1.435133056640625,-0.991729736328125,-0.0418853759765625,-0.0261688232421875
1772536392568181000,1.445180908203125,-0.99188232421875,-0.0415191650390625,-0.0269012451171875
1772536392578229000,1.45522900390625,-0.99530029296875,-0.04266357421875,-0.0299530029296875
1772536392588276700,1.46527685546875,-1.0001373291015625,-0.0414581298828125,-0.0320587158203125
1772536392598326000,1.475325927734375,-0.9969635009765625,-0.039306640625,-0.032623291015625
1772536392608373800,1.485373779296875,-0.9952850341796875,-0.0380401611328125,-0.031829833984375
1772536392618422000,1.495422119140625,-0.9996337890625,-0.0363616943359375,-0.031707763671875
1772536392628470000,1.505469970703125,-1.0016937255859375,-0.03399658203125,-0.0294036865234375
1772536392638519000,1.51551904296875,-1.003326416015625,-0.0335540771484375,-0.026123046875
1772536392648567000,1.525567138671875,-1.00592041015625,-0.03302001953125,-0.0240631103515625
1772536392658614800,1.53561474609375,-1.00469970703125,-0.032501220703125,-0.02215576171875
1772536392668663000,1.5456630859375,-1.0050201416015625,-0.033477783203125,-0.0213775634765625
1772536392678711000,1.5557109375,-1.005157470703125,-0.0348968505859375,-0.021270751953125
1772536392688760000,1.565760009765625,-0.99993896484375,-0.0345611572265625,-0.0249176025390625
1772536392698808000,1.57580810546875,-0.998199462890625,-0.0355072021484375,-0.0268096923828125
1772536392708855800,1.585855712890625,-1.0095367431640625,-0.03631591796875,-0.0248565673828125
1772536392718904000,1.595904052734375,-1.014251708984375,-0.0372467041015625,-0.0275726318359375
1772536392728952800,1.605952880859375,-0.99615478515625,-0.033782958984375,-0.0296478271484375
1772536392739001000,1.6160009765625,-0.9918670654296875,-0.03082275390625,-0.02703857421875
1772536392749048800,1.626048828125,-1.009674072265625,-0.031463623046875,-0.026123046875
1772536392759096800,1.636096923828125,-1.0174102783203125,-0.033599853515625,-0.0276947021484375
1772536392769145000,1.64614501953125,-1.00311279296875,-0.0302886962890625,-0.030303955078125
1772536392779193900,1.65619384765625,-0.997589111328125,-0.026763916015625,-0.0301361083984375
1772536392789242000,1.6662421875,-1.002227783203125,-0.0313262939453125,-0.029449462890625
1772536392799289900,1.676289794921875,-1.0047760009765625,-0.0380706787109375,-0.0263824462890625
1772536392809337900,1.686337890625,-1.0075225830078125,-0.040191650390625,-0.022216796875
1772536392819387000,1.696386962890625,-1.002532958984375,-0.0416107177734375,-0.02691650390625
1772536392829435000,1.706434814453125,-0.99169921875,-0.0408782958984375,-0.0288238525390625
1772536392839483100,1.716483154296875,-0.987518310546875,-0.0410308837890625,-0.029327392578125
1772536392849531000,1.72653076171875,-0.9902496337890625,-0.0413360595703125,-0.03125
1772536392859580200,1.736580078125,-0.9992828369140625,-0.0399932861328125,-0.0303955078125
1772536392869628000,1.7466279296875,-0.9997711181640625,-0.0376434326171875,-0.0321197509765625
1772536392879676000,1.756676025390625,-0.9949493408203125,-0.0318145751953125,-0.0347442626953125
1772536392889724000,1.766723876953125,-0.9944000244140625,-0.028289794921875,-0.035247802734375
1772536392899772000,1.77677197265625,-0.994140625,-0.029815673828125,-0.0337982177734375
1772536392909821000,1.786821044921875,-0.9979400634765625,-0.0322723388671875,-0.02880859375
1772536392919869000,1.796868896484375,-1.0046234130859375,-0.0343170166015625,-0.0261688232421875
1772536392929917000,1.8069169921875,-1.0084991455078125,-0.0334320068359375,-0.022735595703125
1772536392939965000,1.81696484375,-1.0083770751953125,-0.029205322265625,-0.0234832763671875
1772536392950013000,1.827012939453125,-1.004241943359375,-0.0244598388671875,-0.0263519287109375
1772536392960062000,1.83706201171875,-1.0031890869140625,-0.0235595703125,-0.0247955322265625
1772536392970110000,1.84710986328125,-1.004486083984375,-0.027008056640625,-0.0242919921875
1772536392980158000,1.857157958984375,-1.002288818359375,-0.0287322998046875,-0.0229034423828125
1772536392990206000,1.8672060546875,-1.0098114013671875,-0.0292816162109375,-0.0212860107421875
1772536393000255000,1.8772548828125,-1.014892578125,-0.0302581787109375,-0.0243988037109375
1772536393010303000,1.887302978515625,-1.004608154296875,-0.0267333984375,-0.03045654296875
1772536393020351000,1.89735107421875,-1.003387451171875,-0.02294921875,-0.031524658203125
1772536393030398700,1.907398681640625,-1.006622314453125,-0.0260009765625,-0.033935546875
1772536393040448000,1.917447998046875,-1.0026702880859375,-0.03125,-0.03338623046875
1772536393050495700,1.927495849609375,-1.000946044921875,-0.03289794921875,-0.0318756103515625
1772536393060544000,1.9375439453125,-1.01239013671875,-0.0349578857421875,-0.0279388427734375
1772536393070592800,1.9475927734375,-1.0125732421875,-0.036468505859375,-0.0314178466796875
1772536393080640800,1.957640869140625,-0.999420166015625,-0.0334930419921875,-0.0325469970703125
1772536393090689500,1.967689453125,-0.9955291748046875,-0.0301361083984375,-0.0347747802734375
1772536393100737500,1.977737548828125,-0.99542236328125,-0.032501220703125,-0.035369873046875
1772536393110785800,1.987785888671875,-0.9915618896484375,-0.039215087890625,-0.031982421875
1772536393120833500,1.99783349609375,-0.9909210205078125,-0.0434417724609375,-0.0282135009765625
1772536393130881800,2.0078818359375,-1.0000762939453125,-0.0433502197265625,-0.024169921875
1772536393140930600,2.0179306640625,-1.00048828125,-0.0426177978515625,-0.02825927734375
1772536393150978800,2.027978759765625,-0.9919586181640625,-0.0375518798828125,-0.0302276611328125
1772536393161026800,2.03802685546875,-0.9933319091796875,-0.031890869140625,-0.0327301025390625
1772536393171074600,2.048074462890625,-0.9935150146484375,-0.032928466796875,-0.0326690673828125
1772536393181123800,2.058123779296875,-0.9915924072265625,-0.03643798828125,-0.0304107666015625
1772536393191171600,2.068171630859375,-1.0013427734375,-0.0375518798828125,-0.0263519287109375
1772536393201219800,2.0782197265625,-1.00872802734375,-0.038482666015625,-0.028106689453125
1772536393211267600,2.088267578125,-0.99957275390625,-0.03497314453125,-0.0279998779296875
1772536393221315600,2.098315673828125,-1.00018310546875,-0.032196044921875,-0.02923583984375
1772536393231364600,2.108364501953125,-1.006011962890625,-0.0359039306640625,-0.02838134765625
1772536393241412600,2.11841259765625,-1.00286865234375,-0.0388641357421875,-0.028533935546875
1772536393251460900,2.1284609375,-1.0007171630859375,-0.039398193359375,-0.0279998779296875
1772536393261508600,2.138508544921875,-1.0068511962890625,-0.039581298828125,-0.026123046875
1772536393271557600,2.1485576171875,-1.014373779296875,-0.0399932861328125,-0.02691650390625
1772536393281605600,2.158605712890625,-1.0057830810546875,-0.035888671875,-0.030853271484375
1772536393291653600,2.168653564453125,-1.0029449462890625,-0.0311279296875,-0.0299835205078125
1772536393301702000,2.178701904296875,-1.0118408203125,-0.0325164794921875,-0.0297088623046875
1772536393311750700,2.188750732421875,-1.005584716796875,-0.036468505859375,-0.0283966064453125
1772536393321799000,2.198798828125,-0.9989471435546875,-0.0370941162109375,-0.0240325927734375
1772536393331846700,2.2088466796875,-1.0008392333984375,-0.0395355224609375,-0.0226287841796875
1772536393341894700,2.218894775390625,-1.006378173828125,-0.0425567626953125,-0.020416259765625
1772536393351942700,2.228942626953125,-1.0025482177734375,-0.0418701171875,-0.0234375
1772536393361991700,2.23899169921875,-0.9914703369140625,-0.0384521484375,-0.02410888671875
1772536393372039700,2.249039794921875,-0.9920654296875,-0.0403900146484375,-0.0247344970703125
1772536393382087700,2.259087646484375,-1.000244140625,-0.0428924560546875,-0.02301025390625
1772536393392135700,2.2691357421875,-1.001739501953125,-0.0439605712890625,-0.02386474609375
1772536393402184700,2.279184814453125,-0.9969635009765625,-0.043365478515625,-0.024017333984375
1772536393412232700,2.289232666015625,-1.0025634765625,-0.0406341552734375,-0.022918701171875
1772536393422280700,2.29928076171875,-1.0080108642578125,-0.0371246337890625,-0.0253143310546875
1772536393432328700,2.30932861328125,-0.999969482421875,-0.034881591796875,-0.027435302734375
1772536393442376700,2.319376708984375,-0.99945068359375,-0.0350189208984375,-0.026824951171875
1772536393452425700,2.32942578125,-1.007293701171875,-0.0389556884765625,-0.022979736328125
1772536393462473700,2.3394736328125,-1.0067901611328125,-0.0449981689453125,-0.0216064453125
1772536393472521700,2.349521728515625,-1.0001983642578125,-0.04888916015625,-0.021026611328125
1772536393482569700,2.35956982421875,-0.997772216796875,-0.05029296875,-0.0187530517578125
1772536393492618800,2.36961865234375,-1.0060882568359375,-0.04974365234375,-0.016571044921875
1772536393502666800,2.379666748046875,-1.003936767578125,-0.0481719970703125,-0.02239990234375
1772536393512714800,2.38971484375,-0.9936370849609375,-0.0447540283203125,-0.020538330078125
1772536393522762800,2.3997626953125,-0.9978179931640625,-0.043426513671875,-0.0215301513671875
1772536393532810800,2.409810791015625,-1.007049560546875,-0.0446929931640625,-0.0195465087890625
1772536393542859800,2.41985986328125,-1.008270263671875,-0.0455780029296875,-0.020172119140625
1772536393552907800,2.42990771484375,-1.0024566650390625,-0.04290771484375,-0.0225982666015625
1772536393562955500,2.43995556640625,-1.00115966796875,-0.04254150390625,-0.0213165283203125
1772536393573003800,2.450003662109375,-1.0000152587890625,-0.046173095703125,-0.02069091796875
1772536393583052500,2.460052490234375,-0.9965057373046875,-0.0478973388671875,-0.0211639404296875
1772536393593100800,2.470100830078125,-0.9946441650390625,-0.049102783203125,-0.022064208984375
1772536393603148800,2.480148681640625,-0.9967498779296875,-0.050506591796875,-0.0234527587890625
1772536393613196500,2.490196533203125,-0.9978790283203125,-0.05145263671875,-0.0253143310546875
1772536393623244800,2.500244873046875,-1.001068115234375,-0.0504150390625,-0.026153564453125
1772536393633293600,2.51029345703125,-1.0000457763671875,-0.0490570068359375,-0.027313232421875
1772536393643341800,2.520341796875,-0.9944915771484375,-0.0486297607421875,-0.0269927978515625
1772536393653389600,2.5303896484375,-0.9954376220703125,-0.0477142333984375,-0.027496337890625
1772536393663437600,2.5404375,-0.9952850341796875,-0.048736572265625,-0.0272064208984375
1772536393673486600,2.550486572265625,-0.997222900390625,-0.04974365234375,-0.02520751953125
1772536393683534600,2.56053466796875,-1.000457763671875,-0.051055908203125,-0.0221710205078125
1772536393693582800,2.570582763671875,-0.999847412109375,-0.0510101318359375,-0.0209808349609375
1772536393703630600,2.580630615234375,-0.9972686767578125,-0.0511474609375,-0.02227783203125
1772536393713678600,2.5906787109375,-0.9984588623046875,-0.0498046875,-0.0209808349609375
1772536393723727600,2.6007275390625,-0.9987335205078125,-0.0497894287109375,-0.0216064453125
1772536393733775600,2.610775634765625,-0.9972076416015625,-0.04901123046875,-0.021453857421875
1772536393743824000,2.620823974609375,-0.99969482421875,-0.0478057861328125,-0.0203857421875
1772536393753871600,2.63087158203125,-1.0030364990234375,-0.0495758056640625,-0.0207061767578125
1772536393763921000,2.6409208984375,-1.0018310546875,-0.0503082275390625,-0.020050048828125
1772536393773968600,2.65096875,-1.0040130615234375,-0.050323486328125,-0.019073486328125
1772536393784016600,2.6610166015625,-1.004150390625,-0.0524139404296875,-0.019317626953125
1772536393794064600,2.671064697265625,-1.0019683837890625,-0.0536956787109375,-0.0189361572265625
1772536393804112600,2.681112548828125,-1.0029449462890625,-0.054351806640625,-0.0183258056640625
1772536393814161700,2.69116162109375,-1.0061187744140625,-0.05438232421875,-0.01898193359375
1772536393824209700,2.701209716796875,-0.9982452392578125,-0.0500030517578125,-0.0204925537109375
1772536393834257700,2.711257568359375,-0.9965972900390625,-0.047576904296875,-0.021820068359375
1772536393844305700,2.7213056640625,-1.0047149658203125,-0.04730224609375,-0.0211029052734375
1772536393854353700,2.731353759765625,-1.00714111328125,-0.048858642578125,-0.0203094482421875
1772536393864402700,2.741402587890625,-1.0036773681640625,-0.0454254150390625,-0.020294189453125
1772536393874450700,2.75145068359375,-1.004913330078125,-0.0421142578125,-0.0201873779296875
1772536393884498700,2.761498779296875,-1.00482177734375,-0.042999267578125,-0.02197265625
1772536393894546700,2.771546630859375,-1.00408935546875,-0.0443878173828125,-0.0211334228515625
1772536393904595700,2.781595703125,-1.004150390625,-0.0458526611328125,-0.0203857421875
1772536393914643700,2.791643798828125,-1.000244140625,-0.0463104248046875,-0.0213165283203125
1772536393924691700,2.801691650390625,-0.9996337890625,-0.048553466796875,-0.019989013671875
1772536393934739700,2.81173974609375,-0.99945068359375,-0.0485382080078125,-0.0212554931640625
1772536393944787700,2.82178759765625,-0.9927215576171875,-0.050567626953125,-0.0227203369140625
1772536393954836500,2.83183642578125,-0.98980712890625,-0.0513763427734375,-0.0225067138671875
1772536393964884700,2.841884765625,-0.996917724609375,-0.0529632568359375,-0.020721435546875
1772536393974932700,2.8519326171875,-1.0042877197265625,-0.053924560546875,-0.0198974609375
1772536393984980500,2.86198046875,-0.9980010986328125,-0.0514984130859375,-0.0249481201171875
1772536393995029800,2.87202978515625,-0.9909210205078125,-0.0463409423828125,-0.02520751953125
1772536394005077500,2.882077392578125,-0.99847412109375,-0.048095703125,-0.0235748291015625
1772536394015125800,2.892125732421875,-1.00592041015625,-0.0516510009765625,-0.02227783203125
1772536394025173800,2.902173828125,-1.0029449462890625,-0.0543365478515625,-0.021453857421875
1772536394035222800,2.912222900390625,-0.9983673095703125,-0.053680419921875,-0.02044677734375
1772536394045270800,2.922270751953125,-1.0001220703125,-0.0539398193359375,-0.0208740234375
1772536394055318500,2.932318603515625,-1.0028533935546875,-0.0543212890625,-0.0217437744140625
1772536394065366800,2.94236669921875,-1.0022735595703125,-0.0523529052734375,-0.0224761962890625
1772536394075414800,2.952414794921875,-1.0009765625,-0.0491943359375,-0.025115966796875
1772536394085463600,2.962463623046875,-0.9984283447265625,-0.0470123291015625,-0.0250091552734375
1772536394095511600,2.972511474609375,-1.00250244140625,-0.0461273193359375,-0.0251312255859375
1772536394105559600,2.9825595703125,-1.0006561279296875,-0.0455322265625,-0.02532958984375
1772536394115607600,2.992607666015625,-1.000274658203125,-0.0458984375,-0.0240325927734375
1772536394125656600,3.002656494140625,-1.0073089599609375,-0.0453033447265625,-0.023345947265625
1772536394135704600,3.01270458984375,-1.003082275390625,-0.0447998046875,-0.0261077880859375
1772536394145752600,3.022752685546875,-0.9953765869140625,-0.044677734375,-0.027679443359375
1772536394155800600,3.032800537109375,-0.996795654296875,-0.0471038818359375,-0.0267181396484375
1772536394165848600,3.0428486328125,-1.0013427734375,-0.0501251220703125,-0.0251312255859375
1772536394175897600,3.052897705078125,-1.001922607421875,-0.05316162109375,-0.02410888671875
1772536394185945600,3.062945556640625,-0.9980926513671875,-0.050628662109375,-0.024200439453125
1772536394195993600,3.07299365234375,-1.0008697509765625,-0.0469207763671875,-0.0238037109375
1772536394206041600,3.08304150390625,-1.0010528564453125,-0.04766845703125,-0.0247802734375
1772536394216089600,3.093089599609375,-0.99505615234375,-0.04803466796875,-0.0236358642578125
1772536394226138600,3.103138671875,-0.9962005615234375,-0.0486602783203125,-0.023681640625
1772536394236186600,3.1131865234375,-0.9976806640625,-0.0534515380859375,-0.021331787109375
1772536394246234600,3.123234619140625,-1.005401611328125,-0.055267333984375,-0.018890380859375
1772536394256282600,3.13328271484375,-1.0080413818359375,-0.05279541015625,-0.022003173828125
1772536394266331600,3.14333154296875,-0.998992919921875,-0.0477752685546875,-0.024200439453125
1772536394276379600,3.153379638671875,-1.003326416015625,-0.045196533203125,-0.0244598388671875
1772536394286427400,3.163427490234375,-1.006805419921875,-0.0475311279296875,-0.023895263671875
1772536394296475600,3.1734755859375,-1.000823974609375,-0.05059814453125,-0.0221405029296875
1772536394306523600,3.183523681640625,-0.99652099609375,-0.0515594482421875,-0.0204315185546875
1772536394316572700,3.19357275390625,-1.00006103515625,-0.05291748046875,-0.019775390625
1772536394326620700,3.20362060546875,-1.0048065185546875,-0.05303955078125,-0.0215606689453125
1772536394336668400,3.21366845703125,-0.9970703125,-0.0516204833984375,-0.023529052734375
1772536394346716700,3.223716552734375,-0.9915924072265625,-0.0495452880859375,-0.0244903564453125
1772536394356765400,3.233765380859375,-0.998260498046875,-0.0504913330078125,-0.023590087890625
1772536394366813700,3.243813720703125,-1.001190185546875,-0.053131103515625,-0.0233306884765625
1772536394376861700,3.25386181640625,-0.9974212646484375,-0.0544586181640625,-0.02423095703125
1772536394386909400,3.263909423828125,-0.9969024658203125,-0.0520782470703125,-0.0230712890625
1772536394396957700,3.273957763671875,-1.002288818359375,-0.051116943359375,-0.022552490234375
1772536394407006500,3.28400634765625,-1.00421142578125,-0.0499114990234375,-0.0240631103515625
1772536394417054700,3.2940546875,-0.998138427734375,-0.0472259521484375,-0.0255126953125
1772536394427102500,3.3041025390625,-0.997467041015625,-0.044281005859375,-0.024261474609375
1772536394437150500,3.314150390625,-1.00274658203125,-0.045745849609375,-0.0236053466796875
1772536394447199500,3.324199462890625,-1.0031890869140625,-0.0462646484375,-0.0236663818359375
1772536394457247500,3.33424755859375,-1.0044403076171875,-0.043243408203125,-0.024444580078125
1772536394467295700,3.344295654296875,-1.00146484375,-0.0442352294921875,-0.023529052734375
1772536394477343500,3.354343505859375,-1.003173828125,-0.0457305908203125,-0.0225677490234375
1772536394487391500,3.3643916015625,-1.0040740966796875,-0.047454833984375,-0.023162841796875
1772536394497440500,3.3744404296875,-1.003143310546875,-0.04998779296875,-0.0220794677734375
1772536394507488500,3.384488525390625,-1.00146484375,-0.0513458251953125,-0.02093505859375
1772536394517536800,3.394536865234375,-1.0015106201171875,-0.0542755126953125,-0.02239990234375
1772536394527584500,3.40458447265625,-0.998931884765625,-0.053680419921875,-0.0241546630859375
1772536394537633500,3.414633544921875,-0.993927001953125,-0.05340576171875,-0.02508544921875
1772536394547681500,3.424681640625,-0.9952392578125,-0.05303955078125,-0.0243072509765625
1772536394557729500,3.4347294921875,-1.0047760009765625,-0.0514984130859375,-0.0247802734375
1772536394567777500,3.444777587890625,-1.0005645751953125,-0.0478668212890625,-0.028167724609375
1772536394577825500,3.454825439453125,-0.99493408203125,-0.0443115234375,-0.0250701904296875
1772536394587874600,3.46487451171875,-1.0020904541015625,-0.0458221435546875,-0.02294921875
1772536394597922600,3.474922607421875,-1.0050048828125,-0.0484161376953125,-0.02117919921875
1772536394607970600,3.484970458984375,-1.003265380859375,-0.050079345703125,-0.019287109375
1772536394618018600,3.4950185546875,-1.00390625,-0.049957275390625,-0.0186004638671875
1772536394628067600,3.505067626953125,-1.001129150390625,-0.0507049560546875,-0.019134521484375
1772536394638115600,3.515115478515625,-0.9978179931640625,-0.0524444580078125,-0.018890380859375
1772536394648163600,3.52516357421875,-0.997894287109375,-0.0528564453125,-0.01947021484375
1772536394658211600,3.535211669921875,-1.0052642822265625,-0.0514068603515625,-0.0187225341796875
1772536394668259600,3.545259521484375,-1.008148193359375,-0.0509185791015625,-0.020263671875
1772536394678308600,3.55530859375,-1.0042877197265625,-0.046356201171875,-0.022186279296875
1772536394688356600,3.565356689453125,-1.003875732421875,-0.044219970703125,-0.0223388671875
1772536394698404600,3.575404541015625,-1.0052490234375,-0.047027587890625,-0.020904541015625
1772536394708452400,3.585452392578125,-1.006195068359375,-0.0511322021484375,-0.01885986328125
1772536394718501600,3.595501708984375,-1.0085296630859375,-0.0513916015625,-0.018035888671875
1772536394728549400,3.60554931640625,-1.0049285888671875,-0.053314208984375,-0.019683837890625
1772536394738597600,3.61559765625,-0.997314453125,-0.0542755126953125,-0.0202178955078125
1772536394748645600,3.625645751953125,-0.9984893798828125,-0.0552825927734375,-0.0179290771484375
1772536394758693400,3.635693359375,-1.0046844482421875,-0.057403564453125,-0.0209197998046875
1772536394768742700,3.64574267578125,-0.9960479736328125,-0.057373046875,-0.0227813720703125
1772536394778790400,3.655790283203125,-0.9916839599609375,-0.0537261962890625,-0.023590087890625
1772536394788838700,3.665838623046875,-0.9954376220703125,-0.054534912109375,-0.0232391357421875
1772536394798886700,3.67588671875,-1.001708984375,-0.0553436279296875,-0.02362060546875
1772536394808935700,3.685935791015625,-0.99395751953125,-0.0520172119140625,-0.0240936279296875
1772536394818983700,3.695983642578125,-0.991851806640625,-0.049530029296875,-0.0210723876953125
1772536394829031400,3.706031494140625,-1.00201416015625,-0.05230712890625,-0.0202789306640625
1772536394839079700,3.71607958984375,-1.0047454833984375,-0.0543670654296875,-0.015716552734375
1772536394849127400,3.72612744140625,-1.0051116943359375,-0.0512542724609375,-0.01611328125
1772536394859176700,3.7361767578125,-1.0026702880859375,-0.0467376708984375,-0.019073486328125
1772536394869224400,3.746224365234375,-0.9993133544921875,-0.0465240478515625,-0.019195556640625
1772536394879272400,3.7562724609375,-1.0009918212890625,-0.0494842529296875,-0.01806640625
1772536394889320700,3.76632080078125,-1.0010528564453125,-0.05242919921875,-0.0172576904296875
1772536394899369500,3.776369384765625,-0.999176025390625,-0.054656982421875,-0.01739501953125
1772536394909417700,3.786417724609375,-0.999176025390625,-0.0561676025390625,-0.0179901123046875
1772536394919465500,3.796465576171875,-0.9966583251953125,-0.0567626953125,-0.0184326171875
1772536394929513500,3.806513427734375,-0.9949188232421875,-0.0587158203125,-0.019561767578125
1772536394939561700,3.816561767578125,-0.9960174560546875,-0.0602569580078125,-0.0185089111328125
1772536394949610500,3.826610595703125,-0.9980926513671875,-0.0614471435546875,-0.017486572265625
1772536394959658500,3.836658447265625,-1.0010986328125,-0.0612030029296875,-0.0174407958984375
1772536394969706500,3.84670654296875,-0.999053955078125,-0.0587158203125,-0.01873779296875
1772536394979754500,3.85675439453125,-1.000701904296875,-0.0540313720703125,-0.0185394287109375
1772536394989803500,3.866803466796875,-1.0034637451171875,-0.052337646484375,-0.0187225341796875
1772536394999851500,3.8768515625,-1.0075225830078125,-0.0503997802734375,-0.018585205078125
1772536395009899500,3.8868994140625,-1.0044097900390625,-0.0474700927734375,-0.0188751220703125
1772536395019947500,3.896947509765625,-1.0014190673828125,-0.048614501953125,-0.018280029296875
1772536395029995800,3.906995849609375,-1.0032501220703125,-0.0498809814453125,-0.0171661376953125
1772536395040044500,3.91704443359375,-1.0036773681640625,-0.051422119140625,-0.0162200927734375
1772536395050092500,3.927092529296875,-0.9990997314453125,-0.0525360107421875,-0.0143890380859375
1772536395060140500,3.937140625,-0.999176025390625,-0.054595947265625,-0.015167236328125
1772536395070188800,3.947188720703125,-1.0029296875,-0.055267333984375,-0.0154876708984375
1772536395080237800,3.95723779296875,-1.003753662109375,-0.05523681640625,-0.0184478759765625
1772536395090285800,3.967285888671875,-0.9947662353515625,-0.052642822265625,-0.020904541015625
1772536395100333800,3.977333740234375,-0.9936370849609375,-0.052154541015625,-0.0191802978515625
1772536395110381800,3.9873818359375,-1.0010223388671875,-0.0562591552734375,-0.01812744140625
1772536395120429800,3.997429931640625,-1.0063629150390625,-0.0582427978515625,-0.01715087890625
1772536395130478800,4.007478759765625,-1.0016937255859375,-0.05657958984375,-0.0201873779296875
1772536395140526800,4.01752685546875,-0.9970703125,-0.0548553466796875,-0.01934814453125
1772536395150574800,4.027574951171875,-0.9990997314453125,-0.0572509765625,-0.0179443359375
1772536395160622800,4.037622802734375,-1.00006103515625,-0.057769775390625,-0.017578125
1772536395170671600,4.047671630859375,-0.99798583984375,-0.05877685546875,-0.0161590576171875
1772536395180719900,4.057719970703125,-0.9985809326171875,-0.057861328125,-0.015838623046875
1772536395190767900,4.067767822265625,-0.9998626708984375,-0.05535888671875,-0.01641845703125
1772536395200815900,4.07781591796875,-0.9973297119140625,-0.054046630859375,-0.016632080078125
1772536395210863900,4.08786376953125,-0.99932861328125,-0.05316162109375,-0.015167236328125
1772536395220912600,4.09791259765625,-1.00299072265625,-0.052764892578125,-0.0132904052734375
1772536395230961000,4.1079609375,-1.0011138916015625,-0.052093505859375,-0.014190673828125
1772536395241008600,4.118008544921875,-1.001556396484375,-0.050750732421875,-0.0137786865234375
1772536395251057000,4.128056884765625,-1.005859375,-0.051177978515625,-0.0146636962890625
1772536395261105700,4.138105712890625,-1.0048065185546875,-0.051727294921875,-0.015289306640625
1772536395271154000,4.14815380859375,-1.000946044921875,-0.0515594482421875,-0.0152435302734375
1772536395281202000,4.158201904296875,-1.003143310546875,-0.0533294677734375,-0.0143280029296875
1772536395291249700,4.168249755859375,-1.00592041015625,-0.056365966796875,-0.0149993896484375
1772536395301298000,4.1782978515625,-1.0054473876953125,-0.0562744140625,-0.0181121826171875
1772536395311346700,4.1883466796875,-1.0019683837890625,-0.053924560546875,-0.0174560546875
1772536395321395000,4.19839501953125,-1.0008392333984375,-0.0545196533203125,-0.0178070068359375
1772536395331443000,4.20844287109375,-0.99835205078125,-0.0567626953125,-0.0171966552734375
1772536395341490700,4.21849072265625,-0.9962310791015625,-0.058258056640625,-0.0146331787109375
1772536395351539000,4.2285390625,-0.999603271484375,-0.0606536865234375,-0.0129547119140625
1772536395361587700,4.238587646484375,-1.0012969970703125,-0.0619659423828125,-0.0121307373046875
1772536395371636000,4.248635986328125,-0.998046875,-0.058837890625,-0.0119781494140625
1772536395381683700,4.25868359375,-0.99627685546875,-0.0544586181640625,-0.0126800537109375
1772536395391731700,4.268731689453125,-0.9969940185546875,-0.05157470703125,-0.013671875
1772536395401780700,4.27878076171875,-0.996185302734375,-0.0529632568359375,-0.012939453125
1772536395411828700,4.288828857421875,-0.9957733154296875,-0.05255126953125,-0.0106048583984375
1772536395421877000,4.298876953125,-0.998992919921875,-0.0529327392578125,-0.0107421875
1772536395431924700,4.3089248046875,-0.999908447265625,-0.05450439453125,-0.010986328125
1772536395441974000,4.31897412109375,-1.000823974609375,-0.0533599853515625,-0.011138916015625
1772536395452021800,4.329021728515625,-1.0005340576171875,-0.0530853271484375,-0.011962890625
1772536395462069800,4.33906982421875,-1.00079345703125,-0.052978515625,-0.013519287109375
1772536395472118000,4.349117919921875,-0.9993896484375,-0.0533599853515625,-0.0137939453125
1772536395482165800,4.359165771484375,-0.999603271484375,-0.0561370849609375,-0.013214111328125
1772536395492215000,4.369215087890625,-0.998870849609375,-0.05889892578125,-0.013153076171875
1772536395502262800,4.3792626953125,-1.0003814697265625,-0.060150146484375,-0.012420654296875
1772536395512310800,4.389310791015625,-1.000579833984375,-0.0606842041015625,-0.0129547119140625
1772536395522358800,4.39935888671875,-1.0010833740234375,-0.0623626708984375,-0.012298583984375
1772536395532406800,4.40940673828125,-1.0020904541015625,-0.0599517822265625,-0.0124969482421875
1772536395542455800,4.419455810546875,-1.0049896240234375,-0.0577239990234375,-0.01458740234375
1772536395552503800,4.42950390625,-1.0007171630859375,-0.055816650390625,-0.0148773193359375
1772536395562551800,4.4395517578125,-1.0017852783203125,-0.0548553466796875,-0.0134735107421875
1772536395572599800,4.449599853515625,-1.0057830810546875,-0.05291748046875,-0.0145721435546875
1772536395582648800,4.45964892578125,-1.0025634765625,-0.051788330078125,-0.0144500732421875
1772536395592696800,4.46969677734375,-1.0007781982421875,-0.050506591796875,-0.0137176513671875
1772536395602744800,4.479744873046875,-1.0031890869140625,-0.0502777099609375,-0.0137786865234375
1772536395612792800,4.489792724609375,-1.00457763671875,-0.051025390625,-0.0140228271484375
1772536395622840800,4.4998408203125,-0.997772216796875,-0.050445556640625,-0.01544189453125
1772536395632889900,4.509889892578125,-0.9950714111328125,-0.0514068603515625,-0.0145721435546875
1772536395642937900,4.519937744140625,-1.0016021728515625,-0.0551300048828125,-0.012725830078125
1772536395652985900,4.52998583984375,-1.0025482177734375,-0.05694580078125,-0.0160675048828125
1772536395663033600,4.54003369140625,-0.99627685546875,-0.056243896484375,-0.0152587890625
1772536395673083000,4.550082763671875,-0.9957733154296875,-0.0559234619140625,-0.016021728515625
1772536395683130600,4.560130615234375,-0.9983367919921875,-0.0575103759765625,-0.013580322265625
1772536395693179000,4.570178955078125,-1.00958251953125,-0.052459716796875,-0.0136566162109375
1772536395703227000,4.580226806640625,-1.0007781982421875,-0.053436279296875,-0.015777587890625
1772536395713274600,4.590274658203125,-0.9964599609375,-0.054168701171875,-0.01446533203125
1772536395723324000,4.600323974609375,-1.0030670166015625,-0.0546875,-0.0136260986328125
1772536395733371600,4.61037158203125,-1.0030670166015625,-0.0561676025390625,-0.01275634765625
1772536395743420000,4.620419921875,-1.0012969970703125,-0.0556640625,-0.0127105712890625
1772536395753468000,4.630468017578125,-1.000335693359375,-0.05413818359375,-0.0140228271484375
1772536395763517000,4.640516845703125,-0.9995880126953125,-0.0545196533203125,-0.0135345458984375
1772536395773565000,4.65056494140625,-0.99951171875,-0.0554962158203125,-0.0116119384765625
1772536395783612700,4.66061279296875,-1.001617431640625,-0.055572509765625,-0.0117034912109375
1772536395793661000,4.670660888671875,-1.0003662109375,-0.0553436279296875,-0.0132293701171875
1772536395803708700,4.680708740234375,-1.0004119873046875,-0.0553131103515625,-0.0116424560546875
1772536395813758000,4.690758056640625,-1.00274658203125,-0.0547027587890625,-0.013641357421875
1772536395823805700,4.7008056640625,-1.00042724609375,-0.051483154296875,-0.016143798828125
1772536395833853700,4.710853759765625,-1.0012969970703125,-0.0490570068359375,-0.0141143798828125
1772536395843902000,4.72090185546875,-1.0034942626953125,-0.0497894287109375,-0.0146026611328125
1772536395853949700,4.73094970703125,-1.0013427734375,-0.050537109375,-0.013427734375
1772536395863999000,4.7409990234375,-1.0020599365234375,-0.049407958984375,-0.013519287109375
1772536395874046700,4.751046630859375,-1.0007476806640625,-0.0504150390625,-0.014556884765625
1772536395884094700,4.7610947265625,-0.9989776611328125,-0.051025390625,-0.01318359375
1772536395894143000,4.77114306640625,-0.9999542236328125,-0.052490234375,-0.0141143798828125
1772536395904191700,4.781191650390625,-0.9977874755859375,-0.0520172119140625,-0.013916015625
1772536395914240000,4.791239990234375,-0.9968109130859375,-0.0500946044921875,-0.0145111083984375
1772536395924287700,4.801287841796875,-0.997833251953125,-0.052825927734375,-0.0142669677734375
1772536395934335700,4.811335693359375,-1.0001983642578125,-0.0533905029296875,-0.0140228271484375
1772536395944383700,4.8213837890625,-0.999847412109375,-0.053985595703125,-0.014862060546875
1772536395954432800,4.831432861328125,-1.0018310546875,-0.0539398193359375,-0.014312744140625
1772536395964480800,4.841480712890625,-1.00189208984375,-0.0558013916015625,-0.013580322265625
1772536395974528800,4.85152880859375,-1.001251220703125,-0.0548553466796875,-0.0129241943359375
1772536395984576800,4.86157666015625,-1.003265380859375,-0.053314208984375,-0.0136871337890625
1772536395994625800,4.871625732421875,-0.9995269775390625,-0.0521697998046875,-0.013824462890625
1772536396004673800,4.881673828125,-0.9984588623046875,-0.0507659912109375,-0.0137786865234375
1772536396014721800,4.8917216796875,-1.0012359619140625,-0.04998779296875,-0.0130157470703125
1772536396024769800,4.901769775390625,-1.0003509521484375,-0.0516204833984375,-0.0103302001953125
1772536396034817800,4.91181787109375,-1.0013427734375,-0.0517120361328125,-0.0094146728515625
1772536396044866800,4.92186669921875,-1.0028228759765625,-0.050567626953125,-0.009033203125
1772536396054914800,4.931914794921875,-1.003021240234375,-0.04840087890625,-0.0098419189453125
1772536396064962800,4.941962890625,-1.00347900390625,-0.047119140625,-0.012481689453125
1772536396075010800,4.9520107421875,-1.00299072265625,-0.047393798828125,-0.0132598876953125
1772536396085059800,4.962059814453125,-1.0016632080078125,-0.0482025146484375,-0.0139312744140625
1772536396095107800,4.97210791015625,-1.001312255859375,-0.0515289306640625,-0.013275146484375
1772536396105155600,4.982155517578125,-1.0001373291015625,-0.053192138671875,-0.013671875
1772536396115203800,4.992203857421875,-0.99713134765625,-0.0555877685546875,-0.0145111083984375
1772536396125251800,5.002251953125,-0.9962005615234375,-0.05810546875,-0.0135498046875
1772536396135300900,5.01230078125,-0.994659423828125,-0.0606842041015625,-0.0139617919921875
1772536396145348900,5.022348876953125,-0.996368408203125,-0.0599517822265625,-0.0140228271484375
1772536396155396600,5.032396728515625,-0.998260498046875,-0.058807373046875,-0.016143798828125
1772536396165444900,5.04244482421875,-0.9990692138671875,-0.0548553466796875,-0.0174560546875
1772536396175492900,5.052492919921875,-0.999603271484375,-0.0516815185546875,-0.0175933837890625
1772536396185542000,5.0625419921875,-1.00250244140625,-0.0492401123046875,-0.015777587890625
1772536396195590000,5.07258984375,-1.004364013671875,-0.049713134765625,-0.014862060546875
1772536396205638000,5.082637939453125,-1.003326416015625,-0.0498809814453125,-0.0120391845703125
1772536396215686000,5.092685791015625,-1.0034942626953125,-0.0480804443359375,-0.0109405517578125
1772536396225734700,5.102734619140625,-1.004547119140625,-0.047119140625,-0.0096282958984375
1772536396235783000,5.112782958984375,-1.001617431640625,-0.04608154296875,-0.0098876953125
1772536396245830700,5.12283056640625,-1.002105712890625,-0.0457611083984375,-0.010498046875
1772536396255879000,5.13287890625,-1.0025177001953125,-0.0474853515625,-0.0119171142578125
1772536396265927000,5.142927001953125,-0.999908447265625,-0.0497894287109375,-0.010955810546875
1772536396275975700,5.1529755859375,-1.0018463134765625,-0.0514984130859375,-0.010162353515625
1772536396286024000,5.16302392578125,-1.002532958984375,-0.05279541015625,-0.011871337890625
1772536396296071700,5.17307177734375,-0.9990997314453125,-0.0531768798828125,-0.01300048828125
1772536396306120000,5.183119873046875,-0.9959564208984375,-0.053741455078125,-0.014251708984375
1772536396316168700,5.193168701171875,-1.0003814697265625,-0.0543670654296875,-0.0124969482421875
1772536396326216700,5.203216796875,-1.00872802734375,-0.052398681640625,-0.0122222900390625
1772536396336265000,5.213264892578125,-1.0020294189453125,-0.0499267578125,-0.016021728515625
1772536396346312700,5.223312744140625,-0.9924468994140625,-0.0514678955078125,-0.01776123046875
1772536396356361000,5.23336083984375,-0.9931488037109375,-0.051116943359375,-0.018829345703125
1772536396366409700,5.24340966796875,-1.00848388671875,-0.0513458251953125,-0.014373779296875
1772536396376458000,5.2534580078125,-1.0074615478515625,-0.0527191162109375,-0.0159149169921875
1772536396386505700,5.263505615234375,-0.996307373046875,-0.0480499267578125,-0.01861572265625
1772536396396553700,5.2735537109375,-0.9984588623046875,-0.0484466552734375,-0.0175018310546875
1772536396406602800,5.283602783203125,-1.0024566650390625,-0.0521087646484375,-0.0153350830078125
1772536396416650800,5.293650634765625,-1.00665283203125,-0.0516204833984375,-0.0137176513671875
1772536396426699000,5.303698974609375,-1.0045013427734375,-0.0460968017578125,-0.0175933837890625
1772536396436746800,5.313746826171875,-1.0012969970703125,-0.042694091796875,-0.0155029296875
1772536396446794800,5.323794677734375,-1.0023651123046875,-0.0425872802734375,-0.0141448974609375
1772536396456843800,5.33384375,-1.0017852783203125,-0.0433349609375,-0.0133819580078125
1772536396466891800,5.343891845703125,-1.000762939453125,-0.0460357666015625,-0.01104736328125
1772536396476940000,5.35393994140625,-1.0059661865234375,-0.0483245849609375,-0.0094757080078125
1772536396486987800,5.36398779296875,-1.004791259765625,-0.0491790771484375,-0.0135650634765625
1772536396497035800,5.374035888671875,-0.9982757568359375,-0.0474090576171875,-0.0157012939453125
1772536396507084800,5.384084716796875,-1.0013885498046875,-0.046844482421875,-0.0166473388671875
1772536396517132800,5.3941328125,-1.0037384033203125,-0.0502777099609375,-0.0176849365234375
1772536396527180800,5.404180908203125,-0.999725341796875,-0.051300048828125,-0.0178985595703125
1772536396537228800,5.414228759765625,-0.9998931884765625,-0.0522918701171875,-0.0171966552734375
1772536396547277800,5.42427783203125,-1.0042724609375,-0.0521697998046875,-0.017333984375
1772536396557325800,5.434325927734375,-0.9983062744140625,-0.0506439208984375,-0.0190887451171875
1772536396567373800,5.444373779296875,-0.99664306640625,-0.0481414794921875,-0.0165863037109375
1772536396577421800,5.454421875,-1.0013580322265625,-0.0476531982421875,-0.0155487060546875
1772536396587469800,5.4644697265625,-1.001251220703125,-0.0505828857421875,-0.0148773193359375
1772536396597518800,5.474518798828125,-0.995819091796875,-0.0508270263671875,-0.013671875
1772536396607566800,5.48456689453125,-0.9973602294921875,-0.050567626953125,-0.0127105712890625
1772536396617614800,5.49461474609375,-0.9993133544921875,-0.0503082275390625,-0.0117034912109375
1772536396627662800,5.504662841796875,-1.004791259765625,-0.04791259765625,-0.0126800537109375
1772536396637710800,5.5147109375,-0.99737548828125,-0.0454559326171875,-0.016815185546875
1772536396647760000,5.524759765625,-0.99481201171875,-0.044281005859375,-0.01397705078125
1772536396657808000,5.534807861328125,-1.0030059814453125,-0.048187255859375,-0.0124664306640625
1772536396667855600,5.544855712890625,-1.007476806640625,-0.0514678955078125,-0.0118865966796875
1772536396677904000,5.55490380859375,-1.0071868896484375,-0.0512237548828125,-0.01434326171875
1772536396687952600,5.56495263671875,-1.004669189453125,-0.048431396484375,-0.015869140625
1772536396698001000,5.5750009765625,-1.005584716796875,-0.0458984375,-0.01800537109375
1772536396708049000,5.585048828125,-1.0042266845703125,-0.0448760986328125,-0.018768310546875
1772536396718096600,5.5950966796875,-0.9979705810546875,-0.0462493896484375,-0.0163116455078125
1772536396728145000,5.605144775390625,-0.9984588623046875,-0.0506134033203125,-0.0142364501953125
1772536396738193700,5.615193603515625,-1.0016632080078125,-0.0550994873046875,-0.0126190185546875
1772536396748242000,5.625241943359375,-1.0030670166015625,-0.0571441650390625,-0.0138092041015625
1772536396758290000,5.6352900390625,-0.99566650390625,-0.0555267333984375,-0.014739990234375
1772536396768337700,5.645337646484375,-0.996429443359375,-0.0529632568359375,-0.0142059326171875
1772536396778387000,5.655386962890625,-1.000732421875,-0.052734375,-0.0157470703125
1772536396788434700,5.6654345703125,-0.997161865234375,-0.050994873046875,-0.014892578125
1772536396798483000,5.67548291015625,-1.000579833984375,-0.0491790771484375,-0.013763427734375
1772536396808530700,5.68553076171875,-1.0081024169921875,-0.0480804443359375,-0.0155181884765625
1772536396818578700,5.69557861328125,-1.0030975341796875,-0.044036865234375,-0.0166473388671875
1772536396828627700,5.705627685546875,-1.004486083984375,-0.0401611328125,-0.0136260986328125
1772536396838675700,5.71567578125,-1.0096588134765625,-0.0416412353515625,-0.0145263671875
1772536396848724000,5.725723876953125,-1.0061798095703125,-0.0436553955078125,-0.012115478515625
1772536396858771700,5.735771728515625,-1.002410888671875,-0.044921875,-0.0108184814453125
1772536396868821000,5.745821044921875,-1.0018310546875,-0.0462799072265625,-0.014007568359375
1772536396878868700,5.75586865234375,-0.9972381591796875,-0.050537109375,-0.0151519775390625
1772536396888916700,5.765916748046875,-0.995758056640625,-0.0523681640625,-0.013702392578125
1772536396898965000,5.775965087890625,-1.0001220703125,-0.0520172119140625,-0.014984130859375
1772536396909012700,5.7860126953125,-0.998291015625,-0.05389404296875,-0.0169219970703125
1772536396919062000,5.79606201171875,-0.9962310791015625,-0.05364990234375,-0.017578125
1772536396929109800,5.80610986328125,-0.99456787109375,-0.05169677734375,-0.0191192626953125
1772536396939157800,5.81615771484375,-0.996551513671875,-0.051025390625,-0.01788330078125
1772536396949205800,5.826205810546875,-1.0005645751953125,-0.0506134033203125,-0.01904296875
1772536396959254800,5.8362548828125,-0.9991455078125,-0.0496978759765625,-0.016815185546875
1772536396969302800,5.846302734375,-1.000518798828125,-0.04742431640625,-0.017059326171875
1772536396979350800,5.856350830078125,-1.002044677734375,-0.046905517578125,-0.01678466796875
1772536396989398800,5.866398681640625,-1.003570556640625,-0.0476531982421875,-0.015380859375
1772536396999446800,5.87644677734375,-1.00335693359375,-0.048431396484375,-0.0146484375
1772536397009495800,5.886495849609375,-1.0023193359375,-0.0500335693359375,-0.013885498046875
1772536397019543800,5.896543701171875,-1.000823974609375,-0.052276611328125,-0.0140533447265625
1772536397029591800,5.906591796875,-1.0009307861328125,-0.0516357421875,-0.012939453125
1772536397039639800,5.916639892578125,-1.0015716552734375,-0.0517425537109375,-0.012725830078125
1772536397049687800,5.926687744140625,-1.0029449462890625,-0.049713134765625,-0.0135498046875
1772536397059736800,5.93673681640625,-1.003265380859375,-0.0473785400390625,-0.01458740234375
1772536397069784800,5.946784912109375,-1.0017547607421875,-0.046722412109375,-0.01519775390625
1772536397079833000,5.9568330078125,-1.00177001953125,-0.0463714599609375,-0.0139007568359375
1772536397089881000,5.966881103515625,-1.0030975341796875,-0.04791259765625,-0.014007568359375
1772536397099930000,5.97693017578125,-1.0020294189453125,-0.0488433837890625,-0.0133056640625
1772536397109977900,5.986977783203125,-1.00079345703125,-0.0498199462890625,-0.014373779296875
1772536397120026000,5.997026123046875,-1.0003509521484375,-0.0513916015625,-0.01507568359375
1772536397130074000,6.00707421875,-1.0014801025390625,-0.0504150390625,-0.0150299072265625
1772536397140123100,6.017123046875,-1.0010528564453125,-0.0493621826171875,-0.01727294921875
1772536397150171100,6.027171142578125,-1.000579833984375,-0.0489654541015625,-0.016571044921875
1772536397160219000,6.037218994140625,-1.001739501953125,-0.0481414794921875,-0.016357421875
1772536397170267100,6.04726708984375,-1.0054931640625,-0.049957275390625,-0.016143798828125
1772536397180315100,6.057315185546875,-1.00201416015625,-0.0503692626953125,-0.01611328125
1772536397190364200,6.0673642578125,-1.0012054443359375,-0.0503082275390625,-0.016265869140625
1772536397200412200,6.077412109375,-1.0027008056640625,-0.0518341064453125,-0.01434326171875
1772536397210460000,6.0874599609375,-1.001708984375,-0.0536651611328125,-0.013702392578125
1772536397220508200,6.097508056640625,-0.9981842041015625,-0.052032470703125,-0.014923095703125
1772536397230556000,6.107555908203125,-0.9962921142578125,-0.051727294921875,-0.0148162841796875
1772536397240605200,6.117605224609375,-0.9957427978515625,-0.05169677734375,-0.016571044921875
1772536397250653000,6.12765283203125,-0.9948577880859375,-0.0515289306640625,-0.01495361328125
1772536397260701200,6.137701171875,-0.99688720703125,-0.052490234375,-0.0140380859375
1772536397270749200,6.147749267578125,-0.9985504150390625,-0.05316162109375,-0.0145263671875
1772536397280798000,6.1577978515625,-0.999176025390625,-0.052703857421875,-0.0150604248046875
1772536397290846200,6.16784619140625,-0.99786376953125,-0.04901123046875,-0.0149993896484375
1772536397300894000,6.17789404296875,-1.003082275390625,-0.046722412109375,-0.01715087890625
1772536397310942200,6.187942138671875,-1.004180908203125,-0.04742431640625,-0.017608642578125
1772536397320990200,6.197990234375,-1.000457763671875,-0.04681396484375,-0.017364501953125
1772536397331039000,6.2080390625,-0.999603271484375,-0.0467681884765625,-0.0181732177734375
1772536397341087000,6.2180869140625,-1.0050048828125,-0.048370361328125,-0.01409912109375
1772536397351135000,6.228135009765625,-1.007049560546875,-0.048919677734375,-0.0157623291015625
1772536397361183200,6.238183349609375,-0.99969482421875,-0.049468994140625,-0.014617919921875
1772536397371231000,6.24823095703125,-1.001922607421875,-0.05157470703125,-0.0124359130859375
1772536397381280000,6.258280029296875,-1.00921630859375,-0.0527191162109375,-0.0113067626953125
1772536397391328000,6.268327880859375,-1.005126953125,-0.05279541015625,-0.0111083984375
1772536397401376000,6.2783759765625,-1.0010223388671875,-0.052093505859375,-0.0131072998046875
1772536397411424300,6.28842431640625,-1.004669189453125,-0.0523529052734375,-0.014190673828125
1772536397421473000,6.29847314453125,-1.00701904296875,-0.0521240234375,-0.0134735107421875
1772536397431521300,6.308521240234375,-1.0041046142578125,-0.0496063232421875,-0.015625
1772536397441569000,6.318569091796875,-0.9993896484375,-0.0474090576171875,-0.0161895751953125
1772536397451617000,6.328616943359375,-1.0016937255859375,-0.04840087890625,-0.0149383544921875
1772536397461665300,6.338665283203125,-0.99932861328125,-0.050811767578125,-0.0157928466796875
1772536397471714000,6.348714111328125,-0.9999237060546875,-0.0509796142578125,-0.013671875
1772536397481762000,6.358761962890625,-1.000946044921875,-0.05084228515625,-0.014862060546875
1772536397491810000,6.36881005859375,-0.9944000244140625,-0.04937744140625,-0.01544189453125
1772536397501858000,6.378858154296875,-0.99591064453125,-0.050933837890625,-0.0147247314453125
1772536397511907000,6.388906982421875,-0.99847412109375,-0.05291748046875,-0.0157318115234375
1772536397521955000,6.398955078125,-0.9980316162109375,-0.053192138671875,-0.015228271484375
1772536397532003000,6.409003173828125,-0.9990692138671875,-0.051849365234375,-0.0164947509765625
1772536397542051000,6.419051025390625,-0.998199462890625,-0.051361083984375,-0.0165557861328125
1772536397552099000,6.42909912109375,-1.001251220703125,-0.0516204833984375,-0.015899658203125
1772536397562148000,6.439148193359375,-1.0053253173828125,-0.0508270263671875,-0.01849365234375
1772536397572196000,6.449196044921875,-1.0027618408203125,-0.050048828125,-0.0169525146484375
1772536397582244000,6.459244140625,-1.0004425048828125,-0.049652099609375,-0.0167083740234375
1772536397592292000,6.4692919921875,-1.004364013671875,-0.0503692626953125,-0.017547607421875
1772536397602341000,6.479341064453125,-1.00286865234375,-0.0527191162109375,-0.016448974609375
1772536397612389000,6.48938916015625,-1.001007080078125,-0.0543060302734375,-0.015960693359375
1772536397622437000,6.49943701171875,-1.0027008056640625,-0.05377197265625,-0.016021728515625
1772536397632485000,6.509485107421875,-1.0011138916015625,-0.0543060302734375,-0.0155487060546875
1772536397642533000,6.519533203125,-1.0009765625,-0.0543365478515625,-0.0143280029296875
1772536397652582100,6.52958203125,-1.00201416015625,-0.0513763427734375,-0.01434326171875
1772536397662630100,6.539630126953125,-0.999969482421875,-0.050506591796875,-0.0141754150390625
1772536397672678000,6.549677978515625,-0.9996795654296875,-0.049713134765625,-0.01495361328125
1772536397682726100,6.55972607421875,-1.0010833740234375,-0.04925537109375,-0.0128326416015625
1772536397692774100,6.569774169921875,-1.002227783203125,-0.0491790771484375,-0.0146026611328125
1772536397702823200,6.5798232421875,-1.0001678466796875,-0.0496368408203125,-0.0139312744140625
1772536397712871200,6.58987109375,-1.001739501953125,-0.050872802734375,-0.013885498046875
1772536397722919000,6.5999189453125,-1.0042266845703125,-0.0509185791015625,-0.0140533447265625
1772536397732967200,6.60996728515625,-1.0041351318359375,-0.05035400390625,-0.016357421875
1772536397743016000,6.620015869140625,-1.0011444091796875,-0.0492706298828125,-0.0166015625
1772536397753064200,6.630064208984375,-0.9993133544921875,-0.0519256591796875,-0.016876220703125
1772536397763112200,6.6401123046875,-1.001708984375,-0.0566253662109375,-0.01727294921875
1772536397773160000,6.650159912109375,-1.000213623046875,-0.0581512451171875,-0.0154571533203125
1772536397783208200,6.660208251953125,-0.99761962890625,-0.05828857421875,-0.0156707763671875
1772536397793257000,6.670257080078125,-0.99700927734375,-0.05718994140625,-0.0165863037109375
1772536397803305200,6.68030517578125,-0.99896240234375,-0.058135986328125,-0.01556396484375
1772536397813353000,6.69035302734375,-1.00030517578125,-0.0584564208984375,-0.0155487060546875
1772536397823401000,6.70040087890625,-0.9978179931640625,-0.056488037109375,-0.0165557861328125
1772536397833450000,6.710449951171875,-0.9979095458984375,-0.0538482666015625,-0.0152740478515625
1772536397843498000,6.720498046875,-1.0016021728515625,-0.0538482666015625,-0.0140380859375
1772536397853546200,6.730546142578125,-1.001617431640625,-0.0544891357421875,-0.0143585205078125
1772536397863594000,6.740593994140625,-1.000579833984375,-0.054046630859375,-0.0148468017578125
1772536397873642000,6.75064208984375,-1.0005645751953125,-0.05242919921875,-0.0151824951171875
1772536397883691000,6.76069091796875,-1.0013427734375,-0.0536346435546875,-0.0157318115234375
1772536397893739000,6.770739013671875,-1.000701904296875,-0.053741455078125,-0.016937255859375
1772536397903787300,6.780787353515625,-1.0004730224609375,-0.0548858642578125,-0.0169830322265625
1772536397913835000,6.7908349609375,-1.000457763671875,-0.0571441650390625,-0.01556396484375
1772536397923884000,6.800884033203125,-1.001007080078125,-0.0572967529296875,-0.016632080078125
1772536397933932000,6.81093212890625,-1.0001220703125,-0.0554351806640625,-0.01898193359375
1772536397943980000,6.82097998046875,-0.998382568359375,-0.0557403564453125,-0.019195556640625
1772536397954028000,6.831028076171875,-0.9983062744140625,-0.055908203125,-0.0196685791015625
1772536397964076000,6.841075927734375,-0.99737548828125,-0.05511474609375,-0.019927978515625
1772536397974125000,6.851125,-0.9979400634765625,-0.05523681640625,-0.01873779296875
1772536397984173000,6.861173095703125,-0.99896240234375,-0.0557403564453125,-0.017486572265625
1772536397994221000,6.871220947265625,-0.9980316162109375,-0.0559844970703125,-0.0175323486328125
1772536398004269000,6.88126904296875,-1.000030517578125,-0.0574188232421875,-0.0125579833984375
1772536398014317000,6.891317138671875,-0.999053955078125,-0.0593109130859375,-0.01434326171875
1772536398024366000,6.901365966796875,-1.000091552734375,-0.059112548828125,-0.013824462890625
1772536398034414000,6.9114140625,-1.0018463134765625,-0.0586700439453125,-0.013427734375
1772536398044462000,6.921462158203125,-1.001190185546875,-0.0576324462890625,-0.016876220703125
1772536398054510000,6.931510009765625,-1.000244140625,-0.0562744140625,-0.0194854736328125
1772536398064559000,6.94155908203125,-1.00347900390625,-0.0550689697265625,-0.016876220703125
1772536398074610700,6.951610595703125,-1.0038909912109375,-0.0545654296875,-0.01629638671875
1772536398084658700,6.96165869140625,-1.0031585693359375,-0.0539093017578125,-0.016876220703125
1772536398094706700,6.971706787109375,-1.005615234375,-0.0542755126953125,-0.016448974609375
1772536398104754700,6.981754638671875,-1.00445556640625,-0.054595947265625,-0.014556884765625
1772536398114803700,6.9918037109375,-1.00299072265625,-0.0541534423828125,-0.0154266357421875
1772536398124851700,7.001851806640625,-0.998931884765625,-0.0539398193359375,-0.016357421875
1772536398134899700,7.011899658203125,-0.99896240234375,-0.0562896728515625,-0.0165252685546875
1772536398144947700,7.02194775390625,-1.0005950927734375,-0.0579071044921875,-0.0172119140625
1772536398154996700,7.031996826171875,-0.9983978271484375,-0.0592193603515625,-0.0162506103515625
1772536398165044700,7.042044677734375,-0.9973907470703125,-0.0608062744140625,-0.0175933837890625
1772536398175092700,7.0520927734375,-1.0006103515625,-0.060272216796875,-0.016143798828125
1772536398185140700,7.062140625,-0.9991912841796875,-0.05596923828125,-0.018341064453125
1772536398195188700,7.072188720703125,-0.9990692138671875,-0.0561676025390625,-0.0190582275390625
1772536398205237500,7.082237548828125,-1.0031280517578125,-0.057098388671875,-0.01959228515625
1772536398215285800,7.09228564453125,-1.0009613037109375,-0.0564422607421875,-0.017822265625
1772536398225333800,7.102333740234375,-0.9979400634765625,-0.0570526123046875,-0.0188751220703125
1772536398235381500,7.112381591796875,-0.999420166015625,-0.0579681396484375,-0.01812744140625
1772536398245429800,7.1224296875,-1.000152587890625,-0.059051513671875,-0.017364501953125
1772536398255478500,7.132478515625,-0.9995880126953125,-0.0610198974609375,-0.017486572265625
1772536398265526800,7.14252685546875,-0.9995574951171875,-0.06170654296875,-0.0173492431640625
1772536398275574800,7.15257470703125,-1.00042724609375,-0.06207275390625,-0.0169219970703125
1772536398285622500,7.16262255859375,-1.0025482177734375,-0.05950927734375,-0.017730712890625
1772536398295671800,7.172671875,-1.0016632080078125,-0.0548248291015625,-0.018280029296875
1772536398305719600,7.182719482421875,-1.0019683837890625,-0.05328369140625,-0.0167083740234375
1772536398315767800,7.192767822265625,-1.0036468505859375,-0.0529937744140625,-0.0158843994140625
1772536398325815600,7.202815673828125,-1.0039825439453125,-0.05377197265625,-0.01611328125
1772536398335863600,7.212863525390625,-1.0034027099609375,-0.0555877685546875,-0.0153656005859375
1772536398345912600,7.22291259765625,-1.00244140625,-0.056365966796875,-0.01495361328125
1772536398355960600,7.232960693359375,-1.00213623046875,-0.0578460693359375,-0.01617431640625
1772536398366008800,7.2430087890625,-1.0012359619140625,-0.0588531494140625,-0.0171966552734375
1772536398376056600,7.253056640625,-1.0010223388671875,-0.058349609375,-0.017791748046875
1772536398386105900,7.26310595703125,-1.000274658203125,-0.056793212890625,-0.01812744140625
1772536398396153600,7.273153564453125,-1.0010986328125,-0.0576171875,-0.0177154541015625
1772536398406201600,7.28320166015625,-0.9983367919921875,-0.0587005615234375,-0.01824951171875
1772536398416249900,7.293249755859375,-1.0001678466796875,-0.0593719482421875,-0.01904296875
1772536398426297600,7.303297607421875,-0.999847412109375,-0.0608367919921875,-0.0198974609375
1772536398436347000,7.313346923828125,-0.9991607666015625,-0.061859130859375,-0.0193939208984375
1772536398446394600,7.32339453125,-0.99896240234375,-0.0615081787109375,-0.0201263427734375
1772536398456442600,7.333442626953125,-0.9951629638671875,-0.0608367919921875,-0.01947021484375
1772536398466490600,7.34349072265625,-0.9986724853515625,-0.060272216796875,-0.0166778564453125
1772536398476538600,7.35353857421875,-1.0022125244140625,-0.0584259033203125,-0.017303466796875
1772536398486587600,7.363587646484375,-0.9983062744140625,-0.054443359375,-0.015380859375
1772536398496635600,7.3736357421875,-1.0001068115234375,-0.0511016845703125,-0.0151519775390625
1772536398506683600,7.38368359375,-1.012908935546875,-0.051605224609375,-0.0163726806640625
1772536398516731600,7.393731689453125,-0.9841766357421875,-0.063629150390625,-0.017242431640625
1772536398526780700,7.40378076171875,-0.9959869384765625,-0.05206298828125,-0.0205535888671875
1772536398536828700,7.41382861328125,-1.006744384765625,-0.0518035888671875,-0.016937255859375
1772536398546876700,7.423876708984375,-1.0023956298828125,-0.06011962890625,-0.018280029296875
1772536398556924700,7.433924560546875,-1.0020751953125,-0.0566558837890625,-0.0186920166015625
1772536398566972700,7.44397265625,-1.001495361328125,-0.055084228515625,-0.0187225341796875
1772536398577021700,7.454021728515625,-0.996337890625,-0.0576171875,-0.0197601318359375
1772536398587069700,7.464069580078125,-0.9963836669921875,-0.056640625,-0.019683837890625
1772536398597117700,7.47411767578125,-1.0021820068359375,-0.0566864013671875,-0.020416259765625
1772536398607165700,7.484165771484375,-0.9969635009765625,-0.0616912841796875,-0.0193634033203125
1772536398617214700,7.494214599609375,-0.994293212890625,-0.0615386962890625,-0.0191650390625
1772536398627262700,7.5042626953125,-1.0009613037109375,-0.0584259033203125,-0.018951416015625
1772536398637310700,7.514310791015625,-1.0010223388671875,-0.0590972900390625,-0.0190582275390625
1772536398647358700,7.524358642578125,-1.0007171630859375,-0.059173583984375,-0.0190277099609375
1772536398657406700,7.53440673828125,-1.0011749267578125,-0.0562286376953125,-0.0181732177734375
1772536398667455700,7.544455810546875,-0.9972686767578125,-0.0555419921875,-0.018829345703125
1772536398677503500,7.55450341796875,-0.998504638671875,-0.0535736083984375,-0.0185394287109375
1772536398687551700,7.5645517578125,-1.00164794921875,-0.0524139404296875,-0.020233154296875
1772536398697599700,7.574599853515625,-1.001495361328125,-0.0516204833984375,-0.0194854736328125
1772536398707647700,7.584647705078125,-1.0029144287109375,-0.051513671875,-0.0211334228515625
1772536398717696800,7.59469677734375,-1.00244140625,-0.051483154296875,-0.019287109375
1772536398727744500,7.60474462890625,-1.0032501220703125,-0.0521392822265625,-0.019805908203125
1772536398737792800,7.614792724609375,-1.003265380859375,-0.051513671875,-0.0186920166015625
1772536398747840800,7.6248408203125,-1.0011749267578125,-0.05078125,-0.0188751220703125
1772536398757889800,7.634889892578125,-1.0020599365234375,-0.0505523681640625,-0.018951416015625
1772536398767937500,7.6449375,-1.0005645751953125,-0.0518646240234375,-0.0187835693359375
1772536398777985500,7.654985595703125,-1.000885009765625,-0.05426025390625,-0.017547607421875
1772536398788033800,7.66503369140625,-1.00189208984375,-0.05670166015625,-0.0172882080078125
1772536398798081500,7.67508154296875,-1.0012359619140625,-0.057647705078125,-0.0171356201171875
1772536398808130800,7.685130859375,-0.9990692138671875,-0.0589599609375,-0.0169677734375
1772536398818178600,7.695178466796875,-1.0001068115234375,-0.0594329833984375,-0.019500732421875
1772536398828226800,7.705226806640625,-1.000030517578125,-0.0581817626953125,-0.0201416015625
1772536398838274800,7.71527490234375,-0.9985504150390625,-0.0562896728515625,-0.020172119140625
1772536398848323600,7.725323486328125,-0.996734619140625,-0.0542755126953125,-0.01971435546875
1772536398858371800,7.735371826171875,-0.99859619140625,-0.0553741455078125,-0.0187225341796875
1772536398868419600,7.745419677734375,-0.9991302490234375,-0.057342529296875,-0.018402099609375
1772536398878467800,7.7554677734375,-0.9998016357421875,-0.0572662353515625,-0.0166473388671875
1772536398888515600,7.765515625,-1.0006561279296875,-0.056549072265625,-0.016448974609375
1772536398898564600,7.775564697265625,-1.0013885498046875,-0.055572509765625,-0.0171051025390625
1772536398908612600,7.785612548828125,-0.997528076171875,-0.0534210205078125,-0.018829345703125
1772536398918660600,7.79566064453125,-0.9988250732421875,-0.053070068359375,-0.0186920166015625
1772536398928708900,7.805708984375,-1.002838134765625,-0.0539703369140625,-0.019073486328125
1772536398938756600,7.815756591796875,-1.00482177734375,-0.0536956787109375,-0.01788330078125
1772536398948805600,7.8258056640625,-1.003875732421875,-0.0542144775390625,-0.01873779296875
1772536398958853600,7.835853515625,-1.0061492919921875,-0.0504608154296875,-0.0210418701171875
1772536398968901600,7.845901611328125,-1.0025787353515625,-0.0491943359375,-0.0206298828125
1772536398978950000,7.855949951171875,-1.0052490234375,-0.0533447265625,-0.0191802978515625
1772536398988998700,7.86599853515625,-1.00872802734375,-0.0538787841796875,-0.017852783203125
1772536398999047000,7.876046875,-1.006072998046875,-0.0556793212890625,-0.0186767578125
1772536399009094700,7.8860947265625,-0.9996185302734375,-0.056671142578125,-0.019256591796875
1772536399019142700,7.896142578125,-1.00311279296875,-0.0579071044921875,-0.0179901123046875
1772536399029190700,7.906190673828125,-0.9987640380859375,-0.0600433349609375,-0.0184173583984375
1772536399039239700,7.91623974609375,-1.0004730224609375,-0.0583648681640625,-0.0143280029296875
1772536399049287700,7.92628759765625,-0.99884033203125,-0.059478759765625,-0.0157928466796875
1772536399059335700,7.936335693359375,-0.99395751953125,-0.060150146484375,-0.015289306640625
1772536399069383700,7.9463837890625,-0.994293212890625,-0.059326171875,-0.0137939453125
1772536399079428000,7.956427978515625,-0.9949951171875,-0.05889892578125,-0.0101776123046875
1772536399089476000,7.96647607421875,-1.0030517578125,-0.0623779296875,-0.0108795166015625
1772536399099524400,7.9765244140625,-1.0001220703125,-0.0601043701171875,-0.009429931640625
1772536399109572000,7.986572021484375,-0.997833251953125,-0.0554962158203125,-0.0103302001953125
1772536399119620000,7.9966201171875,-1.000762939453125,-0.055572509765625,-0.01275634765625
1772536399129669000,8.006669189453126,-1.00042724609375,-0.0572052001953125,-0.01275634765625
1772536399139717000,8.016717041015625,-0.998779296875,-0.058349609375,-0.0123138427734375
1772536399149765400,8.026765380859375,-1.0001220703125,-0.0599822998046875,-0.0139007568359375
1772536399159813000,8.036813232421874,-1.001007080078125,-0.060638427734375,-0.0132904052734375
1772536399169861000,8.046861083984375,-1.003875732421875,-0.0591278076171875,-0.0129852294921875
1772536399179910100,8.05691015625,-1.0039520263671875,-0.0577545166015625,-0.0147552490234375
1772536399189958100,8.066958251953125,-1.0007781982421875,-0.055206298828125,-0.0155181884765625
1772536399200006100,8.077006103515625,-0.99920654296875,-0.055419921875,-0.014862060546875
1772536399210054100,8.08705419921875,-0.99798583984375,-0.058349609375,-0.014190673828125
1772536399220103200,8.097103271484375,-0.9988555908203125,-0.05865478515625,-0.0129852294921875
1772536399230151200,8.107151123046876,-0.9994354248046875,-0.0608673095703125,-0.01318359375
1772536399240199200,8.11719921875,-0.9982147216796875,-0.06134033203125,-0.0125885009765625
1772536399250247200,8.1272470703125,-0.9983673095703125,-0.060546875,-0.0131072998046875
1772536399260295200,8.137295166015624,-1.0006866455078125,-0.0592498779296875,-0.0126190185546875
1772536399270344200,8.14734423828125,-1.00323486328125,-0.0580596923828125,-0.0127716064453125
1772536399280392200,8.15739208984375,-1.0027313232421875,-0.0569610595703125,-0.013458251953125
1772536399290440200,8.167440185546875,-1.0001678466796875,-0.0552978515625,-0.0143280029296875
1772536399300488200,8.17748828125,-0.9981231689453125,-0.051422119140625,-0.0150909423828125
1772536399310536200,8.1875361328125,-1.000946044921875,-0.04974365234375,-0.0160369873046875
1772536399320585200,8.197585205078125,-1.004364013671875,-0.0515594482421875,-0.01507568359375
1772536399330633200,8.20763330078125,-1.0078887939453125,-0.0529632568359375,-0.01470947265625
1772536399340681000,8.217680908203125,-1.008056640625,-0.052520751953125,-0.0121002197265625
1772536399350729200,8.227729248046876,-1.008056640625,-0.0515594482421875,-0.012054443359375
1772536399360778000,8.237778076171875,-1.005706787109375,-0.0500335693359375,-0.015655517578125
1772536399370826200,8.247826171875,-1.0013275146484375,-0.049468994140625,-0.01483154296875
1772536399380874200,8.257874267578124,-1.0003204345703125,-0.05255126953125,-0.0150146484375
1772536399390922000,8.267921875,-0.9974365234375,-0.0574798583984375,-0.0122528076171875
1772536399400970200,8.27797021484375,-0.9985809326171875,-0.0597381591796875,-0.010986328125
1772536399411019000,8.28801904296875,-0.9993896484375,-0.060089111328125,-0.0113525390625
1772536399421067300,8.2980673828125,-0.9984283447265625,-0.0583648681640625,-0.0142364501953125
1772536399431115300,8.308115234375,-0.9978179931640625,-0.05584716796875,-0.0138397216796875
1772536399441163300,8.318163330078125,-0.9995880126953125,-0.0538787841796875,-0.01434326171875
1772536399451212300,8.32821240234375,-1.0004730224609375,-0.054046630859375,-0.014129638671875
1772536399461260000,8.338260009765625,-1.0012664794921875,-0.0540771484375,-0.0152587890625
1772536399471308300,8.348308349609376,-0.9979248046875,-0.0538787841796875,-0.015380859375
1772536399481356000,8.35835595703125,-0.999053955078125,-0.055023193359375,-0.014556884765625
1772536399491404300,8.368404296875,-1.002655029296875,-0.05572509765625,-0.0150299072265625
1772536399501453000,8.378453125,-1.000732421875,-0.055816650390625,-0.01507568359375
1772536399511501000,8.3885009765625,-0.9983978271484375,-0.05645751953125,-0.0153350830078125
1772536399521549300,8.39854931640625,-0.999969482421875,-0.05633544921875,-0.01416015625
1772536399531597000,8.40859716796875,-0.9996185302734375,-0.056488037109375,-0.0146636962890625
1772536399541645300,8.418645263671875,-1.0006103515625,-0.05499267578125,-0.0151519775390625
1772536399551694000,8.428694091796874,-1.002838134765625,-0.052276611328125,-0.015533447265625
1772536399561742300,8.438742431640625,-0.9997406005859375,-0.0526123046875,-0.015167236328125
1772536399571790300,8.448790283203126,-1.0030364990234375,-0.05255126953125,-0.0155487060546875
1772536399581838000,8.458838134765625,-1.003448486328125,-0.05389404296875,-0.0163726806640625
1772536399591887400,8.468887451171875,-1.0011444091796875,-0.0541229248046875,-0.0146484375
1772536399601935000,8.47893505859375,-1.0012969970703125,-0.05364990234375,-0.014434814453125
1772536399611983400,8.4889833984375,-1.0008544921875,-0.054473876953125,-0.0164031982421875
1772536399622031000,8.499031005859376,-0.998291015625,-0.0542449951171875,-0.0172882080078125
1772536399632079000,8.5090791015625,-0.999786376953125,-0.0541839599609375,-0.016387939453125
1772536399642128100,8.519128173828125,-0.998687744140625,-0.0540771484375,-0.017333984375
1772536399652176100,8.529176025390624,-0.9992218017578125,-0.055511474609375,-0.0162353515625
1772536399662224400,8.539224365234375,-1.0016021728515625,-0.0562744140625,-0.0170440673828125
1772536399672272100,8.549272216796876,-0.9990692138671875,-0.054840087890625,-0.0166473388671875
1772536399682321200,8.559321044921875,-0.9989013671875,-0.055267333984375,-0.0180511474609375
1772536399692369200,8.569369140625,-1.00225830078125,-0.055389404296875,-0.0168609619140625
1772536399702417200,8.579417236328124,-1.001251220703125,-0.0552825927734375,-0.0157928466796875
1772536399712465400,8.58946533203125,-0.9986572265625,-0.0534820556640625,-0.0154266357421875
1772536399722513200,8.59951318359375,-0.99945068359375,-0.05328369140625,-0.0156097412109375
1772536399732562200,8.609562255859375,-1.0003509521484375,-0.0536956787109375,-0.0147705078125
1772536399742610200,8.619610107421876,-1.0010528564453125,-0.0540618896484375,-0.0150604248046875
1772536399752658200,8.629658203125,-1.0019073486328125,-0.05364990234375,-0.0151824951171875
1772536399762706200,8.6397060546875,-1.0039215087890625,-0.0551910400390625,-0.0140533447265625
1772536399772754200,8.649754150390624,-1.0031890869140625,-0.0569000244140625,-0.0123443603515625
1772536399782803200,8.65980322265625,-1.003082275390625,-0.05670166015625,-0.0126800537109375
1772536399792851200,8.669851318359376,-1.0023040771484375,-0.0533599853515625,-0.01434326171875
1772536399802899200,8.679899169921875,-0.9993743896484375,-0.0523529052734375,-0.0134124755859375
1772536399812947200,8.689947265625,-1.0020599365234375,-0.051849365234375,-0.0131683349609375
1772536399822995200,8.6999951171875,-1.000213623046875,-0.052947998046875,-0.0155792236328125
1772536399833044200,8.710044189453125,-0.9972381591796875,-0.05438232421875,-0.0152130126953125
1772536399843092200,8.72009228515625,-1.0001983642578125,-0.0551910400390625,-0.014068603515625
1772536399853140200,8.73014013671875,-1.0005340576171875,-0.0576171875,-0.0133209228515625
1772536399863188200,8.740188232421875,-0.9986572265625,-0.0587310791015625,-0.01318359375
1772536399873237200,8.7502373046875,-0.999847412109375,-0.058380126953125,-0.0135345458984375
1772536399883285200,8.76028515625,-1.0023193359375,-0.0585479736328125,-0.0159149169921875
1772536399893333200,8.770333251953126,-1.002960205078125,-0.056732177734375,-0.0159912109375
1772536399903381000,8.780381103515625,-1.0037841796875,-0.0555877685546875,-0.01544189453125
1772536399913429200,8.79042919921875,-1.0040435791015625,-0.0534820556640625,-0.0155181884765625
1772536399923478000,8.80047802734375,-1.003753662109375,-0.0506134033203125,-0.01422119140625
1772536399933526300,8.8105263671875,-1.004791259765625,-0.0513458251953125,-0.01385498046875
1772536399943574300,8.82057421875,-1.0035400390625,-0.05224609375,-0.0124053955078125
1772536399953622000,8.8306220703125,-1.005401611328125,-0.05303955078125,-0.0108184814453125
1772536399963671300,8.84067138671875,-1.001312255859375,-0.0528411865234375,-0.01141357421875
1772536399973719000,8.850718994140625,-0.9977264404296875,-0.052825927734375,-0.0109405517578125
1772536399983767300,8.860767333984375,-0.996734619140625,-0.052825927734375,-0.011322021484375
1772536399993815300,8.870815185546874,-0.996185302734375,-0.054534912109375,-0.0113677978515625
1772536400003863000,8.880863037109375,-0.9963226318359375,-0.0566864013671875,-0.010833740234375
1772536400013912300,8.890912353515626,-0.9973907470703125,-0.057891845703125,-0.01202392578125
1772536400023960000,8.9009599609375,-0.999053955078125,-0.058929443359375,-0.0125274658203125
1772536400034008300,8.91100830078125,-0.999969482421875,-0.0587921142578125,-0.0139617919921875
1772536400044056000,8.92105615234375,-1.000457763671875,-0.0582275390625,-0.014739990234375
1772536400054105300,8.931105224609375,-1.0016632080078125,-0.057861328125,-0.0157318115234375
1772536400064153000,8.941153076171876,-1.00262451171875,-0.0573883056640625,-0.0141448974609375
1772536400074201600,8.95120166015625,-1.002197265625,-0.0545501708984375,-0.0163726806640625
1772536400084249600,8.96124951171875,-1.00006103515625,-0.05450439453125,-0.0153045654296875
1772536400094297300,8.97129736328125,-1.000885009765625,-0.055755615234375,-0.01483154296875
1772536400104346600,8.9813466796875,-1.002197265625,-0.057952880859375,-0.013916015625
1772536400114394400,8.991394287109374,-1.0001373291015625,-0.0573577880859375,-0.014068603515625
1772536400124442600,9.001442626953125,-1.0000762939453125,-0.05609130859375,-0.0140533447265625
1772536400134490400,9.011490478515626,-0.998748779296875,-0.055877685546875,-0.014739990234375
1772536400144538400,9.021538330078124,-0.99798583984375,-0.0559844970703125,-0.0132904052734375
1772536400154587400,9.03158740234375,-1.000457763671875,-0.055938720703125,-0.0140228271484375
1772536400164635400,9.041635498046874,-0.9987335205078125,-0.0544891357421875,-0.0129241943359375
1772536400174683600,9.05168359375,-0.999908447265625,-0.0535125732421875,-0.011383056640625
1772536400184731400,9.0617314453125,-1.0021514892578125,-0.051666259765625,-0.011749267578125
1772536400194780700,9.07178076171875,-1.0047454833984375,-0.0511016845703125,-0.0121612548828125
1772536400204828400,9.081828369140625,-1.0032806396484375,-0.0499725341796875,-0.0140838623046875
1772536400214876400,9.09187646484375,-1.00262451171875,-0.05084228515625,-0.01318359375
1772536400224924700,9.101924560546875,-1.0068511962890625,-0.0527496337890625,-0.01348876953125
1772536400234972400,9.111972412109376,-1.0021514892578125,-0.0543365478515625,-0.0142364501953125
1772536400245021700,9.122021728515625,-0.99993896484375,-0.0547943115234375,-0.0141448974609375
1772536400255069400,9.1320693359375,-1.002197265625,-0.055511474609375,-0.0162811279296875
1772536400265117400,9.142117431640624,-1.00006103515625,-0.055938720703125,-0.017333984375
1772536400275165400,9.15216552734375,-0.99798583984375,-0.0581512451171875,-0.0167999267578125
1772536400285213400,9.16221337890625,-1.0003509521484375,-0.059173583984375,-0.0171051025390625
1772536400295262500,9.172262451171875,-0.999176025390625,-0.0595245361328125,-0.0166778564453125
1772536400305310500,9.182310546875,-1.0003509521484375,-0.0580902099609375,-0.0141754150390625
1772536400315358500,9.1923583984375,-1.001251220703125,-0.055450439453125,-0.0131072998046875
1772536400325406500,9.202406494140625,-0.9990386962890625,-0.0522308349609375,-0.0123443603515625
1772536400335455500,9.21245556640625,-0.9994354248046875,-0.0508270263671875,-0.0128326416015625
1772536400345503500,9.22250341796875,-1.000823974609375,-0.0520782470703125,-0.0124053955078125
1772536400355551500,9.232551513671876,-1.0009613037109375,-0.0522613525390625,-0.0123138427734375
1772536400365599500,9.242599609375,-0.9965057373046875,-0.052520751953125,-0.0106658935546875
1772536400375647500,9.2526474609375,-1.000946044921875,-0.05255126953125,-0.0087432861328125
1772536400385696500,9.262696533203124,-1.0014495849609375,-0.0528411865234375,-0.010345458984375
1772536400395744500,9.27274462890625,-1.0024871826171875,-0.0523834228515625,-0.0098114013671875
1772536400405792500,9.28279248046875,-1.002777099609375,-0.0532989501953125,-0.012237548828125
1772536400415840500,9.292840576171875,-0.9998931884765625,-0.0520782470703125,-0.0137481689453125
1772536400425888500,9.302888427734375,-0.9993743896484375,-0.0505523681640625,-0.016693115234375
1772536400435937300,9.312937255859374,-0.997222900390625,-0.051971435546875,-0.0159454345703125
1772536400445985500,9.322985595703125,-0.9935760498046875,-0.053955078125,-0.0145263671875
1772536400456033500,9.333033447265626,-0.991973876953125,-0.0550994873046875,-0.012359619140625
1772536400466081300,9.343081298828125,-0.996246337890625,-0.0573883056640625,-0.00982666015625
1772536400476130600,9.353130615234376,-0.9982147216796875,-0.058929443359375,-0.01007080078125
1772536400486178300,9.36317822265625,-0.989715576171875,-0.0558319091796875,-0.0132598876953125
1772536400496226600,9.3732265625,-0.99560546875,-0.0542449951171875,-0.01116943359375
1772536400506274600,9.383274658203124,-1.00225830078125,-0.0563201904296875,-0.0117645263671875
1772536400516322300,9.393322265625,-1.0066680908203125,-0.0560455322265625,-0.0122528076171875
1772536400526371600,9.40337158203125,-1.0093231201171875,-0.0537109375,-0.012115478515625
1772536400536419300,9.41341943359375,-1.011474609375,-0.0530853271484375,-0.0132904052734375
1772536400546467600,9.423467529296875,-1.008026123046875,-0.0528564453125,-0.0129852294921875
1772536400556515300,9.433515380859374,-1.0125579833984375,-0.0498046875,-0.0119476318359375
1772536400566563300,9.443563232421875,-1.02069091796875,-0.0503082275390625,-0.009918212890625
1772536400576612400,9.4536123046875,-1.0159912109375,-0.0478515625,-0.0103607177734375
1772536400586660400,9.463660400390625,-1.011260986328125,-0.04388427734375,-0.0141448974609375
1772536400596708600,9.47370849609375,-1.010528564453125,-0.0431060791015625,-0.0130615234375
