time,seconds_elapsed,z,y,x
1772536391186551000,0.063551025390625,0.16659004986286163,-0.019218968227505684,0.24041926860809326
1772536391196599000,0.07359912109375,0.17216697335243225,0.13554531335830688,0.20544317364692688
1772536391206648000,0.08364794921875,0.19834157824516296,0.23703224956989288,0.13852059841156006
1772536391216696000,0.093696044921875,0.2340172827243805,0.28541362285614014,0.07191307097673416
1772536391226744000,0.103744140625,0.25510820746421814,0.29892972111701965,0.056053414940834045
1772536391236792000,0.1137919921875,0.24641376733779907,0.2892451286315918,0.0951123982667923
1772536391246841000,0.123841064453125,0.2146150916814804,0.2686389088630676,0.17386899888515472
1772536391256889000,0.13388916015625,0.07737654447555542,0.22005273401737213,0.2990735173225403
1772536391266937000,0.14393701171875,-0.14864087104797363,0.07076524943113327,0.4284980893135071
1772536391276985000,0.153985107421875,-0.2773652970790863,-0.11634605377912521,0.5244097113609314
1772536391287033000,0.164033203125,-0.17991703748703003,-0.1660584807395935,0.5076533555984497
1772536391297082000,0.17408203125,-0.05011270195245743,0.006336458958685398,0.44111669063568115
1772536391307130000,0.184130126953125,0.051901280879974365,0.15909191966056824,0.34225454926490784
1772536391317178000,0.19417822265625,0.12545005977153778,0.2024521678686142,0.23887382447719574
1772536391327226000,0.20422607421875,0.19777193665504456,0.23631852865219116,0.16020672023296356
1772536391337275100,0.214275146484375,0.24181635677814484,0.3164791464805603,0.12126464396715164
1772536391347323100,0.2243232421875,0.24140436947345734,0.4251672625541687,0.1055687665939331
1772536391357371100,0.23437109375,0.21785695850849152,0.4968220293521881,0.11249139159917831
1772536391367419000,0.2444189453125,0.1766519993543625,0.49682679772377014,0.14782647788524628
1772536391377467100,0.254467041015625,0.13370239734649658,0.39897722005844116,0.19808778166770935
1772536391387516000,0.264515869140625,0.1032363772392273,0.25567758083343506,0.2605346441268921
1772536391397564200,0.274564208984375,0.08248768746852875,0.12425963580608368,0.3150293231010437
1772536391407612200,0.284612060546875,0.06290706247091293,0.0018322548130527139,0.35689979791641235
1772536391417660000,0.294659912109375,0.04728735610842705,-0.11718521267175674,0.3654962182044983
1772536391427709200,0.304709228515625,0.029524601995944977,-0.2351805567741394,0.3764601945877075
1772536391437757000,0.3147568359375,-0.07265476137399673,-0.3124271333217621,0.3962208330631256
1772536391447805200,0.32480517578125,-0.18083369731903076,-0.4451684057712555,0.4315492808818817
1772536391457853200,0.334853271484375,-0.15130802989006042,-0.5639158487319946,0.36109188199043274
1772536391467901000,0.34490087890625,-0.06324181705713272,-0.43785351514816284,0.2959219217300415
1772536391477950200,0.3549501953125,0.01338824350386858,-0.3111075460910797,0.21311120688915253
1772536391487998000,0.364998046875,0.04513605311512947,-0.27144110202789307,0.11455933749675751
1772536391498046200,0.375046142578125,0.05746994912624359,-0.24370986223220825,0.032405611127614975
1772536391508094000,0.385093994140625,0.06764934957027435,-0.16378414630889893,-0.02159743756055832
1772536391518143200,0.395143310546875,0.08120324462652206,-0.06226151064038277,-0.052492767572402954
1772536391528191000,0.40519091796875,0.059129100292921066,0.025378061458468437,-0.031985897570848465
1772536391538239000,0.415239013671875,-0.02736903913319111,0.03472389280796051,0.024507207795977592
1772536391548287200,0.425287353515625,-0.09494568407535553,-0.038783349096775055,0.042508579790592194
1772536391558335000,0.4353349609375,-0.11603233218193054,-0.045943789184093475,0.02257535047829151
1772536391568384300,0.44538427734375,-0.10636026412248611,-0.011595137417316437,-0.025135446339845657
1772536391578432000,0.455431884765625,-0.08992695808410645,-0.024444356560707092,-0.08602382987737656
1772536391588480000,0.46547998046875,-0.07873502373695374,-0.08994533866643906,-0.13032472133636475
1772536391598528300,0.4755283203125,-0.07897550612688065,-0.17422959208488464,-0.14264902472496033
1772536391608577000,0.485576904296875,-0.08906809240579605,-0.19807420670986176,-0.13414183259010315
1772536391618625300,0.495625244140625,-0.10158334672451019,-0.1413334310054779,-0.12769857048988342
1772536391628673000,0.505673095703125,-0.11341816931962967,-0.04463404789566994,-0.12898008525371552
1772536391638721000,0.515720947265625,-0.11554896831512451,0.03813140466809273,-0.13903218507766724
1772536391648770000,0.52577001953125,-0.09461092948913574,0.097645603120327,-0.14244209229946136
1772536391658818000,0.535818115234375,-0.07497411221265793,0.11768055707216263,-0.11844435334205627
1772536391668866000,0.545865966796875,-0.06462106853723526,0.10019264370203018,-0.07571766525506973
1772536391678914000,0.5559140625,-0.0701998621225357,0.05590960383415222,-0.03885898366570473
1772536391688962300,0.56596240234375,-0.08360115438699722,-0.0004569984448608011,-0.013970410451292992
1772536391699011000,0.576010986328125,-0.10700128227472305,-0.06278668344020844,0.004850149154663086
1772536391709059000,0.58605908203125,-0.11985529959201813,-0.12277945131063461,0.014101438224315643
1772536391719107000,0.596107177734375,-0.11866060644388199,-0.17660219967365265,0.017010675743222237
1772536391729155000,0.606155029296875,-0.09917052835226059,-0.21457141637802124,0.010063286870718002
1772536391739204000,0.6162041015625,-0.07424280792474747,-0.23326921463012695,0.009633718989789486
1772536391749252000,0.626252197265625,-0.04156794771552086,-0.22137552499771118,0.005283178761601448
1772536391759300000,0.636300048828125,-0.016271647065877914,-0.16561053693294525,0.0017776599852368236
1772536391769348000,0.64634814453125,0.0059601543471217155,-0.09175042808055878,-0.012594621628522873
1772536391779396000,0.65639599609375,0.007378287613391876,-0.031097466126084328,-0.025240374729037285
1772536391789445000,0.666445068359375,0.006746053230017424,-0.012352273799479008,-0.03498008847236633
1772536391799493000,0.6764931640625,0.008953547105193138,-0.01636965200304985,-0.03765097260475159
1772536391809540900,0.686540771484375,0.01661652699112892,-0.02322010137140751,-0.03579741343855858
1772536391819589000,0.696589111328125,0.011265171691775322,-0.02370746061205864,-0.03635640814900398
1772536391829638000,0.706637939453125,-0.005612345412373543,-0.033123865723609924,-0.057791925966739655
1772536391839686100,0.71668603515625,-0.021687984466552734,-0.05248158425092697,-0.08717697858810425
1772536391849734100,0.726734130859375,-0.03015497326850891,-0.04626656323671341,-0.1200672835111618
1772536391859782100,0.7367822265625,-0.03930319845676422,-0.018573151901364326,-0.14169348776340485
1772536391869830100,0.746830078125,-0.053469881415367126,-0.002380599733442068,-0.1545373797416687
1772536391879879000,0.75687890625,-0.06381440162658691,-0.018273545429110527,-0.15891587734222412
1772536391889927200,0.76692724609375,-0.06448019295930862,-0.02966042421758175,-0.14829333126544952
1772536391899975200,0.77697509765625,-0.049304697662591934,-0.016648484393954277,-0.14702220261096954
1772536391910023200,0.787023193359375,-0.036306608468294144,0.013130449689924717,-0.14431136846542358
1772536391920072200,0.797072265625,-0.039750874042510986,0.0226813443005085,-0.14704617857933044
1772536391930120000,0.807119873046875,-0.039805203676223755,0.016383500769734383,-0.1533312350511551
1772536391940168200,0.817168212890625,-0.03756362199783325,0.026757577434182167,-0.15854011476039886
1772536391950216000,0.8272158203125,-0.04145902767777443,0.048893772065639496,-0.15237408876419067
1772536391960264200,0.83726416015625,-0.049724679440259933,0.033257823437452316,-0.15677496790885925
1772536391970313000,0.84731298828125,-0.05445551872253418,-0.012103534303605556,-0.17721205949783325
1772536391980361200,0.857361328125,-0.05522250756621361,-0.02809768170118332,-0.179714635014534
1772536391990409200,0.8674091796875,-0.06284793466329575,-0.02798209898173809,-0.16892804205417633
1772536392000457000,0.87745703125,-0.06175364553928375,-0.027595408260822296,-0.16651573777198792
1772536392010506200,0.88750634765625,-0.054121293127536774,-0.0291775930672884,-0.16359372437000275
1772536392020554000,0.897553955078125,-0.039207056164741516,-0.031086280941963196,-0.15631982684135437
1772536392030602200,0.907602294921875,-0.026806047186255455,-0.034210700541734695,-0.13659726083278656
1772536392040650200,0.917650146484375,-0.015854863449931145,-0.020303940400481224,-0.10614028573036194
1772536392050699000,0.927698974609375,-0.009692308492958546,-0.010402306914329529,-0.08274601399898529
1772536392060747300,0.937747314453125,-0.005169994663447142,0.004395014606416225,-0.06251637637615204
1772536392070794000,0.9477939453125,-0.009982326999306679,0.01877155713737011,-0.05432262644171715
1772536392080842000,0.957842041015625,-0.02143178880214691,-0.0015243934467434883,-0.052926596254110336
1772536392090890000,0.967889892578125,-0.02857278846204281,-0.028794096782803535,-0.05877010524272919
1772536392100939000,0.97793896484375,-0.03521524369716644,-0.04724501073360443,-0.06021780148148537
1772536392110987000,0.987987060546875,-0.035288214683532715,-0.04723302647471428,-0.04927460476756096
1772536392121034800,0.99803466796875,-0.034205108880996704,-0.0338067002594471,-0.03708531707525253
1772536392131083000,1.0080830078125,-0.025440644472837448,-0.01726873591542244,-0.031735558062791824
1772536392141131800,1.0181318359375,-0.018390458077192307,0.00049082055920735,-0.031436752527952194
1772536392151180000,1.028179931640625,-0.00884861871600151,0.0054277884773910046,-0.03363439440727234
1772536392161228000,1.03822802734375,-0.005218463949859142,-0.002316950121894479,-0.029758960008621216
1772536392171275800,1.04827587890625,-0.006418484263122082,-0.024152474477887154,-0.02593279629945755
1772536392181324000,1.058323974609375,0.00041625206358730793,-0.0398307703435421,-0.019757192581892014
1772536392191372800,1.068372802734375,0.01173335500061512,-0.042200718075037,-0.008375908248126507
1772536392201421000,1.078421142578125,0.017222663387656212,-0.03176805004477501,-0.003650394966825843
1772536392211469000,1.088468994140625,0.023448601365089417,-0.01769563928246498,-0.005507417023181915
1772536392221516800,1.098516845703125,0.02623613178730011,-0.008584166876971722,-0.006560963578522205
1772536392231566000,1.108566162109375,0.021131915971636772,-0.00942173134535551,-0.01065157912671566
1772536392241613800,1.11861376953125,0.020614730194211006,-0.013019395060837269,-0.012138155288994312
1772536392251662000,1.128662109375,0.018685270100831985,-0.017292438074946404,-0.011537079699337482
1772536392261709800,1.138709716796875,0.02219771407544613,-0.010658503510057926,-0.00845873262733221
1772536392271757800,1.1487578125,0.023034745827317238,-0.007631287910044193,-0.008857673965394497
1772536392281806800,1.158806884765625,0.020080501213669777,-0.010654774494469166,-0.005540173966437578
1772536392291854800,1.168854736328125,0.015142734162509441,-0.01426255889236927,-0.002758768619969487
1772536392301903000,1.178903076171875,0.006342850625514984,-0.01738005504012108,-0.0026011094450950623
1772536392311950800,1.188950927734375,-0.003728425595909357,-0.02094309777021408,-0.002112685702741146
1772536392322000100,1.199000244140625,-0.008184426464140415,-0.012058527208864689,0.0002593918761704117
1772536392332048000,1.2090478515625,-0.00376011710613966,0.013977334834635258,0.0039039277471601963
1772536392342096000,1.219095947265625,-0.002398176584392786,0.03339257836341858,0.010522149503231049
1772536392352144100,1.22914404296875,-0.005367867648601532,0.03614601865410805,0.006422212813049555
1772536392362192000,1.23919189453125,0.0007829693495295942,0.02401425689458847,-0.003479952458292246
1772536392372241000,1.249240966796875,0.004614725708961487,0.01287718303501606,-0.0007592672482132912
1772536392382289000,1.259288818359375,0.003918042406439781,-0.0000852211524033919,0.007732754573225975
1772536392392337000,1.2693369140625,0.0023284016642719507,-0.00957060232758522,0.014697719365358353
1772536392402385000,1.279385009765625,0.0046517434529960155,-0.009257947094738483,0.01811428926885128
1772536392412434000,1.289433837890625,0.0038629150949418545,-0.02153218910098076,0.007392136380076408
1772536392422482000,1.29948193359375,0.007574296556413174,-0.021501563489437103,0.011200456880033016
1772536392432530000,1.309530029296875,0.006394249852746725,0.002484729280695319,0.021626997739076614
1772536392442578000,1.319577880859375,0.003037335118278861,0.013834589160978794,0.02851526439189911
1772536392452626000,1.3296259765625,0.0017004283145070076,0.0059931776486337185,0.028312597423791885
1772536392462675000,1.339675048828125,0.004421113524585962,0.007301056291908026,0.022758042439818382
1772536392472723000,1.349722900390625,0.006434996146708727,0.026797791942954063,0.020300211384892464
1772536392482771000,1.35977099609375,0.0010628675809130073,0.031261250376701355,0.013591708615422249
1772536392492819000,1.36981884765625,0.0017901768442243338,0.018688999116420746,0.008590292185544968
1772536392502868000,1.379867919921875,0.010210293345153332,0.023993216454982758,0.022112758830189705
1772536392512916000,1.389916015625,0.010260893031954765,0.04348968714475632,0.039562322199344635
1772536392522964000,1.3999638671875,0.010446782223880291,0.053044840693473816,0.04462898522615433
1772536392533012000,1.410011962890625,0.015991482883691788,0.048644233494997025,0.03773033618927002
1772536392543059700,1.420059814453125,0.01824371889233589,0.03942836448550224,0.029046565294265747
1772536392553109000,1.43010888671875,0.00612313998863101,0.027761323377490044,0.018849853426218033
1772536392563156700,1.44015673828125,-0.0002282329078298062,0.01037594210356474,0.009317335672676563
1772536392573205000,1.450205078125,-0.005023787263780832,-0.00011584750609472394,-0.003129746997728944
1772536392583253000,1.4602529296875,-0.01001907791942358,-0.009700298309326172,-0.01853347010910511
1772536392593302000,1.470302001953125,-0.017069797962903976,-0.005890912376344204,-0.021694377064704895
1772536392603350000,1.48035009765625,-0.029217272996902466,0.0034463966730982065,-0.022350845858454704
1772536392613397800,1.490397705078125,-0.03483973816037178,0.0017118799732998013,-0.018322015181183815
1772536392623446000,1.500446044921875,-0.0371825210750103,0.0031108383554965258,-0.02105548419058323
1772536392633494000,1.510493896484375,-0.03133075684309006,0.004002464935183525,-0.018006963655352592
1772536392643543000,1.52054296875,-0.024590564891695976,0.006734335329383612,-0.013934724032878876
1772536392653591000,1.530591064453125,-0.019705262035131454,0.005625927820801735,-0.010677145794034004
1772536392663638800,1.540638671875,-0.017556089907884598,0.011487012729048729,-0.0022746059112250805
1772536392673687000,1.55068701171875,-0.018182998523116112,0.01534433476626873,-0.001642637769691646
1772536392683735800,1.56073583984375,-0.02104935795068741,0.022518625482916832,0.004832572303712368
1772536392693784000,1.5707841796875,-0.023243537172675133,0.021700235083699226,-0.0017270599491894245
1772536392703831800,1.580831787109375,-0.026993000879883766,-0.0070589748211205006,-0.014815164729952812
1772536392713879800,1.5908798828125,-0.01900777965784073,-0.027905933558940887,-0.02610830031335354
1772536392723928000,1.600927978515625,-0.014302772469818592,-0.01763332262635231,-0.015121428295969963
1772536392733976800,1.610976806640625,-0.0208288487046957,0.00430233683437109,-0.005549761466681957
1772536392744025000,1.621025146484375,-0.025172730907797813,-0.0008668589289300144,-0.012279569171369076
1772536392754072800,1.63107275390625,-0.020846160128712654,-0.020182233303785324,-0.01152616087347269
1772536392764121000,1.64112109375,-0.01200126949697733,-0.0028509139083325863,0.013207148760557175
1772536392774169900,1.651169921875,-0.009997772984206676,0.024055268615484238,0.03981425613164902
1772536392784217900,1.6612177734375,-0.00752129964530468,0.03693937510251999,0.04976595938205719
1772536392794266000,1.67126611328125,-0.008972189389169216,0.0302622988820076,0.04126941040158272
1772536392804313900,1.68131396484375,-0.015218367800116539,0.011498730629682541,0.022122345864772797
1772536392814362000,1.691362060546875,-0.010420949198305607,-0.0022391858510673046,0.004942560568451881
1772536392824411000,1.701410888671875,-0.01497948169708252,0.0005715143634006381,0.0023222763556987047
1772536392834459000,1.711458984375,-0.019464511424303055,-0.0012924320762977004,0.0010277138790115714
1772536392844507000,1.7215068359375,-0.027584223076701164,-0.010337059386074543,-0.013658021576702595
1772536392854555000,1.731554931640625,-0.032638102769851685,-0.026943733915686607,-0.03977697342634201
1772536392864604000,1.74160400390625,-0.03187723830342293,-0.03648237884044647,-0.04740612953901291
1772536392874652000,1.75165185546875,-0.02918158657848835,-0.021825138479471207,-0.042982086539268494
1772536392884700000,1.761699951171875,-0.03477369248867035,0.0025832662358880043,-0.028564000502228737
1772536392894748000,1.771747802734375,-0.03256087377667427,0.027779167518019676,-0.01375096570700407
1772536392904797000,1.781796875,-0.03418806567788124,0.03152037411928177,-0.015586149878799915
1772536392914845000,1.791844970703125,-0.030342992395162582,0.012723518535494804,-0.025012409314513206
1772536392924893000,1.801892822265625,-0.030172016471624374,-0.010596717707812786,-0.03418566659092903
1772536392934941000,1.81194091796875,-0.021411016583442688,-0.015810655429959297,-0.03141731023788452
1772536392944989000,1.821989013671875,-0.011894476599991322,-0.0006578007596544921,-0.020179303362965584
1772536392955038000,1.832037841796875,-0.0020058928057551384,0.018395252525806427,-0.0073077138513326645
1772536392965086000,1.8420859375,0.0030775489285588264,0.023792946711182594,0.009040633216500282
1772536392975134000,1.852134033203125,0.0031902005430310965,0.020107930526137352,0.010432667098939419
1772536392985182000,1.862181884765625,0.0016876452136784792,-0.0015001586871221662,0.0026607641484588385
1772536392995231000,1.87223095703125,0.005289037711918354,-0.018484201282262802,-0.007216367404907942
1772536393005278700,1.88227880859375,0.014098241925239563,-0.004680771846324205,0.003945739474147558
1772536393015327000,1.892326904296875,0.01690175198018551,0.014991199597716331,0.027517911046743393
1772536393025375000,1.902375,0.017289774492383003,0.03223037347197533,0.04773290082812309
1772536393035423000,1.912423095703125,0.01344550121575594,0.04412192106246948,0.06662642955780029
1772536393045472000,1.922471923828125,0.003712712787091732,0.041497111320495605,0.0753493458032608
1772536393055519700,1.932519775390625,-0.005332181230187416,0.010350908152759075,0.05933309718966484
1772536393065568000,1.942568115234375,0.002338521648198366,-0.01047208160161972,0.05608883500099182
1772536393075616500,1.952616455078125,0.00538437906652689,0.010120278224349022,0.06489218026399612
1772536393085665800,1.962665771484375,0.006129531655460596,0.031986430287361145,0.07806816697120667
1772536393095713500,1.972713623046875,0.005120193585753441,0.0400233156979084,0.08213135600090027
1772536393105761800,1.98276171875,0.0028181569650769234,0.04649746045470238,0.07644736766815186
1772536393115809800,1.992809814453125,-0.0044016726315021515,0.037585459649562836,0.05464833229780197
1772536393125857500,2.002857421875,-0.013653228059411049,0.003072755178436637,0.025676600635051727
1772536393135906800,2.01290673828125,-0.012829245999455452,-0.022306637838482857,0.0037553233560174704
1772536393145954600,2.02295458984375,-0.015923039987683296,-0.015839416533708572,-0.002144909929484129
1772536393156002800,2.0330029296875,-0.022428076714277267,0.005860818549990654,0.0034080471377819777
1772536393166050600,2.043050537109375,-0.02593253180384636,0.01932176575064659,0.011200456880033016
1772536393176099800,2.053099853515625,-0.029458822682499886,0.028958680108189583,0.009149023331701756
1772536393186147600,2.063147705078125,-0.03503495082259178,0.016016250476241112,-0.006847786251455545
1772536393196195600,2.073195556640625,-0.029274266213178635,-0.004334827419370413,-0.01588655449450016
1772536393206243800,2.083243896484375,-0.022367356345057487,0.01113148033618927,-0.014623151160776615
1772536393216291600,2.09329150390625,-0.021277058869600296,0.031446341425180435,-0.010700847953557968
1772536393226340900,2.1033408203125,-0.017015468329191208,0.04111574590206146,-0.007161506451666355
1772536393236388600,2.113388671875,-0.012429239228367805,0.04188220202922821,-0.00253426400013268
1772536393246436600,2.1234365234375,-0.011866779066622257,0.027728300541639328,0.00012756542128045112
1772536393256484900,2.13348486328125,-0.01449638418853283,0.0044261738657951355,-0.009839581325650215
1772536393266532600,2.14353271484375,-0.016353139653801918,-0.018090320751070976,-0.014999189414083958
1772536393276582000,2.153581787109375,-0.012661999091506004,-0.006429936271160841,-0.002510561840608716
1772536393286629600,2.163629638671875,-0.019539080560207367,0.014577877707779408,0.019026154652237892
1772536393296677600,2.173677734375,-0.014903848059475422,0.024142887443304062,0.03009611740708351
1772536393306725600,2.1837255859375,-0.009576993063092232,0.034387003630399704,0.04507852718234062
1772536393316774700,2.193774658203125,-0.010928281582891941,0.04128778353333473,0.05235188826918602
1772536393326822700,2.20382275390625,-0.015741677954792976,0.03520219400525093,0.04803517088294029
1772536393336870700,2.21387060546875,-0.018443455919623375,0.010963701643049717,0.03761182352900505
1772536393346918700,2.223918701171875,-0.012650813907384872,0.006911968346685171,0.03612444922327995
1772536393356966700,2.233966552734375,-0.013033510185778141,0.026922693476080894,0.03512230142951012
1772536393367015700,2.244015625,-0.012448946014046669,0.04078178480267525,0.03523814678192139
1772536393377063700,2.254063720703125,-0.01305454969406128,0.028920065611600876,0.028132302686572075
1772536393387111700,2.264111572265625,-0.00990323070436716,0.01531583908945322,0.015905197709798813
1772536393397159700,2.27415966796875,-0.011460114270448685,0.008980179205536842,0.005423794034868479
1772536393407208700,2.284208740234375,-0.01594327948987484,-0.001113201375119388,-0.006628341507166624
1772536393417256700,2.294256591796875,-0.007016630377620459,-0.010012154467403889,-0.00038242992013692856
1772536393427304700,2.3043046875,0.0029619678389281034,0.01581811159849167,0.02153538540005684
1772536393437352700,2.314352783203125,0.005786782596260309,0.04157434031367302,0.04705725610256195
1772536393447401700,2.324401611328125,0.005758020561188459,0.047138482332229614,0.057974886149168015
1772536393457449700,2.33444970703125,0.006883206311613321,0.04067312926054001,0.0628732368350029
1772536393467497500,2.34449755859375,0.005992112215608358,0.03590739890933037,0.05994056537747383
1772536393477545700,2.354545654296875,0.0019827233627438545,0.028867334127426147,0.0474063977599144
1772536393487593700,2.36459375,0.00162399560213089,0.001796834752894938,0.0349649079144001
1772536393497642800,2.374642822265625,0.009785252623260021,-0.013923006132245064,0.03393399715423584
1772536393507690800,2.384690673828125,0.019413910806179047,0.006149505265057087,0.04290112853050232
1772536393517738500,2.394738525390625,0.019056249409914017,0.017594173550605774,0.044430579990148544
1772536393527786800,2.404786865234375,0.018152106553316116,0.012574913911521435,0.04174478352069855
1772536393537835500,2.41483544921875,0.018206434324383736,0.008854744024574757,0.044923532754182816
1772536393547883800,2.4248837890625,0.025500565767288208,0.017826933413743973,0.049073535948991776
1772536393557931800,2.434931884765625,0.02640790492296219,0.022483205422759056,0.045029524713754654
1772536393567979500,2.4449794921875,0.03032035566866398,0.025065671652555466,0.045103829354047775
1772536393578027800,2.45502783203125,0.02755492925643921,0.02911900356411934,0.039691485464572906
1772536393588076500,2.46507666015625,0.018151307478547096,0.029871612787246704,0.03098667785525322
1772536393598124800,2.475124755859375,0.00926140882074833,0.020133497193455696,0.02099236659705639
1772536393608172500,2.485172607421875,0.0054821171797811985,0.0121251055970788,0.008408132009208202
1772536393618220800,2.495220703125,0.004160123877227306,0.0017952368361875415,-0.009893377311527729
1772536393628269600,2.50526953125,0.0016144082183018327,-0.001086037140339613,-0.010085390880703926
1772536393638317600,2.515317626953125,0.003064233111217618,0.011067564599215984,-0.0019289276096969843
1772536393648365800,2.52536572265625,-0.005863215308636427,0.023315176367759705,0.0026549051981419325
1772536393658413600,2.53541357421875,-0.009269931353628635,0.03392654284834862,0.005373992491513491
1772536393668461800,2.5454619140625,-0.012809538282454014,0.035057052969932556,-0.004101268015801907
1772536393678510600,2.555510498046875,-0.017918812111020088,0.01691053993999958,-0.013649232685565948
1772536393688558600,2.56555859375,-0.01569720357656479,0.0054429685696959496,-0.02575037069618702
1772536393698606800,2.57560693359375,-0.017676465213298798,0.001924666459672153,-0.03147829696536064
1772536393708654600,2.585654541015625,-0.0232283566147089,0.004559864290058613,-0.03287485986948013
1772536393718703900,2.595703857421875,-0.021738052368164062,0.005185707006603479,-0.027459055185317993
1772536393728751600,2.605751708984375,-0.02111966535449028,0.012680108658969402,-0.02304832823574543
1772536393738799600,2.615799560546875,-0.01781787909567356,0.016532637178897858,-0.016005864366889
1772536393748847600,2.62584765625,-0.009780725464224815,0.02015959657728672,-0.011840147897601128
1772536393758895600,2.6358955078125,-0.0018785938154906034,0.02539430558681488,-0.00010652644414221868
1772536393768944600,2.645944580078125,-0.001261539408005774,0.0268302820622921,0.008608934469521046
1772536393778992600,2.65599267578125,0.0007337008719332516,0.02407071553170681,0.013007411733269691
1772536393789041000,2.666041015625,0.004431233741343021,0.02057158760726452,0.012145079672336578
1772536393799088600,2.676088623046875,0.004647482186555862,0.006816360633820295,0.0038123151753097773
1772536393809136600,2.68613671875,0.003885285696014762,-0.009484048932790756,0.0006969492533244193
1772536393819185700,2.696185546875,0.001609348226338625,-0.002739860210567713,0.004307396709918976
1772536393829233700,2.706233642578125,-0.0005880259559489787,0.005592904519289732,0.004343615844845772
1772536393839282000,2.716281982421875,-0.0018612833227962255,0.006658968050032854,0.0012402341235429049
1772536393849329700,2.72632958984375,-0.0013877731980755925,-0.00017496968212071806,0.0032799490727484226
1772536393859378700,2.736378662109375,-0.0010468886466696858,-0.0007099987124092877,0.009376724250614643
1772536393869426700,2.7464267578125,-0.0026841999497264624,0.005677592940628529,0.01383964903652668
1772536393879474700,2.756474609375,0.0005917543894611299,0.008140484802424908,0.01974068209528923
1772536393889522700,2.766522705078125,0.000056459015468135476,0.011187140829861164,0.025770343840122223
1772536393899570700,2.77657080078125,0.0030445256270468235,0.008540757931768894,0.03502163290977478
1772536393909619500,2.786619384765625,0.0018303906545042992,0.01101776398718357,0.039262183010578156
1772536393919667700,2.796667724609375,-0.001702026231214404,0.007142864167690277,0.03315502405166626
1772536393929715700,2.8067158203125,0.0004644552827812731,0.0036514601670205593,0.025547437369823456
1772536393939763700,2.816763671875,0.003775030840188265,0.007877363823354244,0.025782061740756035
1772536393949812700,2.826812744140625,0.0011864382540807128,0.008131695911288261,0.019694343209266663
1772536393959860700,2.83686083984375,-0.004763862583786249,-0.004141481593251228,0.0033241575583815575
1772536393969908700,2.84690869140625,-0.0025539714843034744,-0.022519424557685852,-0.008779909461736679
1772536393979956700,2.856956787109375,0.005254949443042278,-0.01486523263156414,-0.001276453142054379
1772536393990005800,2.867005859375,0.0028575719334185123,0.013892113231122494,0.01212697010487318
1772536394000053800,2.8770537109375,0.005516738165169954,0.02467045933008194,0.020173445343971252
1772536394010101800,2.887101806640625,0.007990814745426178,0.01913241483271122,0.022351644933223724
1772536394020149800,2.897149658203125,0.013087838888168335,0.017316406592726707,0.02195829525589943
1772536394030197500,2.907197509765625,0.013428190723061562,0.012376775033771992,0.023390278220176697
1772536394040246800,2.917246826171875,0.009757023304700851,0.006998787168413401,0.016984043642878532
1772536394050294500,2.92729443359375,0.0070701600052416325,-0.005702626891434193,0.01050164271146059
1772536394060342800,2.9373427734375,0.004612861201167107,-0.01050270814448595,0.00478463526815176
1772536394070390500,2.947390625,0.002572879893705249,-0.004425374791026115,0.0035987296141684055
1772536394080439600,2.957439453125,0.0007243797881528735,0.002130528911948204,0.005891445092856884
1772536394090487600,2.967487548828125,0.0005424859118647873,0.003338272450491786,0.008468852378427982
1772536394100535600,2.97753564453125,0.0014958975370973349,0.0068057081662118435,0.009664878249168396
1772536394110583600,2.98758349609375,-0.0018383801216259599,0.006540190894156694,0.007981494069099426
1772536394120631600,2.997631591796875,-0.006134325172752142,-0.0041002025827765465,0.006535663735121489
1772536394130680600,3.0076806640625,-0.004904743749648333,-0.0016194682102650404,0.01173202320933342
1772536394140728600,3.017728515625,-0.006903712637722492,0.017364343628287315,0.020557472482323647
1772536394150776600,3.027776611328125,-0.009914948605000973,0.023027021437883377,0.024807877838611603
1772536394160824600,3.037824462890625,-0.013579990714788437,0.011058776639401913,0.017892714589834213
1772536394170872600,3.04787255859375,-0.016878582537174225,0.0008234494016505778,0.008776979520916939
1772536394180921600,3.057921630859375,-0.020553212612867355,0.0017038905061781406,-0.0013936321483924985
1772536394190969300,3.06796923828125,-0.0222038384526968,-0.003323358716443181,-0.008039284497499466
1772536394201017600,3.078017578125,-0.01606525294482708,-0.0009249158320017159,-0.0005342300864867866
1772536394211065600,3.088065673828125,-0.012254535220563412,0.01630786620080471,0.009114402346313
1772536394221114600,3.098114501953125,-0.0106505136936903,0.025182584300637245,0.013605291023850441
1772536394231162600,3.10816259765625,-0.014802115969359875,0.023127423599362373,0.010297112166881561
1772536394241210400,3.11821044921875,-0.022584138438105583,0.0029553098138421774,-0.0028477180749177933
1772536394251258600,3.128258544921875,-0.025425998494029045,-0.013442572206258774,-0.009830259718000889
1772536394261307400,3.138307373046875,-0.024264326319098473,-0.0009052084642462432,-0.00019627496658358723
1772536394271355600,3.148355712890625,-0.02257401868700981,0.007379086688160896,0.004275172483175993
1772536394281403600,3.158403564453125,-0.019944945350289345,0.0073082465678453445,0.01842161826789379
1772536394291451400,3.168451416015625,-0.017257284373044968,0.010542655363678932,0.026104038581252098
1772536394301499600,3.178499755859375,-0.015471368096768856,0.013963219709694386,0.030725421383976936
1772536394311548400,3.18854833984375,-0.020924722775816917,0.003034672001376748,0.0184067040681839
1772536394321596700,3.1985966796875,-0.018852517008781433,-0.010537062771618366,0.011454788036644459
1772536394331644400,3.20864453125,-0.012819924391806126,-0.0015134743880480528,0.013003682717680931
1772536394341692400,3.2186923828125,-0.012734970077872276,0.018024539574980736,0.019748404622077942
1772536394351740700,3.22874072265625,-0.009818275459110737,0.02034229040145874,0.017135044559836388
1772536394361789400,3.23878955078125,-0.011890214867889881,0.011742942035198212,0.012006329372525215
1772536394371837700,3.248837646484375,-0.009498164057731628,0.007150853984057903,0.0076001291163265705
1772536394381885400,3.258885498046875,-0.0131496237590909,0.0004623247659765184,-0.0022887205705046654
1772536394391933700,3.26893359375,-0.016403740271925926,-0.010470750741660595,-0.013579457998275757
1772536394401982500,3.278982421875,-0.012298744171857834,-0.016473781317472458,-0.01980459690093994
1772536394412030500,3.289030517578125,-0.011814314872026443,0.00007084008393576369,-0.013844975270330906
1772536394422078700,3.29907861328125,-0.015480688773095608,0.01398772094398737,-0.012280634604394436
1772536394432126500,3.30912646484375,-0.014503308571875095,0.01907462440431118,-0.010577542707324028
1772536394442174700,3.3191748046875,-0.013058810494840145,0.013010074384510517,-0.00914662703871727
1772536394452223500,3.329223388671875,-0.0173219982534647,0.016114788129925728,-0.002907373011112213
1772536394462271500,3.339271484375,-0.016465259715914726,0.022343654185533524,0.0013811152894049883
1772536394472319500,3.349319580078125,-0.010370615869760513,0.024875788018107414,0.007154848426580429
1772536394482367500,3.359367431640625,-0.0040823593735694885,0.025772741064429283,0.014552577398717403
1772536394492416500,3.36941650390625,-0.003085272153839469,0.024523984640836716,0.01914040558040142
1772536394502464500,3.379464599609375,-0.005049619823694229,0.023301860317587852,0.01531743723899126
1772536394512512500,3.389512451171875,-0.011142133735120296,0.010292585007846355,0.011964784003794193
1772536394522560500,3.399560546875,-0.014227138832211494,0.009677127934992313,0.007416903506964445
1772536394532609500,3.409609619140625,-0.018748121336102486,0.012705675326287746,0.004066114313900471
1772536394542657500,3.419657470703125,-0.02009195275604725,0.012079299427568913,-0.0073410035111010075
1772536394552705500,3.42970556640625,-0.020914070308208466,-0.0033808830194175243,-0.020978251472115517
1772536394562753800,3.43975390625,-0.011671570129692554,0.009443568997085094,-0.011093663983047009
1772536394572801500,3.449801513671875,-0.015510249882936478,0.03502323105931282,0.0013203952694311738
1772536394582850600,3.4598505859375,-0.017666345462203026,0.04598373547196388,0.008974053896963596
1772536394592898600,3.469898681640625,-0.015385613776743412,0.04608813300728798,0.014785869978368282
1772536394602946600,3.479946533203125,-0.019419237971305847,0.03296088054776192,0.012593289837241173
1772536394612994600,3.48999462890625,-0.017896175384521484,0.023980699479579926,0.006117813754826784
1772536394623042600,3.50004248046875,-0.01577603444457054,0.00926167517900467,0.001588575541973114
1772536394633091300,3.51009130859375,-0.015902001410722733,0.013881194405257702,0.000663393409922719
1772536394643139600,3.5201396484375,-0.014567224308848381,0.00609224708750844,-0.008225172758102417
1772536394653187600,3.5301875,-0.019889285787940025,-0.00755059439688921,-0.024058198556303978
1772536394663235600,3.540235595703125,-0.013777597807347775,-0.015527027659118176,-0.026741866022348404
1772536394673284600,3.55028466796875,-0.005046423990279436,-0.006681604776531458,-0.010232130996882915
1772536394683332600,3.56033251953125,-0.0033396040089428425,0.012338158674538136,0.009501892141997814
1772536394693380600,3.570380615234375,0.000737695605494082,0.02538258768618107,0.025136778131127357
1772536394703428600,3.5804287109375,0.0018365158466622233,0.026073412969708443,0.03448181226849556
1772536394713476600,3.5904765625,0.0022559636272490025,0.013700898736715317,0.03708371892571449
1772536394723525600,3.600525634765625,0.0037055222783237696,0.008800948038697243,0.04144890606403351
1772536394733573600,3.61057373046875,-0.0009928264189511538,0.01534646563231945,0.044741373509168625
1772536394743621600,3.62062158203125,-0.011712050065398216,0.007138070650398731,0.035893019288778305
1772536394753669400,3.63066943359375,-0.011377024464309216,-0.007878961972892284,0.023325562477111816
1772536394763718700,3.64071875,-0.009492837823927402,-0.00571860559284687,0.022004367783665657
1772536394773766400,3.650766357421875,-0.010086722671985626,0.005879993550479412,0.019099391996860504
1772536394783814700,3.660814697265625,-0.01721547171473503,0.007071491796523333,0.011202586814761162
1772536394793862700,3.670862548828125,-0.015248994342982769,0.0017273263074457645,0.002039981307461858
1772536394803910400,3.680910400390625,-0.014542457647621632,0.016804812476038933,0.00720624765381217
1772536394813959700,3.690959716796875,-0.017434384673833847,0.038000646978616714,0.00806192122399807
1772536394824007400,3.70100732421875,-0.020715132355690002,0.02732962556183338,-0.0014564828015863895
1772536394834055700,3.7110556640625,-0.01996971294283867,0.0040852888487279415,-0.01296187099069357
1772536394844103700,3.721103759765625,-0.020733773708343506,-0.0065404572524130344,-0.01522848755121231
1772536394854152700,3.731152587890625,-0.01618749275803566,-0.0034384073223918676,-0.013455354608595371
1772536394864200700,3.74120068359375,-0.018033595755696297,0.011128284968435764,-0.000696150294970721
1772536394874248400,3.75124853515625,-0.017196297645568848,0.01776115410029888,0.010669688694179058
1772536394884296700,3.761296630859375,-0.013162939809262753,0.021526064723730087,0.015239672735333443
1772536394894344400,3.771344482421875,-0.008468852378427982,0.02287149429321289,0.021321533247828484
1772536394904393700,3.781393798828125,-0.0063034361228346825,0.023929834365844727,0.019344402477145195
1772536394914441500,3.79144140625,-0.0046669235453009605,0.02803855948150158,0.015082812868058681
1772536394924489500,3.801489501953125,0.00039707732503302395,0.03579847887158394,0.010566623881459236
1772536394934537700,3.811537841796875,0.0002681803307496011,0.036915142089128494,0.008319448679685593
1772536394944586500,3.82158642578125,-0.007634750101715326,0.026510968804359436,-0.001826662220992148
1772536394954634800,3.831634765625,-0.013936055824160576,0.013698501512408257,-0.013992248103022575
1772536394964682500,3.8416826171875,-0.01302365679293871,0.011721370741724968,-0.014852449297904968
1772536394974730500,3.85173046875,-0.013642575591802597,0.013154949992895126,-0.01768658496439457
1772536394984778800,3.86177880859375,-0.012230567634105682,0.012607404962182045,-0.015184013172984123
1772536394994827500,3.87182763671875,-0.010969027876853943,0.01401674933731556,-0.014478807337582111
1772536395004875800,3.881875732421875,-0.002600310370326042,0.023929834365844727,0.00018109494703821838
1772536395014923500,3.891923583984375,-0.0006029396899975836,0.036557476967573166,0.012781308963894844
1772536395024971500,3.901971435546875,-0.0010996191995218396,0.03616945445537567,0.020605675876140594
1772536395035020500,3.9120205078125,-0.001654355670325458,0.030157901346683502,0.02238413505256176
1772536395045068500,3.922068603515625,-0.0018865832826122642,0.02900342270731926,0.02309786155819893
1772536395055116500,3.932116455078125,0.0009986853692680597,0.025300296023488045,0.018435733392834663
1772536395065164500,3.94216455078125,-0.004649080336093903,0.00941826868802309,0.007709052413702011
1772536395075212800,3.952212890625,-0.0010639328975230455,-0.0012325108982622623,0.004462658893316984
1772536395085261800,3.96226171875,0.003314836649224162,0.01655607298016548,0.014052435755729675
1772536395095309800,3.972309814453125,-0.0034439999144524336,0.03574175387620926,0.02250584214925766
1772536395105357800,3.98235791015625,-0.007810518611222506,0.027407389134168625,0.02155189774930477
1772536395115405800,3.99240576171875,-0.009921340271830559,0.01489159744232893,0.018496984615921974
1772536395125454800,4.002454833984375,-0.007555387914180756,0.01577550172805786,0.018871957436203957
1772536395135502800,4.0125029296875,-0.010214021429419518,0.028307804837822914,0.02046293020248413
1772536395145550800,4.02255078125,-0.014970427379012108,0.031985364854335785,0.01992763578891754
1772536395155598800,4.032598876953125,-0.012056662701070309,0.025533055886626244,0.016172844916582108
1772536395165646800,4.042646728515625,-0.013517673127353191,0.02317669242620468,0.006078931502997875
1772536395175696000,4.05269580078125,-0.01375469472259283,0.020002735778689384,-0.0021702100057154894
1772536395185744000,4.062743896484375,-0.013243633322417736,0.01721493899822235,-0.0070131681859493256
1772536395195791600,4.07279150390625,-0.010017214342951775,0.019877035170793533,-0.005293032620102167
1772536395205840000,4.08283984375,-0.01050643716007471,0.018677547574043274,-0.007710383739322424
1772536395215888000,4.092887939453125,-0.003784351982176304,0.01194241363555193,-0.012795690447092056
1772536395225937000,4.10293701171875,-0.002302835462614894,0.010164487175643444,-0.010027866810560226
1772536395235985000,4.11298486328125,-0.0046480149030685425,0.016388826072216034,-0.0051750545389950275
1772536395246032600,4.12303271484375,-0.0033182986080646515,0.014496118761599064,-0.0032120386604219675
1772536395256081000,4.133080810546875,-0.0010897654574364424,0.016860738396644592,0.00227860058657825
1772536395266129700,4.143129638671875,-0.004577174782752991,0.02647048979997635,0.008378304541110992
1772536395276178000,4.153177978515625,-0.00737349409610033,0.02364940382540226,0.013013536110520363
1772536395286226000,4.163225830078125,-0.00845633540302515,0.013909423723816872,0.010335728526115417
1772536395296273700,4.173273681640625,-0.005030444823205471,0.010673949494957924,0.01233256608247757
1772536395306322000,4.183322021484375,-0.00637880340218544,0.015558985993266106,0.016414392739534378
1772536395316370700,4.19337060546875,-0.004698082339018583,0.024055268615484238,0.02394474670290947
1772536395326419000,4.2034189453125,-0.0036996633280068636,0.030652450397610664,0.030250847339630127
1772536395336466700,4.213466796875,-0.007850732654333115,0.03662512078881264,0.024335699155926704
1772536395346514700,4.2235146484375,-0.009815879166126251,0.030711306259036064,0.011694739572703838
1772536395356563700,4.233563720703125,-0.0126420259475708,0.012145612388849258,-0.0017904432024806738
1772536395366611700,4.24361181640625,-0.015590411610901356,0.0024980450980365276,-0.008073106408119202
1772536395376660000,4.253659912109375,-0.017239173874258995,0.005042162723839283,-0.007754059974104166
1772536395386707700,4.263707763671875,-0.012340289540588856,0.013517673127353191,-0.006107160821557045
1772536395396755700,4.273755615234375,-0.011699533089995384,0.023997744545340538,-0.00458756135776639
1772536395406804700,4.2838046875,-0.01127822045236826,0.029829800128936768,-0.005666940473020077
1772536395416852700,4.293852783203125,-0.013828730210661888,0.022666163742542267,-0.010844924487173557
1772536395426900700,4.303900634765625,-0.0113975303247571,0.011319765821099281,-0.019270900636911392
1772536395436948700,4.31394873046875,-0.008930377662181854,-0.005799565929919481,-0.026635339483618736
1772536395446997800,4.323997802734375,-0.004759867675602436,-0.007367368787527084,-0.029471073299646378
1772536395457045800,4.334045654296875,-0.001258876291103661,-0.003334543900564313,-0.02111913450062275
1772536395467093800,4.34409375,0.0010098706698045135,0.002570483135059476,-0.008987369947135448
1772536395477141800,4.354141845703125,0.0019230686593800783,0.009496033191680908,0.0008040083339437842
1772536395487189800,4.364189697265625,0.0016503608785569668,0.01721786893904209,0.006228334736078978
1772536395497238800,4.37423876953125,0.005941512528806925,0.015324361622333527,0.0013576794881373644
1772536395507286800,4.384286865234375,0.006955377757549286,0.006084257736802101,-0.011638280004262924
1772536395517334800,4.394334716796875,0.010518686845898628,-0.0024381240364164114,-0.015247662551701069
1772536395527382800,4.4043828125,0.008700015023350716,-0.00697961263358593,-0.015082812868058681
1772536395537431800,4.414431884765625,0.007396130822598934,-0.008623315952718258,-0.01641812175512314
1772536395547479800,4.424479736328125,0.007597998715937138,-0.000075101139373146,-0.007328486535698175
1772536395557527800,4.43452783203125,0.0017174725653603673,0.003944407682865858,-0.00173771264962852
1772536395567575800,4.444575927734375,-0.00014061490946915,-0.00019361180602572858,0.0024626250378787518
1772536395577623800,4.454623779296875,0.0010538127971813083,0.0038959383964538574,-0.000180029688635841
1772536395587672800,4.4646728515625,-0.00017310546536464244,0.008310394361615181,0.0007510114228352904
1772536395597720800,4.474720947265625,-0.002153964713215828,0.007639543619006872,-0.0012868394842371345
1772536395607768800,4.484768798828125,-0.001270327833481133,0.004829642828553915,-0.000185888638952747
1772536395617816800,4.49481689453125,-0.0032109732273966074,0.010543188080191612,0.003493002150207758
1772536395627864800,4.50486474609375,-0.006086920853704214,0.023384951055049896,0.005643504671752453
1772536395637913600,4.51491357421875,-0.005320463329553604,0.01446735579520464,0.000018375811123405583
1772536395647961900,4.5249619140625,-0.0024588967207819223,0.005319664254784584,-0.0031225562561303377
1772536395658009900,4.535009765625,-0.003291134489700198,0.011083011515438557,0.0012274509062990546
1772536395668057900,4.545057861328125,-0.0065013086423277855,0.022465893998742104,0.0017829863354563713
1772536395678107000,4.55510693359375,-0.014565893448889256,0.014842595905065536,0.005083708092570305
1772536395688154600,4.565154541015625,-0.015052452683448792,-0.006804642733186483,-0.004579039290547371
1772536395698203000,4.575202880859375,-0.008954612538218498,0.0036914076190441847,-0.0014817827614024282
1772536395708251000,4.5852509765625,-0.005270662251859903,0.014731009490787983,0.0001752359967213124
1772536395718299000,4.595298828125,-0.007908523082733154,0.008009989745914936,0.000666589243337512
1772536395728348000,4.605347900390625,-0.006756173446774483,0.0006383596919476986,0.0008258462767116725
1772536395738396000,4.61539599609375,-0.008827047422528267,0.00515721132978797,0.0029409287963062525
1772536395748444000,4.62544384765625,-0.005584648810327053,0.010446249507367611,0.003922037314623594
1772536395758491600,4.63549169921875,-0.0043832967057824135,0.014561898075044155,0.004312722943723202
1772536395768541000,4.645541015625,-0.006916229147464037,0.013872671872377396,0.006833404768258333
1772536395778588700,4.655588623046875,-0.005939914379268885,0.011931760236620903,0.001924932817928493
1772536395788637000,4.665636962890625,-0.0028812738601118326,0.005620601586997509,0.0029166939202696085
1772536395798685000,4.675684814453125,-0.005872536450624466,0.0007470166892744601,0.0012040151050314307
1772536395808732700,4.685732666015625,-0.007303719408810139,0.0007904262165538967,0.00169563468080014
1772536395818782000,4.695781982421875,-0.005134041886776686,0.0028687571175396442,0.004984905011951923
1772536395828829700,4.70582958984375,-0.010676080361008644,0.009189769625663757,0.011266768909990788
1772536395838878000,4.7158779296875,-0.005702893249690533,0.009118130430579185,0.0137789286673069
1772536395848926000,4.725926025390625,-0.00794367678463459,0.011907525360584259,0.012982910498976707
1772536395858974700,4.735974609375,-0.007822769694030285,0.010356767103075981,0.012450011447072029
1772536395869022700,4.746022705078125,-0.008459264412522316,0.010660899803042412,0.007729026023298502
1772536395879070700,4.75607080078125,-0.010219081304967403,0.011157313361763954,0.0022130869328975677
1772536395889119000,4.766118896484375,-0.009886186569929123,0.008902148343622684,-0.007719172164797783
1772536395899166700,4.776166748046875,-0.008928780443966389,0.007026484236121178,-0.010884072631597519
1772536395909216000,4.786216064453125,-0.005531385540962219,0.008856608532369137,-0.01047474518418312
1772536395919263700,4.796263671875,-0.0052267201244831085,0.009589510038495064,-0.007590008899569511
1772536395929311700,4.806311767578125,-0.00897059217095375,0.008172974921762943,-0.0067838700488209724
1772536395939360000,4.816360107421875,-0.009310411289334297,0.008766859769821167,-0.005634716246277094
1772536395949408800,4.82640869140625,-0.017186444252729416,0.005912750028073788,-0.010092048905789852
1772536395959457000,4.83645703125,-0.011255583725869656,0.004041613079607487,-0.010125870816409588
1772536395969504800,4.8465048828125,-0.014600780792534351,0.005646434146910906,-0.011518438346683979
1772536395979552800,4.856552734375,-0.012436429969966412,0.0016016251174733043,-0.007730091456323862
1772536395989601000,4.86660107421875,-0.012201272882521152,0.011202320456504822,-0.0032322786282747984
1772536395999649800,4.87664990234375,-0.008531436324119568,0.018027735874056816,0.0016921724891290069
1772536396009697800,4.88669775390625,-0.006725813262164593,0.021203288808465004,0.001845038030296564
1772536396019745800,4.896745849609375,0.0007012102869339287,0.023806529119610786,-0.0015459649730473757
1772536396029793800,4.906793701171875,0.0028125643730163574,0.018088722601532936,-0.008169513195753098
1772536396039842800,4.9168427734375,0.0032048479188233614,0.01136743649840355,-0.013797837309539318
1772536396049890800,4.926890869140625,0.0054703992791473866,0.0033683660440146923,-0.015994146466255188
1772536396059938800,4.936938720703125,0.0022058964241296053,-0.0005225121858529747,-0.011448396369814873
1772536396069986800,4.94698681640625,0.004506867378950119,0.005402488633990288,-0.006118080113083124
1772536396080034800,4.957034912109375,0.005995308049023151,0.012176505289971828,0.0032775523141026497
1772536396090083800,4.967083740234375,0.008187090046703815,0.019900204613804817,0.012923521921038628
1772536396100131800,4.9771318359375,0.010860636830329895,0.017657823860645294,0.014684404246509075
1772536396110179800,4.987179931640625,0.010163688100874424,0.02429921366274357,0.016746222972869873
1772536396120227800,4.997227783203125,0.006995059084147215,0.028629779815673828,0.010252371430397034
1772536396130276900,5.00727685546875,0.001076982356607914,0.018148377537727356,-0.0014889733865857124
1772536396140324900,5.017324951171875,-0.004560929723083973,0.008452873677015305,-0.015569372102618217
1772536396150372900,5.027372802734375,-0.009043562225997448,0.000025832661776803434,-0.023865651339292526
1772536396160420900,5.0374208984375,-0.011412976309657097,-0.0017688715597614646,-0.022755911573767662
1772536396170468900,5.04746875,-0.0075665730983018875,-0.000538491178303957,-0.012842295691370964
1772536396180518000,5.057517822265625,-0.012918462045490742,0.006811034400016069,-0.01206838060170412
1772536396190566000,5.06756591796875,-0.008988700807094574,0.008727178908884525,-0.009794041514396667
1772536396200613600,5.077613525390625,-0.0067993164993822575,0.010403372347354889,-0.006715959403663874
1772536396210662000,5.087661865234375,-0.00826991442590952,0.014978150837123394,-0.009611881338059902
1772536396220710000,5.0977099609375,-0.0049071405082941055,0.014281467534601688,-0.010877414606511593
1772536396230759000,5.107759033203125,-0.0011669971281662583,0.010351440869271755,-0.007260309532284737
1772536396240807000,5.117806884765625,0.0006322344415821135,0.010332265868782997,-0.0041191112250089645
1772536396250854700,5.127854736328125,0.005950300954282284,0.012003133073449135,0.0018093516118824482
1772536396260903000,5.13790283203125,0.008173773996531963,0.013772803358733654,0.010968495160341263
1772536396270951700,5.14795166015625,0.006044044159352779,0.014901718124747276,0.007704258430749178
1772536396281000000,5.158,0.007839813828468323,0.0049588060937821865,0.001443166984245181
1772536396291048000,5.1680478515625,0.010702445171773434,-0.0001531317684566602,-0.0019742012955248356
1772536396301095700,5.178095703125,0.009986055083572865,0.0014274542918428779,-0.008379902690649033
1772536396311144000,5.18814404296875,0.0038980687968432903,-0.007068828213959932,-0.01248170342296362
1772536396321192700,5.198192626953125,0.0020064255222678185,-0.026749322190880775,-0.01495178509503603
1772536396331241000,5.208240966796875,0.004516188520938158,-0.03797561302781105,-0.01209554448723793
1772536396341288700,5.218288818359375,0.011362110264599323,0.00029774141148664057,-0.009358881041407585
1772536396351336700,5.228336669921875,0.012046542949974537,0.019748138263821602,-0.004476773552596569
1772536396361385700,5.2383857421875,0.004177700728178024,0.002445580903440714,-0.007544735446572304
1772536396371433700,5.248433837890625,0.005248824134469032,-0.007142864167690277,-0.004611263517290354
1772536396381482000,5.25848193359375,0.0035305526107549667,0.00948218535631895,0.0005850964807905257
1772536396391529700,5.26852978515625,-0.0006332996999844909,0.013941914774477482,0.001913481275551021
1772536396401577700,5.27857763671875,-0.00555322365835309,0.006459231022745371,-0.0039867521263659
1772536396411626800,5.288626708984375,-0.009240636602044106,-0.011669439263641834,-0.014534734189510345
1772536396421674800,5.2986748046875,-0.006355101242661476,-0.01227743923664093,-0.013857225887477398
1772536396431722800,5.30872265625,-0.005179049447178841,-0.0002205097407568246,-0.007429154124110937
1772536396441770800,5.318770751953125,-0.00446984963491559,0.014162690378725529,0.005845105741173029
1772536396451818800,5.32881884765625,0.0016562198288738728,0.020597953349351883,0.012892096303403378
1772536396461867800,5.33886767578125,0.0014053500490263104,0.019531888887286186,0.011431352235376835
1772536396471915800,5.348915771484375,0.00017124126316048205,0.005618204362690449,0.009119462221860886
1772536396481963800,5.3589638671875,-0.000716922979336232,-0.004282096866518259,0.007576693315058947
1772536396492011800,5.36901171875,-0.004250404890626669,0.007162838242948055,0.010058226995170116
1772536396502060800,5.379060791015625,-0.006685866042971611,0.011824967339634895,0.014299044385552406
1772536396512108800,5.38910888671875,-0.004496747627854347,0.006671485025435686,0.014134993776679039
1772536396522156800,5.39915673828125,-0.00555135915055871,0.006363889668136835,0.016264457255601883
1772536396532204800,5.409204833984375,-0.01206811424344778,0.002028796123340726,0.008437160402536392
1772536396542252800,5.419252685546875,-0.01158368494361639,-0.007126619108021259,0.0033574472181499004
1772536396552301800,5.4293017578125,-0.0117914117872715,-0.002329200739040971,0.004009921569377184
1772536396562349800,5.439349853515625,-0.015414642170071602,0.010297378525137901,0.010751713998615742
1772536396572397800,5.449397705078125,-0.01537842396646738,0.0075796227902174,0.012222311459481716
1772536396582445800,5.45944580078125,-0.012720055878162384,0.008759935386478901,0.006396380253136158
1772536396592493800,5.469493896484375,-0.012283298186957836,0.00920574925839901,0.004069043789058924
1772536396602542800,5.47954296875,-0.010289122350513935,0.005141498986631632,-0.003868241561576724
1772536396612590800,5.4895908203125,-0.013145629316568375,-0.0038453382439911366,-0.01865357905626297
1772536396622638600,5.499638671875,-0.007980162277817726,-0.014919028617441654,-0.02480095438659191
1772536396632686800,5.509686767578125,0.0010660634143278003,-0.001216798322275281,-0.013112606480717659
1772536396642735600,5.519735595703125,-0.0028605014085769653,0.024229971691966057,-0.003495398908853531
1772536396652783900,5.529783935546875,-0.002651443239301443,0.020850419998168945,-0.006048304960131645
1772536396662831900,5.539831787109375,-0.008958607912063599,0.005342567339539528,-0.01667351834475994
1772536396672879600,5.549879638671875,-0.011276889592409134,-0.012190619483590126,-0.01811934821307659
1772536396682927900,5.559927978515625,-0.016139822080731392,-0.01613342948257923,-0.013660418801009655
1772536396692976600,5.5699765625,-0.016215721145272255,-0.012195413932204247,-0.010824684053659439
1772536396703025000,5.58002490234375,-0.009472863748669624,-0.0014362427173182368,0.006849916651844978
1772536396713073000,5.590072998046875,-0.004809136036783457,0.01944400556385517,0.02793309837579727
1772536396723121000,5.600120849609375,-0.002674079965800047,0.026200978085398674,0.029020732268691063
1772536396733170000,5.610169921875,-0.007637146860361099,0.014100639149546623,0.0235226359218359
1772536396743217700,5.6202177734375,-0.008304535411298275,0.000972852751147002,0.011335745453834534
1772536396753266000,5.630265869140625,-0.010152769275009632,0.003171025775372982,0.007595867849886417
1772536396763313700,5.640313720703125,-0.012978382408618927,0.006903978530317545,0.00044528054422698915
1772536396773362000,5.65036181640625,-0.012256133370101452,-0.0002426139690214768,-0.006945257540792227
1772536396783410700,5.66041064453125,-0.009920274838805199,-0.00130920996889472,-0.00503949960693717
1772536396793458700,5.670458740234375,-0.01269582100212574,-0.00512924836948514,-0.008731173351407051
1772536396803507000,5.6805068359375,-0.010387926362454891,-0.011034009046852589,-0.010588196106255054
1772536396813554700,5.6905546875,-0.008049404248595238,-0.0006024070316925645,0.001193362521007657
1772536396823604000,5.70060400390625,-0.008584965951740742,0.010282198898494244,0.010860104113817215
1772536396833651700,5.710651611328125,-0.0032431974541395903,0.0093919038772583,0.014640994369983673
1772536396843699700,5.72069970703125,0.000809068325906992,0.009397762827575207,0.025537583976984024
1772536396853748000,5.730748046875,0.0006354302167892456,0.012134427204728127,0.029825007542967796
1772536396863795700,5.740795654296875,0.0024405207950621843,0.011895275674760342,0.026269420981407166
1772536396873844700,5.7508447265625,0.0007864314829930663,0.010420150123536587,0.025005217641592026
1772536396883892700,5.760892822265625,0.0007299724384211004,0.009327721782028675,0.016592025756835938
1772536396893941000,5.77094091796875,0.0008764463127590716,0.004976915195584297,0.00815246906131506
1772536396903988700,5.78098876953125,0.0013792511308565736,-0.003213370218873024,0.0022775353863835335
1772536396914036700,5.79103662109375,-0.001487109111621976,-0.0023097596131265163,0.0006759102689102292
1772536396924085800,5.801085693359375,-0.006934871431440115,0.005007541738450527,0.0015108112711459398
1772536396934133800,5.8111337890625,-0.006854710169136524,0.005983323790132999,-0.004339088220149279
1772536396944182000,5.82118212890625,-0.012400477193295956,0.005108742043375969,-0.009547166526317596
1772536396954229800,5.831229736328125,-0.009652627632021904,0.0060174125246703625,-0.006323676090687513
1772536396964278800,5.84127880859375,-0.013354687951505184,0.012602610513567924,-0.002788063371554017
1772536396974326800,5.851326904296875,-0.010999121703207493,0.019568907096982002,0.0008596684201620519
1772536396984374800,5.861374755859375,-0.011607919819653034,0.021989189088344574,0.004246144089847803
1772536396994423000,5.871423095703125,-0.00993066094815731,0.022228872403502464,0.005441104527562857
1772536397004470800,5.881470703125,-0.00815246906131506,0.021883727982640266,0.004324707202613354
1772536397014519800,5.891519775390625,-0.009847304783761501,0.018196847289800644,0.0010314423125237226
1772536397024567800,5.90156787109375,-0.012830577790737152,0.011830294504761696,-0.0031997880432754755
1772536397034615800,5.91161572265625,-0.011406052857637405,0.002840261207893491,-0.007335943635553122
1772536397044663800,5.921663818359375,-0.01025609951466322,-0.003690076060593128,-0.010557835921645164
1772536397054712800,5.931712890625,-0.0068155620247125626,-0.0070640346966683865,-0.005745503585785627
1772536397064760800,5.9417607421875,-0.0031585090328007936,0.003165965899825096,0.0037380128633230925
1772536397074809000,5.95180908203125,-0.002478603972122073,0.009518669918179512,0.012315255589783192
1772536397084857000,5.961857177734375,-0.003084473079070449,0.01543727982789278,0.016261527314782143
1772536397094906000,5.971906005859375,-0.0014444985426962376,0.009305351413786411,0.013980263844132423
1772536397104954000,5.9819541015625,-0.0030210898257791996,0.008305334486067295,0.012134959921240807
1772536397115002000,5.992002197265625,-0.006204366218298674,0.0016146745765581727,0.0013086773687973619
1772536397125050000,6.002050048828125,-0.009069128893315792,-0.00119575927965343,-0.004218180663883686
1772536397135097900,6.012097900390625,-0.008627310395240784,0.0032029838766902685,-0.001517735538072884
1772536397145147100,6.022147216796875,-0.006366286426782608,0.009909089654684067,0.006582535337656736
1772536397155195000,6.03219482421875,-0.007767375558614731,0.014974421821534634,0.014317420311272144
1772536397165243100,6.0422431640625,-0.008100270293653011,0.011404721066355705,0.020227773115038872
1772536397175291100,6.052291015625,-0.0073196981102228165,0.009664079174399376,0.02329413779079914
1772536397185339000,6.0623388671875,-0.00809094961732626,0.013831659220159054,0.02479482814669609
1772536397195388200,6.07238818359375,-0.0067721521481871605,0.012631106190383434,0.02226642332971096
1772536397205436000,6.082435791015625,-0.007636880502104759,0.00743101816624403,0.01474379189312458
1772536397215484200,6.092484130859375,-0.006973220966756344,0.006905843038111925,0.016207732260227203
1772536397225532200,6.1025322265625,-0.01002174150198698,0.011419101618230343,0.012707273475825787
1772536397235581200,6.112581298828125,-0.006695186719298363,0.012012188322842121,0.008232363499701023
1772536397245629200,6.122629150390625,-0.0030634342692792416,0.012022308073937893,0.005066930316388607
1772536397255677000,6.132677001953125,-0.003979029133915901,0.010427074506878853,-0.0086041409522295
1772536397265725200,6.14272509765625,-0.008014516904950142,0.007949802093207836,-0.018191253766417503
1772536397275773000,6.15277294921875,-0.008175904862582684,0.0022114890161901712,-0.026249181479215622
1772536397285822200,6.162822265625,-0.012491290457546711,0.007782289292663336,-0.028605012223124504
1772536397295870000,6.172869873046875,-0.014368019998073578,0.001085770782083273,-0.029828203842043877
1772536397305918000,6.18291796875,-0.015355519950389862,0.0008266451768577099,-0.023028353229165077
1772536397315966200,6.19296630859375,-0.014720622450113297,0.006715959403663874,-0.014227671548724174
1772536397326015000,6.203014892578125,-0.01561384741216898,0.020004333928227425,-0.00321843009442091
1772536397336063200,6.213063232421875,-0.017707357183098793,0.015784289687871933,0.001517735538072884
1772536397346111000,6.223111083984375,-0.009762882255017757,0.015401593409478664,0.007669104728847742
1772536397356159000,6.233158935546875,-0.006725014187395573,0.026583140715956688,0.013745373114943504
1772536397366207200,6.243207275390625,-0.008472846820950508,0.029470540583133698,0.014885205775499344
1772536397376256000,6.253256103515625,-0.009185775183141232,0.010516290552914143,0.014013553969562054
1772536397386304300,6.26330419921875,-0.003935352899134159,0.0041193775832653046,0.012536564841866493
1772536397396352000,6.27335205078125,-0.003373692510649562,0.006323942448943853,0.01811828278005123
1772536397406400000,6.28339990234375,-0.00926300697028637,0.0003067961661145091,0.0199273694306612
1772536397416448000,6.293447998046875,-0.008647816255688667,-0.009613744914531708,0.017650632187724113
1772536397426497000,6.3034970703125,-0.0034671693574637175,-0.0029638318810611963,0.014829812571406364
1772536397436545000,6.313544921875,-0.003483148291707039,0.007959389127790928,0.021334050223231316
1772536397446593000,6.323593017578125,0.0008111988427117467,0.013126187957823277,0.019451461732387543
1772536397456641000,6.33364111328125,0.0009723200928419828,0.01309023518115282,0.017976870760321617
1772536397466690000,6.34368994140625,-0.004253600724041462,0.008384696207940578,0.016113456338644028
1772536397476738000,6.353738037109375,-0.0032112395856529474,0.005819273181259632,0.017782725393772125
1772536397486786000,6.3637861328125,-0.0026783409994095564,0.012094213627278805,0.01703224703669548
1772536397496834000,6.373833984375,-0.0038088529836386442,0.012743758037686348,0.013944311067461967
1772536397506882000,6.383882080078125,-0.004737497307360172,0.006680273450911045,0.008095210418105125
1772536397516931000,6.39393115234375,-0.002549710450693965,0.0057372478768229485,0.005045092198997736
1772536397526979000,6.40397900390625,-0.004322044085711241,0.0032325449865311384,0.0031763522420078516
1772536397537027000,6.414027099609375,-0.005621932912617922,0.003899400355294347,0.001728924224153161
1772536397547075000,6.424074951171875,-0.008866461925208569,-0.00036751621519215405,0.0010980212828144431
1772536397557124000,6.4341240234375,-0.008640093728899956,-0.005902630276978016,0.001967277145013213
1772536397567172000,6.444172119140625,-0.009795372374355793,-0.0008279767935164273,0.007695736363530159
1772536397577219800,6.4542197265625,-0.013139237649738789,0.007266434840857983,0.0155531270429492
1772536397587268000,6.46426806640625,-0.013523798435926437,0.013609285466372967,0.02118118479847908
1772536397597316000,6.474316162109375,-0.014103834517300129,0.010869159363210201,0.026630811393260956
1772536397607365000,6.484365234375,-0.01546550914645195,0.013771206140518188,0.026638535782694817
1772536397617413000,6.4944130859375,-0.016415458172559738,0.008085889741778374,0.021288510411977768
1772536397627460900,6.5044609375,-0.014549115672707558,0.0017036241479218006,0.014639928936958313
1772536397637509000,6.514509033203125,-0.014456436969339848,-0.0052259210497140884,0.01359517127275467
1772536397647557000,6.52455712890625,-0.008016914129257202,-0.008685100823640823,0.011874768882989883
1772536397657606100,6.534606201171875,-0.01239168830215931,-0.005065065808594227,0.012619388289749622
1772536397667654100,6.544654052734375,-0.011324825696647167,0.0007717840489931405,0.014514760114252567
1772536397677702000,6.554701904296875,-0.010990865528583527,0.00567013630643487,0.013996775262057781
1772536397687750100,6.564750244140625,-0.00640863087028265,0.005286640953272581,0.012731773778796196
1772536397697799000,6.574798828125,-0.009063003584742546,0.0018940401496365666,0.01318131573498249
1772536397707847200,6.58484716796875,-0.0060919807292521,-0.0024258734192699194,0.01025876309722662
1772536397717895000,6.59489501953125,-0.005446697119623423,-0.0067993164993822575,0.010301905684173107
1772536397727943000,6.60494287109375,-0.005263205152004957,-0.002701244316995144,0.016639163717627525
1772536397737992000,6.614991943359375,-0.005927663762122393,0.01094772294163704,0.026399649679660797
1772536397748040000,6.6250400390625,-0.0072778863832354546,0.015440208837389946,0.031030619516968727
1772536397758088200,6.635088134765625,-0.008413458243012428,0.015911055728793144,0.02479349635541439
1772536397768136000,6.645135986328125,-0.0051622712053358555,0.005864014383405447,0.025048894807696342
1772536397778184200,6.65518408203125,-0.0057343184016644955,0.005418733693659306,0.01678936555981636
1772536397788233000,6.66523291015625,-0.005543369799852371,0.0013683321885764599,0.01275600865483284
1772536397798281000,6.675281005859375,-0.007902930490672588,-0.00427117757499218,0.00546240946277976
1772536397808329200,6.6853291015625,-0.005434446502476931,-0.013214871287345886,0.003085005795583129
1772536397818377000,6.695376953125,-0.0029225528705865145,-0.0065231467597186565,0.005833654198795557
1772536397828425200,6.70542529296875,-0.008534099906682968,0.0021872541401535273,0.008658203296363354
1772536397838474000,6.715473876953125,-0.007107177749276161,0.00392842898145318,0.008646219037473202
1772536397848522000,6.72552197265625,-0.004028031136840582,0.0036394759081304073,0.009797769598662853
1772536397858570000,6.735570068359375,-0.0054727960377931595,-0.000821318884845823,0.009527725167572498
1772536397868618000,6.745617919921875,0.0026527747977524996,-0.001347825862467289,0.014550180174410343
1772536397878667000,6.7556669921875,0.004939631093293428,0.003945206757634878,0.01576724462211132
1772536397888715000,6.765715087890625,0.0034908715169876814,0.00839854497462511,0.012584500946104527
1772536397898763300,6.77576318359375,0.002124669961631298,0.011439874768257141,0.011464376002550125
1772536397908811000,6.78581103515625,-0.0019014970166608691,0.005087969359010458,0.00812210887670517
1772536397918859000,6.79585888671875,-0.008215585723519325,-0.0024506407789885998,0.00000958738019107841
1772536397928908000,6.805907958984375,-0.011138138361275196,-0.003971039317548275,-0.003982224967330694
1772536397938956000,6.8159560546875,-0.010173541493713856,-0.0057532270438969135,-0.013555489480495453
1772536397949004300,6.82600439453125,-0.012741628102958202,0.0002894856152124703,-0.009777262806892395
1772536397959052000,6.836052001953125,-0.015277756378054619,0.009699232876300812,-0.005106344819068909
1772536397969100000,6.84610009765625,-0.015544071793556213,0.013914749957621098,-0.0019920445047318935
1772536397979149000,6.856149169921875,-0.008586564101278782,0.023025425150990486,0.002959570847451687
1772536397989197000,6.866197021484375,-0.004502073861658573,0.02148558385670185,0.004058391321450472
1772536397999245000,6.8762451171875,-0.00250470289029181,0.018860505893826485,0.00032890037982724607
1772536398009293000,6.88629296875,-0.0019598202779889107,0.015052719041705132,-0.0024168186355382204
1772536398019341800,6.896341796875,-0.0021526331547647715,0.009039834141731262,-0.008854211308062077
1772536398029390000,6.90639013671875,-0.00421365350484848,0.000014114753867033869,-0.01050537172704935
1772536398039438000,6.91643798828125,-0.0039007319137454033,-0.0017688715597614646,-0.014093182049691677
1772536398049486000,6.926486083984375,-0.005092230159789324,-0.00012490226072259247,-0.009118396788835526
1772536398059534000,6.9365341796875,-0.00586614478379488,0.005524993874132633,-0.001416269107721746
1772536398069583000,6.9465830078125,-0.00455746753141284,0.010640393942594528,0.00276169809512794
1772536398079634700,6.956634765625,-0.0016365124611184,0.018036257475614548,0.0057532270438969135
1772536398089682700,6.9666826171875,0.0022181468084454536,0.014072409830987453,0.0065436530858278275
1772536398099730700,6.976730712890625,0.0021979068405926228,0.009067530743777752,0.008327172137796879
1772536398109779700,6.98677978515625,0.005142297595739365,0.01206784788519144,0.011621768586337566
1772536398119827700,6.99682763671875,0.00660463934764266,0.01733025349676609,0.016110792756080627
1772536398129875700,7.006875732421875,0.005592371802777052,0.020777450874447823,0.018862104043364525
1772536398139923500,7.01692333984375,0.008472846820950508,0.01113334484398365,0.01624581590294838
1772536398149971700,7.0269716796875,0.00634977500885725,0.011177021078765392,0.012203402817249298
1772536398160020500,7.0370205078125,0.002037318190559745,0.009181514382362366,0.004611529875546694
1772536398170068700,7.04706884765625,-0.004177700728178024,0.0056951697915792465,0.0018285263795405626
1772536398180116700,7.05711669921875,-0.00364693277515471,0.0027899276465177536,-0.0009329052991233766
1772536398190164700,7.067164794921875,-0.006670419592410326,0.0052296495996415615,0.0006796387024223804
1772536398200212700,7.077212646484375,-0.0034463966730982065,0.0038011297583580017,0.0017963021527975798
1772536398210261500,7.087261474609375,-0.00441019469872117,0.003061303636059165,0.007738879881799221
1772536398220309800,7.097309814453125,-0.0043651871383190155,0.013636183924973011,0.013493970967829227
1772536398230357800,7.107357666015625,-0.00566960358992219,0.017781393602490425,0.016108395531773567
1772536398240405800,7.11740576171875,-0.005884787067770958,0.016404805704951286,0.012368518859148026
1772536398250454800,7.127454833984375,-0.00734260119497776,0.014306501485407352,0.005370530765503645
1772536398260502500,7.13750244140625,-0.010209760628640652,0.005532717332243919,-0.0015792545164003968
1772536398270550800,7.14755078125,-0.012337093241512775,-0.0006348976166918874,-0.007276288699358702
1772536398280598500,7.1575986328125,-0.014451909810304642,-0.005305283237248659,-0.009434781037271023
1772536398290646800,7.167646728515625,-0.009346097707748413,-0.0020634171087294817,0.0012596751330420375
1772536398300695600,7.177695556640625,-0.006903978530317545,0.003427221905440092,0.005318865180015564
1772536398310743600,7.18774365234375,-0.0032445292454212904,0.010462760925292969,0.013094496913254261
1772536398320791800,7.197791748046875,-0.001508680754341185,0.012500079348683357,0.017066068947315216
1772536398330839600,7.207839599609375,-0.002186455298215151,0.009689378552138805,0.02070368081331253
1772536398340888800,7.217888916015625,-0.0008532768115401268,0.00938897393643856,0.02183445915579796
1772536398350936600,7.2279365234375,-0.0032091091852635145,0.00315984059125185,0.013158945366740227
1772536398360984800,7.23798486328125,-0.002695385366678238,-0.001347559504210949,0.007930627092719078
1772536398371032800,7.24803271484375,-0.0037864823825657368,-0.0037292244378477335,0.007476558443158865
1772536398381080600,7.25808056640625,0.0006495449924841523,-0.0008455536444671452,0.008363657630980015
1772536398391129900,7.2681298828125,-0.0028093685396015644,0.0016250609187409282,0.013844975270330906
1772536398401177600,7.278177490234375,-0.005702893249690533,0.006687197368592024,0.021801436319947243
1772536398411225900,7.288225830078125,-0.009266202338039875,0.005840045865625143,0.022109029814600945
1772536398421273600,7.298273681640625,-0.010295247659087181,0.002794188680127263,0.024287229403853416
1772536398431321600,7.308321533203125,-0.011897671967744827,0.0006002765148878098,0.018616028130054474
1772536398441370600,7.31837060546875,-0.013687582686543465,-0.001469532260671258,0.01356507744640112
1772536398451418600,7.328418701171875,-0.01853107288479805,-0.0005893575726076961,0.00598572101444006
1772536398461467000,7.338466796875,-0.024941835552453995,-0.0020628846250474453,-0.0016841830220073462
1772536398471514600,7.3485146484375,-0.018814699724316597,-0.010017480701208115,-0.005044825840741396
1772536398481564000,7.35856396484375,-0.017237842082977295,-0.006161489523947239,-0.006780674215406179
1772536398491611600,7.368611572265625,-0.012028433382511139,-0.010326406918466091,-0.009942911565303802
1772536398501659600,7.37865966796875,-0.020324446260929108,-0.05368293449282646,-0.020306603983044624
1772536398511708000,7.3887080078125,-0.0018045579781755805,0.004394215997308493,-0.007670702878385782
1772536398521755600,7.398755615234375,-0.008376706391572952,0.01555472519248724,0.00011211907985853031
1772536398531805000,7.408804931640625,-0.016476178541779518,0.007256847806274891,-0.003732952754944563
1772536398541852700,7.418852783203125,-0.015352590940892696,0.0023249397054314613,-0.003065032185986638
1772536398551900700,7.428900634765625,-0.014824486337602139,-0.007939682342112064,-0.007656854577362537
1772536398561948700,7.43894873046875,-0.017056748270988464,-0.011404454708099365,-0.010775416158139706
1772536398571997700,7.448997802734375,-0.009646235965192318,-0.006696252152323723,-0.01118980348110199
1772536398582045700,7.459045654296875,-0.014511032029986382,0.0006042712484486401,-0.0029965888243168592
1772536398592093700,7.46909375,-0.020730845630168915,-0.012197277508676052,-0.0056741307489573956
1772536398602141700,7.4791416015625,-0.02034388668835163,0.0006229133578017354,-0.004479437135159969
1772536398612189700,7.489189697265625,-0.018245583400130272,0.015499863773584366,-0.0013052152935415506
1772536398622238700,7.49923876953125,-0.015911588445305824,0.013295565731823444,-0.00004021373388241045
1772536398632286700,7.50928662109375,-0.0169755220413208,0.012200207449495792,-0.0036333505995571613
1772536398642334700,7.519334716796875,-0.012092881835997105,0.004099403973668814,-0.010354636237025261
1772536398652382700,7.5293828125,-0.007903196848928928,0.00224903947673738,-0.011529889889061451
1772536398662431700,7.539431640625,-0.003579821204766631,0.005251487251371145,-0.00896499864757061
1772536398672479700,7.549479736328125,-0.00863157119601965,0.01207051146775484,-0.006396380253136158
1772536398682527700,7.55952783203125,-0.010131197050213814,0.013342437334358692,-0.009602293372154236
1772536398692575700,7.56957568359375,-0.0127570740878582,0.010488593950867653,-0.014125406742095947
1772536398702623500,7.57962353515625,-0.01191018894314766,0.011627627536654472,-0.014549115672707558
1772536398712672800,7.5896728515625,-0.01660773903131485,0.012449478730559349,-0.015275891870260239
1772536398722720500,7.599720458984375,-0.02082671783864498,0.013352823443710804,-0.013591442257165909
1772536398732768800,7.609768798828125,-0.022476546466350555,0.014331269077956676,-0.012530971318483353
1772536398742816800,7.619816650390625,-0.018263425678014755,0.014579208567738533,-0.007655789144337177
1772536398752864500,7.629864501953125,-0.016927318647503853,0.01817341148853302,-0.004954012110829353
1772536398762913800,7.639913818359375,-0.012500878423452377,0.016818927600979805,-0.002972354181110859
1772536398772961500,7.64996142578125,-0.009940515272319317,0.016622653231024742,-0.001448759576305747
1772536398783009800,7.660009765625,-0.0070395334623754025,0.012222045101225376,-0.0004577973741106689
1772536398793057800,7.670057861328125,-0.009369000792503357,0.00863263662904501,0.0023289343807846308
1772536398803106800,7.68010693359375,-0.011562646366655827,0.007179349660873413,0.0020996362436562777
1772536398813154800,7.69015478515625,-0.013427391648292542,0.008523181080818176,0.0023249397054314613
1772536398823202600,7.70020263671875,-0.01648789644241333,0.005394232925027609,-0.0013171994360163808
1772536398833250800,7.710250732421875,-0.015678828582167625,0.012827647849917412,0.002429868094623089
1772536398843298600,7.720298583984375,-0.013903032056987286,0.016978716477751732,0.00276063266210258
1772536398853347800,7.730347900390625,-0.007423561532050371,0.022468291223049164,-0.002216815249994397
1772536398863395600,7.7403955078125,-0.005928995553404093,0.0191356111317873,-0.0014287859667092562
1772536398873443600,7.750443603515625,-0.0068331388756632805,0.010933341458439827,-0.007533550262451172
1772536398883491800,7.760491943359375,-0.008131962269544601,0.011226288974285126,-0.0052259210497140884
1772536398893540600,7.77054052734375,-0.011505122296512127,0.014509966596961021,-0.011126420460641384
1772536398903588900,7.7805888671875,-0.011812984012067318,0.023900805041193962,-0.005650694947689772
1772536398913636600,7.79063671875,-0.013221262954175472,0.028508873656392097,-0.0028045750223100185
1772536398923684600,7.8006845703125,-0.014935540035367012,0.024771925061941147,-0.003178216516971588
1772536398933732900,7.81073291015625,-0.017366738989949226,0.01763385534286499,-0.0006631271098740399
1772536398943781600,7.82078173828125,-0.021684788167476654,0.0248427651822567,0.007221427746117115
1772536398953830000,7.830829833984375,-0.02322489582002163,0.03417181968688965,0.016038354486227036
1772536398963877600,7.840877685546875,-0.022537533193826675,0.04398636519908905,0.030284402891993523
1772536398973925600,7.850925537109375,-0.026375148445367813,0.04676350951194763,0.036551088094711304
1772536398983973600,7.8609736328125,-0.03134860098361969,0.04013437032699585,0.03903581574559212
1772536398994022700,7.871022705078125,-0.03389937803149223,0.033134251832962036,0.035896480083465576
1772536399004070700,7.881070556640625,-0.034153178334236145,0.034147851169109344,0.03718092292547226
1772536399014118700,7.89111865234375,-0.03825417906045914,0.032393891364336014,0.029868416488170624
1772536399024166700,7.901166748046875,-0.03594255447387695,0.03429006412625313,0.04039136320352554
1772536399034215700,7.911215576171875,-0.044679585844278336,0.028840169310569763,0.040714140981435776
1772536399044263700,7.921263671875,-0.039191875606775284,0.026986077427864075,0.03857668861746788
1772536399054311700,7.931311767578125,-0.036966804414987564,0.03399818018078804,0.03785736858844757
1772536399064359700,7.941359619140625,-0.037933800369501114,0.03377234563231468,0.03666666895151138
1772536399074403300,7.9514033203125,-0.04236583411693573,0.03471696749329567,0.02509550005197525
1772536399084452000,7.9614521484375,-0.04210351034998894,0.01799977384507656,0.006164152640849352
1772536399094500400,7.971500244140625,-0.030841534957289696,0.010150372050702572,-0.0004588626616168767
1772536399104548000,7.981548095703125,-0.023270968347787857,0.011236408725380898,-0.0015249260468408465
1772536399114596000,7.99159619140625,-0.015107047744095325,0.008381767198443413,-0.005184642039239407
1772536399124644400,8.001644287109375,-0.01272591482847929,0.005923669319599867,-0.0026815368328243494
1772536399134693000,8.011693115234374,-0.009076851420104504,0.0070677632465958595,-0.007507450878620148
1772536399144741400,8.021741455078125,-0.012144014239311218,0.008738896809518337,-0.011945076286792755
1772536399154789000,8.0317890625,-0.016110526397824287,-0.0018610169645398855,-0.018743326887488365
1772536399164837000,8.041837158203125,-0.014491590671241283,-0.015299860388040543,-0.028249481692910194
1772536399174886100,8.05188623046875,-0.01398825366050005,-0.02044881507754326,-0.031560588628053665
1772536399184934100,8.06193408203125,-0.01182150561362505,-0.01429291907697916,-0.019773172214627266
1772536399194982400,8.071982421875,-0.012486496940255165,-0.003990480676293373,-0.00884888507425785
1772536399205030100,8.082030029296876,-0.009138370864093304,0.003971039317548275,-0.0010626012226566672
1772536399215078100,8.092078125,-0.010923221707344055,0.009606288745999336,-0.0005158542771823704
1772536399225127200,8.102127197265625,-0.01022520661354065,0.006446714047342539,-0.0034133736044168472
1772536399235175200,8.112175048828124,-0.009620402939617634,0.005524727515876293,-0.012592224404215813
1772536399245223200,8.12222314453125,-0.012820989824831486,0.0029611687641590834,-0.018327075988054276
1772536399255271200,8.132271240234376,-0.011379687115550041,-0.002430667169392109,-0.026138659566640854
1772536399265320200,8.1423203125,-0.010430536232888699,-0.010157562792301178,-0.02942473441362381
1772536399275368200,8.1523681640625,-0.008709069341421127,-0.012888900935649872,-0.029498238116502762
1772536399285416200,8.162416259765624,-0.010742126032710075,-0.008810536004602909,-0.025588983669877052
1772536399295464200,8.172464111328125,-0.013032977469265461,0.0073529877699911594,-0.014751248992979527
1772536399305512200,8.18251220703125,-0.013175190426409245,0.01667218655347824,-0.0038314899429678917
1772536399315561200,8.192561279296875,-0.0132673354819417,0.017070064321160316,-0.006868026219308376
1772536399325609200,8.202609130859376,-0.011917113326489925,0.00794234499335289,-0.011992480605840683
1772536399335657200,8.2126572265625,-0.007399859372526407,-0.0005531385540962219,-0.009009473957121372
1772536399345705200,8.222705322265625,-0.007772701792418957,-0.003285009181126952,-0.0010301107540726662
1772536399355753200,8.232753173828126,-0.006068279035389423,0.003811782458797097,0.009441172704100609
1772536399365802200,8.24280224609375,-0.006400907412171364,0.020719924941658974,0.022876020520925522
1772536399375850200,8.252850341796876,-0.0054911719635128975,0.031328894197940826,0.033180322498083115
1772536399385898200,8.262898193359375,-0.002011219272390008,0.02900209091603756,0.03135872259736061
1772536399395946200,8.2729462890625,-0.001588575541973114,0.015079882927238941,0.019466642290353775
1772536399405995000,8.2829951171875,-0.0005155879771336913,0.0022884542122483253,0.004048271104693413
1772536399416043300,8.293043212890625,0.0002487392339389771,-0.009547166526317596,-0.006859237793833017
1772536399426091300,8.30309130859375,0.0027680895291268826,-0.010006029158830643,-0.008419050835072994
1772536399436139000,8.313138916015625,-0.00009960222087102011,-0.00529596209526062,-0.004363589454442263
1772536399446187300,8.323187255859375,0.0018152105621993542,-0.0015962987672537565,0.0017270599491894245
1772536399456236000,8.333236083984374,0.0036658411845564842,0.00637773796916008,0.012368785217404366
1772536399466284300,8.3432841796875,0.000553404854144901,0.015503325499594212,0.013732057064771652
1772536399476332300,8.353332275390626,-0.0008111988427117467,0.018494322896003723,0.014524614438414574
1772536399486380000,8.363380126953125,0.0004673847579397261,0.011574630625545979,0.006351372692734003
1772536399496428300,8.37342822265625,0.0027049726340919733,0.005561213009059429,-0.00019867181254085153
1772536399506477000,8.38347705078125,0.0017885789275169373,0.00974184274673462,0.00020586235041264445
1772536399516525300,8.393525390625,-0.001969141187146306,0.007085073739290237,-0.00006471481174230576
1772536399526573000,8.403572998046876,-0.002151301596313715,0.0034764904994517565,-0.001064731739461422
1772536399536621000,8.41362109375,-0.006042712368071079,0.0024943165481090546,-0.0014112089993432164
1772536399546670000,8.423670166015626,-0.003793406533077359,0.0036157737486064434,0.0003294330381322652
1772536399556718000,8.433718017578125,-0.003424292430281639,0.006469617132097483,0.0013752563390880823
1772536399566766300,8.443766357421875,0.0030008498579263687,0.007936486043035984,0.005380650516599417
1772536399576814000,8.45381396484375,0.0016367788193747401,0.006883472204208374,0.01067794393748045
1772536399586862000,8.463862060546875,0.0015568839153274894,0.008847021497786045,0.01067741122096777
1772536399596911000,8.4739111328125,-0.0015417039394378662,0.00908643938601017,0.0046426886692643166
1772536399606959000,8.483958984375,-0.00437956815585494,0.006880010478198528,0.002573146251961589
1772536399617007400,8.49400732421875,-0.004289553500711918,0.010214021429419518,0.0005856291390955448
1772536399627055000,8.50405517578125,-0.006167348474264145,0.013458817265927792,0.00034354778472334146
1772536399637104400,8.5141044921875,-0.00381417921744287,0.018331602215766907,-0.004811533261090517
1772536399647152000,8.524152099609376,-0.007866178639233112,0.015735020861029625,-0.004721251782029867
1772536399657200000,8.5342001953125,-0.006042978726327419,0.00863423477858305,-0.003915912006050348
1772536399667248000,8.544248046875,-0.012147476896643639,0.008141017518937588,-0.00746031291782856
1772536399677296000,8.554296142578124,-0.017140638083219528,0.010674482211470604,-0.010175139643251896
1772536399687345200,8.56434521484375,-0.01674063131213188,0.007699464913457632,-0.013291303999722004
1772536399697393200,8.57439306640625,-0.013892645947635174,0.007577758282423019,-0.014903848059475422
1772536399707441200,8.584441162109375,-0.0128774493932724,0.010727212764322758,-0.01158847939223051
1772536399717489200,8.5944892578125,-0.011350392363965511,0.011857458390295506,-0.008284561336040497
1772536399727537200,8.604537109375,-0.011597267352044582,0.013293168507516384,-0.006689860485494137
1772536399737586200,8.614586181640625,-0.012181298807263374,0.011720838025212288,-0.0036946034524589777
1772536399747634200,8.62463427734375,-0.009342901408672333,0.010213488712906837,-0.0030035129748284817
1772536399757682200,8.63468212890625,-0.014693458564579487,0.004485029727220535,-0.006373210810124874
1772536399767730200,8.644730224609376,-0.01625540293753147,-0.0035084483679383993,-0.012136558070778847
1772536399777779200,8.654779296875,-0.015501461923122406,0.0003379551344551146,-0.015380021184682846
1772536399787827200,8.6648271484375,-0.01684396155178547,-0.005788380745798349,-0.010418286547064781
1772536399797875200,8.674875244140624,-0.018266355618834496,0.002772350562736392,-0.003936151973903179
1772536399807923200,8.684923095703125,-0.02052658051252365,0.005957491230219603,-0.0012175972806289792
1772536399817971200,8.69497119140625,-0.018278339877724648,0.010875817388296127,0.005815278738737106
1772536399828020000,8.70502001953125,-0.015294800512492657,0.015633821487426758,0.00908377580344677
1772536399838068200,8.715068115234375,-0.008128500543534756,0.01569507271051407,0.010995925404131413
1772536399848116200,8.7251162109375,-0.007453122641891241,0.01714516431093216,0.009838515892624855
1772536399858164000,8.7351640625,-0.008760468102991581,0.022117286920547485,0.006707170978188515
1772536399868213200,8.745213134765624,-0.011857724748551846,0.01588708721101284,-0.0012876383261755109
1772536399878261000,8.755260986328125,-0.015540077351033688,0.008163920603692532,-0.009644637815654278
1772536399888309200,8.765309326171876,-0.01510225422680378,-0.0018745990237221122,-0.009351690299808979
1772536399898357200,8.775357177734374,-0.01552383229136467,-0.0032170985359698534,-0.00830666534602642
1772536399908405200,8.7854052734375,-0.016204535961151123,0.0007986819837242365,-0.00054142065346241
1772536399918454300,8.795454345703124,-0.01846609264612198,0.011622301302850246,0.010640660300850868
1772536399928502000,8.805501953125,-0.014826616272330284,0.020171314477920532,0.01799551211297512
1772536399938550300,8.81555029296875,-0.017113473266363144,0.019461581483483315,0.020859742537140846
1772536399948598300,8.825598388671875,-0.013060408644378185,0.01441302802413702,0.009255549870431423
1772536399958646300,8.835646240234375,-0.0064863949082791805,0.010151171125471592,0.010435064323246479
1772536399968695000,8.845695068359374,-0.005178783088922501,0.012349077500402927,0.006114351563155651
1772536399978743000,8.855742919921875,-0.00115394766908139,0.012297412380576134,0.0059662796556949615
1772536399988791300,8.865791259765626,0.0046445527113974094,0.014229003340005875,0.010189520195126534
1772536399998839000,8.875839111328125,0.006579339504241943,0.017783258110284805,0.003525226376950741
1772536400008888300,8.885888427734375,0.007525560446083546,0.015306518413126469,0.0038426751270890236
1772536400018936000,8.89593603515625,0.005824067164212465,0.012238822877407074,0.00009827064059209079
1772536400028984000,8.905984130859375,0.006858438719063997,0.005345496814697981,-0.002772616920992732
1772536400039032300,8.9160322265625,0.0017411747248843312,0.005333246197551489,-0.0068027786910533905
1772536400049080000,8.926080078125,0.00010972223390126601,0.005606752820312977,-0.003236539661884308
1772536400059129300,8.93612939453125,0.0003989415417890996,0.006762565113604069,0.0034501252230256796
1772536400069177000,8.946177001953124,0.0013600763631984591,0.009383914060890675,0.0072896042838692665
1772536400079225600,8.9562255859375,0.002528937766328454,0.016049006953835487,0.010420949198305607
1772536400089273300,8.9662734375,0.0027353328187018633,0.018455173820257187,0.011660916730761528
1772536400099321300,8.9763212890625,0.004968393128365278,0.011712050065398216,0.011982627213001251
1772536400109370400,8.986370361328126,0.0025720810517668724,0.014302239753305912,0.011091266758739948
1772536400119418400,8.99641845703125,-0.00044554684427566826,0.0156553927809,0.007893343456089497
1772536400129466600,9.006466552734375,-0.0013190637109801173,0.015995211899280548,0.009556487202644348
1772536400139514400,9.016514404296874,-0.001978462329134345,0.013701431453227997,0.010641459375619888
1772536400149563600,9.026563720703125,-0.00358834327198565,0.0070400661788880825,0.0043707797303795815
1772536400159611400,9.036611328125,0.001549693406559527,0.005368932615965605,0.0008918926469050348
1772536400169659400,9.046659423828125,0.001776062068529427,0.005013933405280113,-0.0020394488237798214
1772536400179707600,9.056707763671875,0.000245543458731845,0.006031260825693607,-0.005664810072630644
1772536400189755400,9.06675537109375,-0.002043709857389331,0.005877862684428692,-0.007368966471403837
1772536400199804700,9.0768046875,-0.0013723268639296293,0.013125388883054256,-0.0023177489638328552
1772536400209852400,9.086852294921876,-0.000056459015468135476,0.0173821859061718,0.00180908537004143
1772536400219900400,9.096900390625,-0.000056459015468135476,0.008157262578606606,-0.000988032785244286
1772536400229948400,9.106948486328125,0.0016817862633615732,0.0046757119707763195,0.004576642066240311
1772536400239997400,9.11699755859375,-0.0030535804107785225,0.008694687858223915,0.008679241873323917
1772536400250045400,9.12704541015625,-0.006417952012270689,0.007725031115114689,0.009377522394061089
1772536400260093400,9.137093505859376,-0.008791361004114151,0.010995925404131413,0.014562963508069515
1772536400270141400,9.147141357421875,-0.008078166283667088,0.011931493878364563,0.016149409115314484
1772536400280189400,9.157189453125,-0.01176105160266161,0.009376191534101963,0.01221378892660141
1772536400290238500,9.167238525390625,-0.016638098284602165,0.008806540630757809,0.005980394314974546
1772536400300286500,9.177286376953125,-0.024290159344673157,0.007983357645571232,-0.000494016392622143
1772536400310334500,9.18733447265625,-0.02660524472594261,0.0116148442029953,-0.0011582087026908994
1772536400320382700,9.1973828125,-0.02239372208714485,0.01733211800456047,0.004701544530689716
1772536400330430500,9.207430419921875,-0.01811535470187664,0.020920727401971817,0.004337756894528866
1772536400340479500,9.2174794921875,-0.011519769206643105,0.0196679774671793,0.002834934974089265
1772536400350527500,9.227527587890625,-0.00555135915055871,0.01961950771510601,0.004159857518970966
1772536400360575500,9.237575439453124,-0.0033388049341738224,0.028849225491285324,0.0020128171890974045
1772536400370623500,9.24762353515625,-0.0062278020195662975,0.02870061993598938,-0.009488310664892197
1772536400380671500,9.25767138671875,-0.0054613444954156876,0.020538032054901123,-0.01564394123852253
1772536400390720300,9.26772021484375,-0.007573497481644154,0.0078531289473176,-0.02480281889438629
1772536400400768500,9.2777685546875,-0.009483249858021736,0.002170742489397526,-0.02628832869231701
1772536400410816500,9.28781640625,-0.009272860363125801,-0.00007669904152862728,-0.021585453301668167
1772536400420864500,9.297864501953125,-0.007202785462141037,0.008214520290493965,-0.01642238348722458
1772536400430913500,9.30791357421875,-0.0031611721497029066,0.019879965111613274,-0.006144977640360594
1772536400440961300,9.317961181640625,-0.003498328384011984,0.033661291003227234,-0.0037063213530927896
1772536400451009500,9.328009521484375,-0.0036570527590811253,0.03945579752326012,-0.005862682592123747
1772536400461057500,9.3380576171875,-0.006761499680578709,0.02971874736249447,-0.024587368592619896
1772536400471105500,9.34810546875,-0.0070099723525345325,0.02124669961631298,-0.043775178492069244
1772536400481154600,9.358154541015624,-0.006870422977954149,0.03473294526338577,-0.049677275121212006
1772536400491202600,9.36820263671875,-0.008435562252998352,0.035289548337459564,-0.05704278126358986
1772536400501250600,9.37825048828125,-0.009999903850257397,0.022042717784643173,-0.05620548129081726
1772536400511298300,9.38829833984375,-0.008898420259356499,0.012354138307273388,-0.053951114416122437
1772536400521346600,9.3983466796875,-0.013084109872579575,0.003234142903238535,-0.0498165600001812
1772536400531395300,9.408395263671874,-0.014123808592557907,-0.0005850964807905257,-0.04061879962682724
1772536400541443600,9.418443603515625,-0.015294267795979977,-0.001574194524437189,-0.02460494451224804
1772536400551491600,9.42849169921875,-0.021043499931693077,-0.001532382913865149,-0.00996208656579256
1772536400561539300,9.438539306640624,-0.028419123962521553,-0.013197560794651508,0.00004926848123432137
1772536400571587600,9.448587646484375,-0.028929652646183968,-0.009687514975667,0.024339161813259125
1772536400581636400,9.45863623046875,-0.027088075876235962,0.009948237799108028,0.04856886714696884
1772536400591684600,9.4686845703125,-0.02520468831062317,0.029414881020784378,0.0748787671327591
1772536400601732600,9.478732666015626,-0.013082779012620449,0.040235571563243866,0.10292744636535645
