time,seconds_elapsed,z,y,x
1772536746170813400,0.0818134765625,-0.1492155789554119,-0.6808636643275618,0.7329149002127349
1772536746180862700,0.09186279296875,-0.12631225775182248,-0.6429267323821782,0.5667781066706403
1772536746190910500,0.101910400390625,-0.1542307767689228,-0.6213412157788872,0.4744519608791917
1772536746200959700,0.111959716796875,-0.14993687896728514,-0.716016810773313,0.49783393244519825
1772536746211008500,0.122008544921875,-0.23585925866365431,-0.7887225660219788,0.49244595579653977
1772536746221056800,0.132056884765625,-0.4316846131026745,-0.933653599525988,0.5549317476628348
1772536746231105500,0.14210546875,-0.7614139955967665,-1.0584323641002178,0.502688971260935
1772536746241154600,0.152154541015625,-0.9808347451567649,-1.1242457294866441,0.409165980367735
1772536746251203600,0.16220361328125,-1.063666757622361,-1.0429153537556528,0.34650161706414073
1772536746261251600,0.17225146484375,-1.2623457479268312,-0.8852578174084424,0.23517967890165745
1772536746271300600,0.182300537109375,-1.3510709100842475,-0.6718614427044988,0.08159176661353558
1772536746281349600,0.192349609375,-1.248269291779399,-0.3553627131834626,-0.06820179032634478
1772536746291398400,0.2023984375,-0.9528741405636072,-0.006711188076436519,-0.18059673258177936
1772536746301446700,0.21244677734375,-0.6054945350885391,0.23004151229560374,-0.3650127311907708
1772536746311495400,0.222495361328125,-0.27066636815071105,0.5169847692474723,-0.42221568728331477
1772536746321544700,0.232544677734375,-0.09730477445423602,0.7496309110835194,-0.3855531957205385
1772536746331592400,0.242592529296875,0.011146832436323166,0.7979378458738327,-0.3489906939335167
1772536746341641700,0.252641845703125,0.0564671526312828,0.8304261570245027,-0.3078491207279265
1772536746351690500,0.2626904296875,0.1401829621940851,0.8559419988140463,-0.2745717598251067
1772536746361739500,0.272739501953125,0.23052198928892612,0.8746817705973983,-0.2201889574535191
1772536746371787500,0.28278759765625,0.01736672986447811,0.919751915423572,-0.21969808693034573
1772536746381836500,0.29283642578125,-0.12383856111466884,0.9554217792198061,-0.43321109201759095
1772536746391885600,0.302885498046875,-0.011004793617129326,1.0542591700688004,-0.5929719938522204
1772536746401934600,0.3129345703125,0.047718613508343694,1.0770768588155508,-0.6556369416777044
1772536746411982600,0.322982666015625,-0.1406447344869375,0.9296274127498269,-0.6948074340060353
1772536746422031600,0.333031494140625,-0.4507908801108598,0.7308563602477312,-0.7234735565200447
1772536746432080600,0.34308056640625,-0.5200479562103748,0.588125759397447,-0.8078290522258729
1772536746442129400,0.35312939453125,-0.21090485014915464,0.6010550913363695,-0.801047063935548
1772536746452178400,0.363178466796875,-0.4414724321454763,0.5144707405999303,-0.7647720738530158
1772536746462227500,0.3732275390625,-0.7809475481063127,0.47663668450713154,-0.6529048863653093
1772536746472276500,0.3832763671875,-0.8939338758170604,0.4046414156153798,-0.6986817912213504
1772536746482324500,0.393324462890625,-0.5433388154268265,0.4978732415422797,-0.6861556332558393
1772536746492373500,0.40337353515625,-0.2174649393171072,0.6475801111459731,-0.6606167759168893
1772536746502422300,0.41342236328125,-0.1222147593051195,0.678429422917962,-0.6201020293727517
1772536746512470500,0.423470458984375,-0.034438860696554184,0.6634706309780478,-0.5136996100969612
1772536746522519300,0.433519287109375,0.20500877784788607,0.6037567515105009,-0.40341782863717524
1772536746532568600,0.443568603515625,0.5266431166917085,0.4974178989902138,-0.24744605341982095
1772536746542617300,0.453617431640625,0.6705576666295529,0.3277104438871145,-0.10298267396017909
1772536746552665600,0.46366552734375,0.6456862602233886,0.10021335537731647,0.05145310559524223
1772536746562714400,0.47371435546875,0.5957791967600584,-0.13700842381119727,0.15702919358210637
1772536746572763400,0.483763427734375,0.7367547706365585,-0.2438704234227538,0.09276753288339823
1772536746582812400,0.4938125,0.7950088066846132,-0.3538981935888529,0.16659885809589176
1772536746592860400,0.5038603515625,0.7485621128082275,-0.44543402925282716,0.2197783125597052
1772536746602909400,0.513909423828125,0.6617594431459903,-0.5680021320402622,0.2949554994232021
1772536746612958500,0.52395849609375,0.5968038636326789,-0.5549330993697047,0.25883730733757837
1772536746623006500,0.53400634765625,0.5865817448258399,-0.5291361025512218,0.19041728485040366
1772536746633055500,0.544055419921875,0.5054302327930927,-0.5153907780542969,0.17789560213061048
1772536746643104300,0.554104248046875,0.39880701037347316,-0.47001142114847894,0.12515698676947504
1772536746653153500,0.564153564453125,0.4484393485486507,-0.4590986897289753,0.125485177544225
1772536746663201300,0.574201171875,0.3519710249185562,-0.4666670791566372,0.11169692722102627
1772536746673250600,0.58425048828125,0.2091588832646608,-0.5143067822098731,0.06865410067110787
1772536746683299300,0.59429931640625,0.15752280405163763,-0.5055141116842627,0.026207842641696334
1772536746693347300,0.604347412109375,0.18678923054635524,-0.4805047581121325,-0.009688313324237242
1772536746703396400,0.614396240234375,0.1662128909856081,-0.5118818931505084,0.027511413220665415
1772536746713445400,0.6244453125,0.03245733149051666,-0.5578069012403488,-0.015929356288409326
1772536746723494400,0.634494384765625,0.1941372552216053,-0.5404676439046859,-0.04090113377952948
1772536746733542400,0.64454248046875,0.3684358375072479,-0.5126163449048996,-0.02086085559055209
1772536746743591400,0.65459130859375,0.25861001965403557,-0.5742310895577073,0.03634341339295497
1772536746753640400,0.664640380859375,0.19270634563565253,-0.6124851246282458,0.022489075563603547
1772536746763689200,0.674689208984375,0.3923708398461342,-0.6753688663035631,0.12349183003623038
1772536746773737500,0.684737548828125,0.39875849505662914,-0.7587547132596373,0.24914688425464554
1772536746783786200,0.6947861328125,0.16620704576671122,-0.8724857218578458,0.352809996493347
1772536746793835500,0.70483544921875,0.0827314747005701,-0.8880272821217775,0.29420060766898093
1772536746803883300,0.71488330078125,0.12637830872535705,-0.8815598396733403,0.39373792694825677
1772536746813932500,0.7249326171875,-0.0030897827088832855,-0.8023758283212781,0.40956382057890295
1772536746823981300,0.734981201171875,-0.18957798448204993,-0.8029305395945906,0.33068131292406466
1772536746834030300,0.7450302734375,-0.14992285044193268,-0.705779786658287,0.2745851855622604
1772536746844078300,0.755078369140625,-0.16823358315825462,-0.5573179486796259,0.19019520306494087
1772536746854127400,0.76512744140625,-0.3592512450546026,-0.5047241303503514,0.12587680721031502
1772536746864176400,0.77517626953125,-0.4683382272392511,-0.5201216059684753,0.06091715887666214
1772536746874225400,0.785225341796875,-0.4887772041559219,-0.5268824784055351,0.11031620431919581
1772536746884273400,0.7952734375,-0.6948989116817712,-0.5627271142467856,0.1772965219926089
1772536746894322400,0.805322509765625,-1.0186199936717748,-0.6025938452109694,0.17833487033070997
1772536746904371500,0.815371337890625,-1.1105576881349086,-0.4767378067940473,0.08651576987910084
1772536746914419500,0.82541943359375,-1.0560942765414714,-0.22995237270742652,0.010665697855874895
1772536746924468200,0.83546826171875,-1.1517314100444316,-0.11345628331005572,-0.0022066705982666463
1772536746934517500,0.845517578125,-1.2904612508207558,-0.02795738972276449,-0.03665781538765877
1772536746944566500,0.85556640625,-1.1633347540766,0.1859215078011155,-0.11178920861436054
1772536746954614500,0.865614501953125,-1.0283405926972626,0.4045584135070443,-0.12096422952106221
1772536746964663300,0.875663330078125,-0.9603525136202573,0.5305068063825369,-0.09013073637271299
1772536746974712300,0.88571240234375,-0.7993985660761594,0.5914034658938646,-0.009664795451331884
1772536746984760300,0.89576025390625,-0.6810071644514799,0.5881710598438978,0.08314776388388126
1772536746994809300,0.905809326171875,-0.5813572881758212,0.5241510076150298,0.1585682579839602
1772536747004858400,0.9158583984375,-0.4711667286634445,0.46812487674951553,0.22888225925788283
1772536747014907400,0.925907470703125,-0.3504991988003254,0.4140171467259526,0.30280140888430174
1772536747024955400,0.935955322265625,-0.25849954501688477,0.36202480142116544,0.36642493607625365
1772536747035004400,0.94600439453125,-0.26268822887837884,0.387635920278728,0.3853658199222758
1772536747045053400,0.956053466796875,-0.22062135752141473,0.48345367104560133,0.33478078413214535
1772536747055101400,0.966101318359375,-0.037647301349043844,0.6049927230462432,0.2508078945357352
1772536747065150500,0.976150390625,0.1341273154169321,0.7154284894913434,0.22816099577862767
1772536747075199500,0.986199462890625,0.26979893766641616,0.7677481670543551,0.27606435473673047
1772536747085248500,0.99624853515625,0.39611762515902516,0.8164411785528063,0.3247594485944137
1772536747095296300,1.006296142578125,0.4994558345586061,0.8683537366196513,0.3758348617173731
1772536747105345500,1.016345458984375,0.5782558150291442,0.834150145983696,0.43441871424168343
1772536747115394300,1.026394287109375,0.5814093106240034,0.7662289946630597,0.4807219079941511
1772536747125443600,1.036443603515625,0.6114695178449153,0.7386547590389847,0.604512684444338
1772536747135491300,1.0464912109375,0.6438198818296194,0.69121788508147,0.7021334660451859
1772536747145540400,1.056540283203125,0.48861412254869935,0.6724813281685114,0.7506991248369217
1772536747155589400,1.06658935546875,0.3848497966915369,0.6450172749206423,0.7470390679594129
1772536747165637400,1.076637451171875,0.3846569044679403,0.6762608467072249,0.7447034646186977
1772536747175686400,1.086686279296875,0.24664134944081306,0.7195347557663917,0.7129759087074548
1772536747185735400,1.0967353515625,0.09911386970281601,0.6879349178880453,0.6572028758201748
1772536747195784400,1.106784423828125,0.11129764397144316,0.6473664683952928,0.6429521590843796
1772536747205832400,1.11683251953125,0.13926292473971844,0.6428598046258092,0.6137075060300529
1772536747215881500,1.126881591796875,0.08253390630185603,0.5994885726720094,0.5594555452302098
1772536747225930500,1.136930419921875,0.03316109584569931,0.5738146177113056,0.5841038469376042
1772536747235978200,1.146978271484375,-0.09670680856108665,0.5988283551976085,0.6268707197900861
1772536747246027500,1.157027587890625,-0.1818020897835493,0.588954026915133,0.6191604376737028
1772536747256076300,1.167076171875,-0.18526012128293512,0.6208095931202173,0.5378052197623998
1772536747266125600,1.17712548828125,-0.09768822081387042,0.6843383547008037,0.4578091979077086
1772536747276173300,1.18717333984375,-0.00807400086224079,0.708527039539814,0.40258886699974533
1772536747286222300,1.197222412109375,0.09061609047055244,0.6713260206535459,0.3141428871098906
1772536747296271400,1.207271240234375,0.1795809066027403,0.6408563558489084,0.3220280143365264
1772536747306319400,1.2173193359375,0.16938801389038563,0.5342772648319601,0.43355190481189637
1772536747316368400,1.227368408203125,0.1729839925557375,0.34938188520818947,0.5469105729663745
1772536747326417400,1.23741748046875,0.2968617166370153,0.22251637748777864,0.5611951919717714
1772536747336466400,1.247466552734375,0.4709089545100927,0.09061258333921432,0.627921836278215
1772536747346514400,1.257514404296875,0.4373147279441356,-0.0727516402170062,0.7008120812483132
1772536747356563500,1.2675634765625,0.47085985467135905,-0.24705723676532507,0.686519425066933
1772536747366612500,1.277612548828125,0.6544611028313636,-0.32023090178668495,0.6593647300291806
1772536747376661200,1.2876611328125,0.7739946602284908,-0.33813217691928144,0.6704927116345614
1772536747386709500,1.29770947265625,0.7722855182230473,-0.4039870433598757,0.6459875081922859
1772536747396758300,1.30775830078125,0.7301449971079826,-0.4324322165995836,0.6425260426267981
1772536747406807300,1.317807373046875,0.7542331441819667,-0.4358996004492044,0.6158803930897265
1772536747416855300,1.327855224609375,0.7718757683783769,-0.43711774406731124,0.5776877693502233
1772536747426904300,1.337904296875,0.7076403198331594,-0.49694122138917446,0.5667799333015456
1772536747436953300,1.347953369140625,0.6234837807655335,-0.5706532310709357,0.5886587337629869
1772536747447002600,1.358002685546875,0.6162193427205085,-0.6123001234501599,0.6197771082673221
1772536747457050600,1.368050537109375,0.560641247883439,-0.6378691567316651,0.6561125963654368
1772536747467099600,1.378099609375,0.45570612468123434,-0.6328451910898089,0.6642410308286547
1772536747477148400,1.3881484375,0.34350714795589443,-0.5903226849198341,0.6754443426925688
1772536747487196700,1.39819677734375,0.3589671674162149,-0.5684639043331146,0.6289313786469399
1772536747497245400,1.408245361328125,0.4003279363304376,-0.5779483565151691,0.5842295191438869
1772536747507294700,1.418294677734375,0.3452566219717264,-0.6459104243680834,0.5663744212405756
1772536747517343500,1.428343505859375,0.1830570582807064,-0.744704268336296,0.6247455443296581
1772536747527391700,1.438391845703125,-0.08908230503201484,-0.8417974458664655,0.6741429047051817
1772536747537440500,1.4484404296875,-0.3162637517213821,-0.8870432395204901,0.6400966965880245
1772536747547489500,1.458489501953125,-0.3715717974454164,-0.9190984199509024,0.6386095267701893
1772536747557537500,1.46853759765625,-0.4931231244057417,-0.8378250351041555,0.5575751017784699
1772536747567586600,1.478586669921875,-0.6048463003128767,-0.7192956863135099,0.4361738508133217
1772536747577635600,1.488635498046875,-0.6164630883485078,-0.6432791990816593,0.4012027829362079
1772536747587684600,1.4986845703125,-0.6773270146340131,-0.6062447689339518,0.46095502165276553
1772536747597732600,1.508732666015625,-0.6866250043332577,-0.7319038234740495,0.5914682016931474
1772536747607781600,1.51878173828125,-0.926409912008047,-0.8446355919018387,0.6572630085095763
1772536747617830700,1.52883056640625,-1.3166191899061201,-0.7523448462173342,0.5924158212741837
1772536747627879700,1.538879638671875,-1.5917688409507273,-0.45745998261123894,0.39851763550546015
1772536747637927400,1.548927490234375,-1.4907430001467465,-0.23861060319840907,0.0951142969389446
1772536747647976700,1.558976806640625,-1.2033902856111527,-0.09539806405007839,-0.13473366554593666
1772536747658025700,1.569025634765625,-0.9774000945329665,0.10927899762541055,-0.2931475001531653
1772536747668073700,1.57907373046875,-0.8100444632530212,0.22949586111158132,-0.3318415888750925
1772536747678122500,1.58912255859375,-0.6630337008655071,0.21166355956196783,-0.3860602319272235
1772536747688171500,1.599171630859375,-0.6630167497307061,0.20868980444818733,-0.2650538072322495
1772536747698220800,1.609220703125,-0.6469710393369198,0.08283990351110697,-0.18489161676410584
1772536747708268500,1.6192685546875,-0.621311697423458,-0.0016360767692327497,-0.15669407987622544
1772536747718317800,1.62931787109375,-0.5988292319804429,-0.002432487843930721,-0.16403430483750997
1772536747728366600,1.63936669921875,-0.6015659634679555,0.0616848872795701,-0.2263218889842741
1772536747738414600,1.64941455078125,-0.5516542238295078,0.2075184225812554,-0.3496472581461072
1772536747748463600,1.659463623046875,-0.4357949710309505,0.419145157264173,-0.5692955328516662
1772536747758512600,1.6695126953125,-0.25790976243019104,0.6132572780445218,-0.8029936679586768
1772536747768561700,1.679561767578125,-0.09630582654476165,0.7461445302724837,-0.8959196428067981
1772536747778609700,1.689609619140625,0.07156359947621822,0.7902607353746891,-0.9200500946525484
1772536747788658700,1.69965869140625,0.20504560272693634,0.762334325312078,-0.9178438167799263
1772536747798707700,1.709707763671875,0.314020356708765,0.6816206201747059,-0.8448995766002685
1772536747808755700,1.719755615234375,0.40719899114370345,0.5082058349862695,-0.72743391151838
1772536747818804700,1.7298046875,0.3718891928315162,0.31985476195067164,-0.6031864773418754
1772536747828853500,1.739853515625,0.31059330486953257,0.14285276592522858,-0.5445061787057668
1772536747838902800,1.74990283203125,0.426379492431879,0.003039513826370239,-0.5772623104797676
1772536747848950500,1.759950439453125,0.47940030400156974,0.07939034757912158,-0.608974084299989
1772536747858999800,1.769999755859375,0.40929917829334733,0.23137013055086134,-0.5264857341729104
1772536747869048600,1.780048583984375,0.45740766790211196,0.00874415520876646,-0.6905081293769181
1772536747879097600,1.79009765625,0.5460241089880467,0.0114677349537611,-0.6727206168171018
1772536747889145600,1.8001455078125,0.5165449165254831,-0.0160536014392972,-0.6160824915330857
1772536747899194600,1.810194580078125,0.5438689767807722,-0.0943275122091174,-0.5689307546598836
1772536747909243600,1.82024365234375,0.6107774439275264,-0.13716127628535033,-0.5650913956927135
1772536747919291600,1.830291748046875,0.5341863716781139,-0.270772751134634,-0.5277446116602048
1772536747929340700,1.840340576171875,0.4279617931872606,-0.354352951619029,-0.44271863281428814
1772536747939389700,1.8503896484375,0.4911468558967113,-0.3957409008011222,-0.46830808782931416
1772536747949438500,1.8604384765625,0.48124213247597214,-0.38078649277538057,-0.34312845083661375
1772536747959486700,1.87048681640625,0.4500567206174135,-0.46774873691350216,-0.41507217220421877
1772536747969535500,1.880535400390625,0.482665443277359,-0.472883469453454,-0.40623770836349576
1772536747979584800,1.890584716796875,0.5084966346263885,-0.4403320299386978,-0.38670379052776843
1772536747989632500,1.900632568359375,0.50674073086977,-0.48923780740499495,-0.4239927434258163
1772536747999681800,1.910681884765625,0.5586351687580347,-0.53895870064646,-0.4572928093507886
1772536748009730600,1.92073046875,0.5784551369935274,-0.5719955855906009,-0.42707565800249575
1772536748019779600,1.930779541015625,0.4915133511215448,-0.6586135463356971,-0.40486265715062614
1772536748029827600,1.94082763671875,0.5006482592135667,-0.7369339265957474,-0.3609962255584076
1772536748039876600,1.950876708984375,0.5466852032452821,-0.7958142778486013,-0.3318627412609756
1772536748049925600,1.960925537109375,0.5478144995361566,-0.842398918890953,-0.3012027963149361
1772536748059973600,1.9709736328125,0.5404547844231128,-0.8867311048313975,-0.2497634269841015
1772536748070022700,1.981022705078125,0.48867199021577834,-0.8841650537356733,-0.23419879637183622
1772536748080071700,1.99107177734375,0.46242286571562286,-0.8536500884845852,-0.21386998356506226
1772536748090120400,2.001120361328125,0.4795703998714685,-0.8299412961170077,-0.2675776814203709
1772536748100168700,2.011168701171875,0.5171703549474478,-0.8012026928886771,-0.29365857321415095
1772536748110217500,2.021217529296875,0.525551229801774,-0.8190469771370291,-0.32854656591769305
1772536748120266800,2.031266845703125,0.5168149656385183,-0.8402963936537504,-0.32828294654544443
1772536748130315500,2.0413154296875,0.43700142421126364,-0.8811173566028475,-0.32020927447676656
1772536748140363800,2.05136376953125,0.39930736111104487,-0.8940960806414484,-0.35560262288656086
1772536748150412500,2.06141259765625,0.4532575624853372,-0.8905386804208159,-0.3320300606518984
1772536748160461600,2.071461669921875,0.5316033694475889,-0.9096431938633323,-0.27172058991137893
1772536748170509600,2.081509521484375,0.567293691509962,-0.9922679933190345,-0.20499005488110705
1772536748180558600,2.09155859375,0.576400542551279,-1.0835513155266643,-0.1513709394915495
1772536748190607600,2.101607666015625,0.4895236386090517,-1.1372829057142138,-0.06701913358015008
1772536748200656600,2.11165673828125,0.3016507044792175,-1.2095967390358446,-0.04848886722847819
1772536748210704600,2.12170458984375,0.2746633288323879,-1.2438707645595073,-0.09872627689102664
1772536748220753700,2.131753662109375,0.2694143222630024,-1.229443595278263,-0.04344654394602403
1772536748230802400,2.141802490234375,0.09921733007729053,-1.2506257917776704,-0.0430068373545073
1772536748240850700,2.1518505859375,0.01573591379225254,-1.2311384164974093,-0.07066684243273921
1772536748250899500,2.1618994140625,-0.09764029001891612,-1.1655804871767759,-0.0530965710864868
1772536748260948700,2.17194873046875,-0.31914427559375763,-1.109236376403272,-0.09770301652420312
1772536748270997500,2.18199755859375,-0.4723527235776186,-1.052555288760364,-0.15190408738702535
1772536748281045800,2.192045654296875,-0.5486912823706865,-0.9412579370498657,-0.19226216379841787
1772536748291094500,2.202094482421875,-0.4920142863810062,-0.9033987465158104,-0.12145894510229117
1772536748301143600,2.2121435546875,-0.4516670784235,-0.9786825355589389,0.019476863019401207
1772536748311191600,2.222191650390625,-0.7303963415205478,-0.9297478242591023,0.12005903344280086
1772536748321240600,2.232240478515625,-1.0041256043732165,-0.8225751512631774,0.18029654405880718
1772536748331289600,2.24228955078125,-1.0769061784237624,-0.7230804655492306,0.2081867137642577
1772536748341338600,2.252338623046875,-1.0693202533394097,-0.5817348893165588,0.14947756349300034
1772536748351386600,2.26238671875,-1.1744658044219016,-0.3947925140351057,0.0689647603557445
1772536748361435600,2.272435546875,-1.3646750725448131,-0.1628551049903035,-0.034790715474681926
1772536748371484400,2.282484375,-1.4152934991478918,0.09438391857147216,-0.1834304581703618
1772536748381532700,2.29253271484375,-1.2481021185189485,0.3371387819677591,-0.20992069795001297
1772536748391581400,2.30258154296875,-0.9721972651928663,0.46325230227708813,-0.30857115139216185
1772536748401630700,2.312630615234375,-0.8416179976463317,0.6851721751764416,-0.15817366917580364
1772536748411679700,2.3226796875,-0.7622498618990182,0.7695520016059278,-0.060056199232349165
1772536748421727700,2.332727783203125,-0.5636854378849268,0.8269546815216541,-0.022565513217123224
1772536748431776500,2.342776611328125,-0.32399580727815624,0.8653045781821012,0.12478663735343143
1772536748441825500,2.352825439453125,-0.16719605680406094,0.7780974193722009,0.36154344764500856
1772536748451876600,2.362876708984375,-0.15696984634399413,0.665549775339663,0.5322579608988016
1772536748461925600,2.372925537109375,-0.16989537889063358,0.6075266254380345,0.6371157810810953
1772536748471974700,2.382974609375,-0.060471712097525596,0.6358762293487786,0.6541373507697135
1772536748482023400,2.3930234375,0.06483049182891845,0.7008142732053995,0.6176291364531964
1772536748492071700,2.40307177734375,0.12878420082330702,0.7657195838361978,0.555649577075988
1772536748502120400,2.413120361328125,0.14005202929079533,0.8087292890012264,0.4707355341719463
1772536748512169500,2.42316943359375,0.15416881744861602,0.8814984648749232,0.4419265691211447
1772536748522218500,2.433218505859375,0.21122867527604103,0.9042623776078224,0.38932007397338747
1772536748532266500,2.4432666015625,0.24217501768171787,0.8658400002330541,0.4329984721802175
1772536748542315500,2.4533154296875,0.23052958807349203,0.7769526332512497,0.4854417030576616
1772536748552364500,2.463364501953125,0.22778467327952384,0.6616138971954584,0.5861943164108321
1772536748562412500,2.47341259765625,0.24459902995824812,0.5228571684122085,0.7173783083848655
1772536748572461600,2.483461669921875,0.1651058065265417,0.3924611484780907,0.8160810400035232
1772536748582510600,2.493510498046875,0.07323182494938373,0.3381318846583366,0.8600820942934602
1772536748592559600,2.5035595703125,0.05245148724913597,0.3652493164256215,0.8385347177434712
1772536748602607600,2.513607666015625,0.07866437139213085,0.45247868706732985,0.7418719675198197
1772536748612656600,2.52365673828125,0.005693827727437019,0.5390647913694382,0.6488196628782897
1772536748622705400,2.533705322265625,-0.0925216318309307,0.6348793272659182,0.5245194025360047
1772536748632753700,2.543753662109375,-0.051688686183094974,0.7503545491829514,0.38264224017728116
1772536748642802400,2.553802490234375,0.04065642003715038,0.8113672362893819,0.3316603140240535
1772536748652851500,2.5638515625,0.09055822280347346,0.7922635996297002,0.2884518348839134
1772536748662900500,2.573900390625,0.19609891068339347,0.7427361831337214,0.29245628475230184
1772536748672948500,2.583948486328125,0.39463527764677997,0.7018190663337707,0.32084253087900577
1772536748682997500,2.59399755859375,0.5939928978651762,0.6241092191874981,0.3862883050620556
1772536748693046500,2.604046630859375,0.7417302209615707,0.4743821835786104,0.47604481956120576
1772536748703094500,2.614094482421875,0.8582990833342075,0.32516163618713617,0.5905161981979384
1772536748713143600,2.6241435546875,0.9732815532982348,0.20467443132698535,0.6608141251198947
1772536748723192600,2.634192626953125,1.029268813458085,0.10170271715223789,0.6718830700144172
1772536748733241600,2.64424169921875,0.9904986455589532,-0.005869476555287838,0.6522974950566888
1772536748743289300,2.654289306640625,1.0110486816346644,-0.11078969444930553,0.5746793082492425
1772536748753338600,2.664338623046875,1.0719874267220497,-0.1530818989947438,0.5458829469516873
1772536748763387400,2.674387451171875,0.6774310595303773,-0.24970102927237747,0.6154003544878214
1772536748773435600,2.684435546875,0.7301432435423135,-0.34518063412606714,0.586163446348533
1772536748783484400,2.694484375,0.8625514800816774,-0.3258282834023237,0.5197330815749243
1772536748793533400,2.704533447265625,0.6545131252795457,-0.3825923731535673,0.43279330499693747
1772536748803582700,2.714582763671875,0.4620172075241804,-0.3994830099388957,0.5028007245397195
1772536748813630500,2.72463037109375,0.35163141770064826,-0.41663638931363817,0.4501056012604385
1772536748823679500,2.734679443359375,0.38063831647634505,-0.4454474732562899,0.3961833108063787
1772536748833728500,2.744728515625,0.40961248202621936,-0.4975333420634269,0.39514410395175215
1772536748843777500,2.754777587890625,0.3385024715363979,-0.5844862338513136,0.4789964724410325
1772536748853825500,2.764825439453125,0.20072247883081434,-0.7012582175806165,0.5595866973292082
1772536748863874600,2.77487451171875,0.09723930800259113,-0.7655711152762175,0.6109198846055195
1772536748873923600,2.784923583984375,-0.015407997012138366,-0.7824196664854883,0.6078842797692865
1772536748883971300,2.794971435546875,-0.08133388286232948,-0.8067360693573952,0.6103032140119001
1772536748894020600,2.8050205078125,-0.07202069559395313,-0.8316592059507966,0.6280966083232313
1772536748904069600,2.815069580078125,-0.1260410395950079,-0.8650959038674831,0.6726834266118705
1772536748914118700,2.82511865234375,-0.216706229904294,-0.8736723012939095,0.6679010877061635
1772536748924166400,2.83516650390625,-0.32599311857521535,-0.8559098501101136,0.6400875634334982
1772536748934215400,2.84521533203125,-0.4278478114187717,-0.8436553486928343,0.6451534685209394
1772536748944264700,2.8552646484375,-0.49915012961030003,-0.8266776181459426,0.6163461109053343
1772536748954312400,2.8653125,-0.5392775573372841,-0.7966232561439275,0.6093425888188183
1772536748964361700,2.87536181640625,-0.5563970344424247,-0.7277025723919271,0.5859034071728587
1772536748974410500,2.885410400390625,-0.5432043753921986,-0.6487801345854998,0.5502996674153954
1772536748984459500,2.89545947265625,-0.5682008694827556,-0.588731908597052,0.534481372569315
1772536748994507500,2.905507568359375,-0.6213298176020383,-0.5453147916749119,0.4523593715365976
1772536749004556500,2.915556640625,-0.6352478683173656,-0.43170682493448254,0.3008885610003024
1772536749014605600,2.92560546875,-0.5272966121643782,-0.34317718534916636,0.16486246275734157
1772536749024653300,2.9356533203125,-0.3492079899460077,-0.312450038652122,0.0794434477395378
1772536749034702600,2.94570263671875,-0.327597631162405,-0.3266749633595347,0.098219021488633
1772536749044751600,2.955751708984375,-0.5281763176083565,-0.2753822907567024,0.09342979618441313
1772536749054800400,2.96580029296875,-0.7059405301779508,-0.20221330191046,0.08986706220153719
1772536749064848600,2.9758486328125,-0.7576601960211992,-0.13869710755050182,0.09891160686267539
1772536749074897400,2.9858974609375,-0.7108961067587137,-0.08706190512031316,0.02726548020215705
1772536749084946700,2.99594677734375,-0.6063707334011793,-0.012291034035384655,-0.05391144026648253
1772536749094995500,3.005995361328125,-0.7990940301716327,0.1428717628866434,0.025759660482779143
1772536749105043700,3.016043701171875,-0.8307885605961084,0.1713219045624137,-0.29593320361524816
1772536749115092500,3.026092529296875,-0.7031640512019396,0.2937958993256092,-0.27784199540112164
1772536749125141500,3.0361416015625,-0.6503109974145889,0.3978261826425791,-0.23149993094298987
1772536749135189500,3.046189453125,-0.4612538219362497,0.3781713418409228,-0.27697653767820446
1772536749145238500,3.056238525390625,-0.11317045210599899,0.5149120546266436,-0.32873887361939996
1772536749155287600,3.06628759765625,0.2018453453809023,0.5781263434305787,-0.21018935882356016
1772536749165336600,3.076336669921875,0.23992577745020388,0.5285884055405855,-0.13638517734631894
1772536749175384600,3.086384521484375,0.09180617703795432,0.5414683453798294,-0.0039366818618029355
1772536749185433600,3.09643359375,-0.11942132919430733,0.5210214774176478,0.16663818545928225
1772536749195482400,3.106482421875,-0.1370458332121372,0.45040012722760436,0.18000676733199505
1772536749205530600,3.116530517578125,0.003972410762310028,0.44010698901116846,0.06418368182536215
1772536749215579400,3.126579345703125,-0.06048574062287807,0.4681777759805321,-0.002580846806056797
1772536749225628700,3.136628662109375,-0.24042028296887874,0.4378749921754002,-0.0941303822018206
1772536749235677400,3.146677490234375,-0.36028526427745816,0.4210819705456495,-0.22788115592394023
1772536749245725700,3.1567255859375,-0.3803881411075592,0.4412184573844075,-0.34529812302589413
1772536749255774500,3.1667744140625,-0.4217576778501272,0.4594575861692428,-0.45316721732076254
1772536749265823500,3.176823486328125,-0.5032955588519573,0.4598348950490355,-0.5357349162943661
1772536749275871500,3.18687158203125,-0.5974877542436122,0.39959260779321193,-0.5348122484914958
1772536749285920500,3.19692041015625,-0.6361819342970848,0.3486664304152131,-0.5201061526710167
1772536749295969500,3.206969482421875,-0.5285504116177558,0.32912790946960446,-0.5367335719428956
1772536749306018600,3.2170185546875,-0.3337731049269438,0.40952480374276634,-0.5311497804611921
1772536749316066600,3.227066650390625,-0.22837211777865885,0.4675517530366778,-0.5025472977679223
1772536749326115600,3.237115478515625,-0.056278936582803724,0.505116344538331,-0.49624140255674715
1772536749336164400,3.247164306640625,0.259905320161581,0.5262123240590095,-0.4621211793553084
1772536749346212600,3.257212646484375,0.5229705656588077,0.49918110927045345,-0.3978178166730329
1772536749356261400,3.267261474609375,0.5961076980620622,0.3517626428648829,-0.34965324949547644
1772536749366310700,3.277310546875,0.6321154155105352,0.1985468883574009,-0.2842174487171695
1772536749376359400,3.287359375,0.7108855853646994,0.057359425295889374,-0.2031544186854735
1772536749386407700,3.29740771484375,0.7512824776828289,-0.06843085440844297,-0.1525747897228226
1772536749396456400,3.30745654296875,0.6859761850357056,-0.19699936665445564,-0.0856066648107022
1772536749406505500,3.31750537109375,0.6548287670999765,-0.29151188004165884,-0.026262933829799294
1772536749416553500,3.327553466796875,0.6527239037752152,-0.2816530415892601,0.006318919089529663
1772536749426602500,3.3376025390625,0.6506488510668277,-0.24649025053232906,-0.03912033304367214
1772536749436651500,3.347651611328125,0.676521543470025,-0.2268359942525625,-0.10955008791806176
1772536749446697000,3.357697021484375,0.6032599079042673,-0.2105669964969158,-0.13933754261219874
1772536749456745000,3.367744873046875,0.5612748696118592,-0.25229601420164105,-0.23154698495510964
1772536749466794000,3.3777939453125,0.6198842949688435,-0.3078837536498904,-0.2724683943376876
1772536749476843000,3.387843017578125,0.668703563195467,-0.3578124444231391,-0.2785669669411145
1772536749486891000,3.39789111328125,0.6053431439191103,-0.41569764715880153,-0.23836037303069604
1772536749496939800,3.407939697265625,0.5820932012349367,-0.4815618659496307,-0.21897846741890534
1772536749506989000,3.417989013671875,0.6077993048995733,-0.5262172924950719,-0.12778348108185456
1772536749517037800,3.428037841796875,0.5676344677716493,-0.5976797696843743,-0.08413788916608318
1772536749527086000,3.438086181640625,0.5647866771250963,-0.6699333972513676,-0.032171153226587916
1772536749537134800,3.448134765625,0.5389724369108677,-0.7102499178096652,-0.005796520916931331
1772536749547183900,3.458183837890625,0.5378922404587269,-0.6559659544363617,-0.05028815346909687
1772536749557231900,3.46823193359375,0.45216041489839554,-0.6970677801534533,0.01726631083046086
1772536749567281000,3.478281005859375,0.3033908261448145,-0.6540618743807077,0.0037911541775800285
1772536749577330000,3.488329833984375,0.1910387046843767,-0.6619996816426515,0.0054500455668196075
1772536749587379000,3.49837890625,0.08550210845768451,-0.6539563681796192,0.011277144285105168
1772536749597427000,3.508427001953125,-0.12152736156284809,-0.6312982539087534,-0.008823650185763835
1772536749607476000,3.51847607421875,-0.2478951488941908,-0.5761573814451694,-0.06573529518153517
1772536749617524700,3.528524658203125,-0.31386078223288055,-0.4728735325813293,-0.1319299880357459
1772536749627573000,3.538572998046875,-0.43456864410638807,-0.40019875699281693,-0.20303526755152268
1772536749637621800,3.548621826171875,-0.61090136256814,-0.285260126170516,-0.3080377386352047
1772536749647671000,3.558671142578125,-0.6987672775477171,-0.125276192702353,-0.3273190699493512
1772536749657719800,3.5687197265625,-0.6560363893240689,-0.15108926387280225,-0.44116811543665824
1772536749667768000,3.57876806640625,-0.3879974470674991,-0.08857143290042876,-0.5111057942114771
1772536749677816800,3.58881689453125,-0.34371114609539505,-0.032417584002017975,-0.3619340543977916
1772536749687865900,3.598865966796875,-0.3831453308612108,-0.2824456532716751,-0.25891972492402415
1772536749697913900,3.608913818359375,-0.4630483041375875,-0.4707981876119971,-0.08575933462176472
1772536749707963000,3.618962890625,-0.6958434990555048,-0.49472822151482104,0.059934152888413514
1772536749718012000,3.629011962890625,-0.8393570669770241,-0.5467547613501549,0.16140600216053425
1772536749728061000,3.63906103515625,-0.7755670241117477,-0.6161275727838278,0.22560373077755794
1772536749738109000,3.64910888671875,-0.739823510557413,-0.5367857405215501,0.2046953827834688
1772536749748158000,3.659157958984375,-0.8027958072990179,-0.3373120927080512,0.11849274310730397
1772536749758206700,3.669206787109375,-0.9100099813491106,-0.1344102240115404,0.04908960960060358
1772536749768256000,3.679256103515625,-0.9303525121539831,0.031282150231301785,-0.04238156332932412
1772536749778303700,3.6893037109375,-0.8648030584007501,0.21556290508806705,-0.12027272185925393
1772536749788353000,3.69935302734375,-0.7627098806262016,0.3721747317746281,-0.1804634615909308
1772536749798401800,3.70940185546875,-0.704656920108199,0.4656140629723668,-0.20734964188560842
1772536749808450000,3.719449951171875,-0.6521732841551303,0.482529249677062,-0.16359500010479242
1772536749818498800,3.729498779296875,-0.6775503019958734,0.42694004892408843,-0.06254117531534284
1772536749828547800,3.7395478515625,-0.6104296534031629,0.33904899950325484,0.036988691309839485
1772536749838596900,3.749596923828125,-0.5238543627560138,0.30469167961031196,0.1497712400767952
1772536749848644900,3.759644775390625,-0.5645663123726844,0.2830418655991554,0.18628562840577215
1772536749858694000,3.76969384765625,-0.5299468344122171,0.31658816137015816,0.23451547937188297
1772536749868743000,3.779742919921875,-0.4634504551976919,0.34662381867170333,0.29145189348272976
1772536749878791000,3.789791015625,-0.3249918325781822,0.4514478827148676,0.31736407764609903
1772536749888840000,3.79983984375,-0.18102876732349393,0.5831707673385739,0.31345026520323005
1772536749898888700,3.809888671875,-0.14185060314536094,0.7103165533050895,0.31166115329675376
1772536749908938000,3.81993798828125,-0.10555179379582405,0.8081085267543793,0.3153512399863452
1772536749918985700,3.82998583984375,0.010887304717302322,0.8507242641657591,0.3404183881603181
1772536749929035000,3.840034912109375,0.09900281054377555,0.844506412564218,0.4345122012114152
1772536749939083800,3.850083740234375,0.16820494158565996,0.8025128987044096,0.4979657786639407
1772536749949132000,3.860132080078125,0.2424783845424652,0.7621522467434406,0.5662011105002835
1772536749959180800,3.870180908203125,0.32237551259994507,0.7097787931665778,0.5972267286872491
1772536749969229800,3.880229736328125,0.40638825928270816,0.6428104125261307,0.6233990250915289
1772536749979279000,3.890279052734375,0.432023051276803,0.5665761908903718,0.6879369637146592
1772536749989326800,3.900326904296875,0.37292964179515836,0.46240883719027037,0.7715170180685818
1772536749999376000,3.9103759765625,0.16694237430393694,0.3912783684343099,0.8188349418215453
1772536750009425000,3.9204248046875,0.04577157109379768,0.4201251082122326,0.8058687850035726
1772536750019473000,3.930472900390625,0.036090135034918785,0.4828583355009555,0.7410217804312705
1772536750029522000,3.94052197265625,-0.03733750474750996,0.5465408263385295,0.6225783563584089
1772536750039570700,3.95057080078125,-0.12680442518293858,0.6231605401605367,0.5053441619448363
1772536750049620000,3.960619873046875,-0.09000409605205059,0.7007058443948626,0.4081168001083657
1772536750059667700,3.970667724609375,-0.005274725532531738,0.7692875054508447,0.3164913499321788
1772536750069717000,3.980717041015625,0.04690554355978965,0.7780734539747237,0.3609640037892386
1772536750079766000,3.99076611328125,0.12753332397937775,0.7619412343412637,0.3958087053403258
1772536750089814000,4.00081396484375,0.13031857078373432,0.7264861823394895,0.4874687153732404
1772536750099862800,4.01086279296875,0.31016368128061295,0.7191621230617166,0.44692536378912623
1772536750109911800,4.020911865234375,0.4500777634054422,0.682085022816062,0.5097315101835876
1772536750119961000,4.030961181640625,0.45836160762608047,0.5665379047065973,0.5962859407057985
1772536750130008800,4.0410087890625,0.43445057068467136,0.44695641651451584,0.6370991952724755
1772536750140058000,4.05105810546875,0.4561211352229118,0.34024610033333297,0.701855891212821
1772536750150107000,4.06110693359375,0.45924774281084535,0.24778584330081938,0.7740453675024211
1772536750160155000,4.07115478515625,0.5051590146362781,0.19972002379000187,0.7693645892750471
1772536750170204000,4.081203857421875,0.5739677624464035,0.2107607655033469,0.7500996245738119
1772536750180253000,4.0912529296875,0.6382610786587,0.20013240398317575,0.7218417175345122
1772536750190302000,4.101302001953125,0.6720610569298267,0.19306874920725822,0.6508369209848344
1772536750200349700,4.111349609375,0.6522668076574802,0.15818857448399065,0.5849668935077265
1772536750210399000,4.12139892578125,0.7169815641522407,0.07777326777130365,0.5890917548853903
1772536750220448000,4.131447998046875,0.7560691274374723,-0.022644962528347967,0.5954367399979382
1772536750230496000,4.14149609375,0.6980979999840259,-0.15262158800661563,0.6457793453343212
1772536750240545000,4.151544921875,0.6180412974506616,-0.3148565152719617,0.7206339491799474
1772536750250593800,4.16159375,0.5786065281629562,-0.4851560910493135,0.8069950856197625
1772536750260643000,4.17164306640625,0.5800830304563045,-0.6539370789572596,0.877635871162638
1772536750270690800,4.18169091796875,0.5506137748658657,-0.757116006141901,0.903187880244106
1772536750280740000,4.191739990234375,0.5205927306115627,-0.8061386879861354,0.9198070066116749
1772536750290788900,4.201788818359375,0.4337035517096519,-0.8331982520863414,0.9113793700061738
1772536750300837000,4.211837158203125,0.2866425204396248,-0.849974614842236,0.9125655841160565
1772536750310886000,4.221885986328125,0.1742506514906883,-0.8557160811036825,0.8584868609912693
1772536750320935000,4.231934814453125,0.1152566107302904,-0.8497685708761215,0.7828573272503911
1772536750330984000,4.24198388671875,-0.02250117014348507,-0.8394009061187505,0.7274296006694435
1772536750341032000,4.252031982421875,-0.2370095977425575,-0.8259338140413165,0.6901359350636601
1772536750351081000,4.2620810546875,-0.4374643655478954,-0.8177318028852343,0.6455805348265916
1772536750361130000,4.2721298828125,-0.5574444976687432,-0.773708829024434,0.5391259835047647
1772536750371178000,4.282177978515625,-0.5798626657038927,-0.6862216842293739,0.44813678540550167
1772536750381227000,4.29222705078125,-0.6006605390608311,-0.6037319093301892,0.41830552810225635
1772536750391275800,4.30227587890625,-0.6666957305043936,-0.5317240732178091,0.35287264993339773
1772536750401325000,4.312324951171875,-0.6315571971058845,-0.4839347325608134,0.3304905030597001
1772536750411372800,4.322372802734375,-0.5691442878127098,-0.386003935162723,0.34895836256649343
1772536750421422000,4.332422119140625,-0.5290735587090254,-0.33009120154380794,0.36171043824236837
1772536750431470800,4.342470947265625,-0.5776876597523689,-0.2762508902847767,0.35809922547526657
1772536750441519000,4.35251904296875,-0.6660264529407024,-0.1984977885186672,0.3322001565217972
1772536750451568000,4.362568115234375,-0.7167997778445482,-0.2156052829250693,0.3497148434896022
1772536750461617000,4.372616943359375,-0.7836556380212306,-0.2714668708786368,0.35293208850305524
1772536750471666200,4.382666259765625,-0.8216782024234532,-0.30100510005205866,0.2679227319983765
1772536750481714000,4.3927138671875,-0.7603226932287216,-0.30041414842158554,0.23038305574227122
1772536750491763200,4.40276318359375,-0.829377524754405,-0.31655338231772184,0.19272874013055113
1772536750501812000,4.41281201171875,-0.9496633618235587,-0.38546822085082527,0.16026380985546856
1772536750511860200,4.422860107421875,-0.8910212032407522,-0.46059594254940744,0.061382981723546975
1772536750521909000,4.432908935546875,-0.7270826869279146,-0.4816200258776545,-0.02433079672344029
1772536750531958000,4.4429580078125,-0.5957604920595884,-0.42125031284987924,-0.08980846388209611
1772536750542007000,4.453007080078125,-0.5056897605121136,-0.3575508708775043,-0.12441698205713182
1772536750552055000,4.463054931640625,-0.43056174655258656,-0.29772300964146853,-0.16053860820885746
1772536750562104000,4.47310400390625,-0.35563188551366326,-0.19581454078406094,-0.1893819869859144
1772536750572153000,4.483153076171875,-0.21213936038017273,-0.05588321526348591,-0.24756840115785597
1772536750582201000,4.493201171875,-0.03628419630229473,0.09479776006937027,-0.2924751721158623
1772536750592250000,4.50325,0.11790624845623969,0.25288696583211423,-0.3491412813853472
1772536750602299000,4.513298828125,0.2983516629338264,0.4461515298724174,-0.44019455769676713
1772536750612347100,4.52334716796875,0.5052478619635105,0.6387120372965932,-0.5442171326313168
1772536750622396000,4.53339599609375,0.6474678829431534,0.7528647784382104,-0.5623804927662015
1772536750632445200,4.543445068359375,0.6434323438167572,0.7980214325040579,-0.5499274000369012
1772536750642494000,4.553493896484375,0.652350978809595,0.7378194772586226,-0.5373214183008298
1772536750652542200,4.563542236328125,0.733589000082016,0.6908771088197827,-0.5762285104526207
1772536750662591000,4.573591064453125,0.6574526858627796,0.6086790103435517,-0.5662001971848308
1772536750672640000,4.583639892578125,0.5520002607882023,0.450887618483603,-0.5629997571757063
1772536750682688000,4.59368798828125,0.5491448713570833,0.3329740635037422,-0.5973905409468337
1772536750692737000,4.603737060546875,0.5137894803375005,0.23936434417515992,-0.6186394825395196
1772536750702786000,4.6137861328125,0.35354981854259965,0.10986556534171103,-0.6452703728988767
1772536750712835000,4.6238349609375,0.41843525542914867,0.1509700214073062,-0.6157924956105649
1772536750722883000,4.633883056640625,0.3132259914606809,0.08765724066495895,-0.6697549719445407
1772536750732932000,4.64393212890625,0.1730494590073824,0.06660510028600693,-0.6103082555131987
1772536750742980900,4.65398095703125,0.06869242795407772,0.11683686565905808,-0.537521142124012
1772536750753029000,4.664029052734375,0.14303893614709376,0.11186053855121135,-0.48949580075405535
1772536750763078000,4.674077880859375,0.2838619498103857,0.15860913798362017,-0.4655137078704312
1772536750773127200,4.684127197265625,0.38568624751567837,0.2140375952169299,-0.40739082392137493
1772536750783176000,4.694176025390625,0.3908785554617643,0.18147446526437996,-0.3226245919901877
1772536750793224200,4.70422412109375,0.2683908244341612,0.1201408756405115,-0.2854637955164537
1772536750803273000,4.71427294921875,0.31032267123460766,0.0899926978752017,-0.33365594482067973
1772536750813322000,4.724322021484375,0.3645160337150097,0.0645601504549384,-0.37256190446130927
1772536750823370000,4.734369873046875,0.3062269263535738,0.030584231095016002,-0.4266021222066134
1772536750833419000,4.7444189453125,0.22197569473981857,-0.031904666043817996,-0.4846440864065662
1772536750843468000,4.754468017578125,0.16854454880356787,-0.11597381908893585,-0.4864192063203081
1772536750853517000,4.76451708984375,0.14188801254630087,-0.2066708658412099,-0.5432578226124868
1772536750863565000,4.77456494140625,0.15009820700883864,-0.28383389275968074,-0.6098898474380373
1772536750873614000,4.784614013671875,0.17083879722058773,-0.34968554432988164,-0.6179904440462589
1772536750883662800,4.794662841796875,0.19189502925276755,-0.4216694150447845,-0.597583323572576
1772536750893711000,4.804711181640625,0.2785696886211633,-0.49932577843815085,-0.5786295071797445
1772536750903760000,4.814759765625,0.36115620189309117,-0.5654898569583893,-0.5313267444632948
1772536750913809200,4.82480908203125,0.44665597226321696,-0.6388277726307511,-0.5254274572916329
1772536750923858200,4.834858154296875,0.5504425099521875,-0.7126993567883968,-0.5144263900015503
1772536750933906200,4.84490625,0.6336532926023006,-0.7635019077867269,-0.46715931965298946
1772536750943955000,4.854954833984375,0.6413567065864801,-0.820472041504085,-0.46367494813594967
1772536750954004000,4.86500390625,0.6138754099428654,-0.8759396617040037,-0.4868536156821996
1772536750964052000,4.875052001953125,0.6572276449352502,-0.8835331855729222,-0.514590567587316
1772536750974101000,4.88510107421875,0.6696832218825817,-0.9307634310424328,-0.5713492870436981
1772536750984150000,4.89514990234375,0.6383861663430929,-0.9801377028033137,-0.6667103435516357
1772536750994198000,4.905197998046875,0.6034072074204683,-0.9930608972623943,-0.7194811258830129
1772536751004247000,4.9152470703125,0.6217196937024593,-1.0254802348300813,-0.7768024111256003
1772536751014296000,4.925296142578125,0.6466968985706567,-1.0566741222560405,-0.7945625242218375
1772536751024345000,4.935344970703125,0.6163906076341867,-1.1173907490253447,-0.7821019057732075
1772536751034393000,4.94539306640625,0.5637719471246003,-1.150083642837405,-0.7388422444351017
1772536751044441900,4.95544189453125,0.5568471162974834,-1.1674892434075475,-0.673673752823472
1772536751054491100,4.9654912109375,0.5853501572042703,-1.1700272374525666,-0.5750275736976415
1772536751064539000,4.975538818359375,0.5181055899709462,-1.1855670441508293,-0.4649540646936744
1772536751074588200,4.985588134765625,0.43195232412815093,-1.2133189744293689,-0.35994225952606645
1772536751084637200,4.99563720703125,0.35137305902540683,-1.2122814480751751,-0.25458931277059016
1772536751094686000,5.00568603515625,0.21267244434356689,-1.1560913588196038,-0.17631273511964826
1772536751104734000,5.01573388671875,0.06920856078267097,-1.1157289532929657,-0.14245810405183582
1772536751114783000,5.025782958984375,-0.07018178972899913,-1.0788991058066486,-0.036781843626126645
1772536751124832300,5.035832275390625,-0.2603635853230953,-1.0811968613550067,0.06294825827889144
1772536751134880000,5.0458798828125,-0.4207780191630125,-1.173041909098625,0.13513674818780272
1772536751144929000,5.055928955078125,-0.7026181077569723,-1.2293351664677261,0.19778989597763866
1772536751154978000,5.06597802734375,-1.0960457631796598,-1.1599065331935883,0.23661541079320011
1772536751165027000,5.076027099609375,-1.3749199877053497,-1.0232733724355696,0.19494148427657781
1772536751175075000,5.086074951171875,-1.5191864198207854,-0.7797726591080427,0.0739141811903566
1772536751185124000,5.0961240234375,-1.639386916694045,-0.5077499079123139,-0.02465235682800412
1772536751195173000,5.106173095703125,-1.8325965356767175,-0.15860913798362017,0.029308804331719875
1772536751205220900,5.116220947265625,-2.103812354403734,0.11928192072361707,0.1277261431377381
1772536751215270100,5.126270263671875,-1.766805674383044,0.3158995945841074,-0.0633388650316745
1772536751225319200,5.136319091796875,-1.4256594103395939,0.77976827519387,0.07204151918627322
1772536751235367200,5.1463671875,-1.1130144336372614,0.9771762226492166,0.11228870083540678
1772536751245416200,5.156416259765625,-0.8529816877037286,1.0473790551662445,0.27344693877995013
1772536751255465000,5.16646484375,-0.7615601260691881,1.0687053363114596,0.44232773380056023
1772536751265514200,5.17651416015625,-0.6107412035703659,1.0274532884687184,0.5239568002171814
1772536751275562000,5.18656201171875,-0.4249088353574276,0.9606780923128128,0.7308357558511197
1772536751285611300,5.196611328125,-0.3659089493781328,0.8128206499680877,0.9063060122646391
1772536751295660000,5.206659912109375,-0.3464326800137758,0.7220537528499961,1.0839419953446834
1772536751305709000,5.216708984375,-0.27594869246780873,0.5901198558241129,1.113055569365248
1772536751315757000,5.226757080078125,-0.06413666434586048,0.5711854382514954,1.035982997209206
1772536751325806000,5.23680615234375,-0.05190495928227901,0.6098597445607185,0.9939612071029841
1772536751335855000,5.246855224609375,-0.15729133338332174,0.5826321304172277,0.8259134288404136
1772536751345903000,5.256903076171875,-0.13104454697072504,0.6138347856715322,0.7490939546626061
1772536751355952000,5.2669521484375,-0.15318565163016318,0.6766589061141014,0.6546599864043295
1772536751366001200,5.277001220703125,-0.09183949478566646,0.7029656060203909,0.5564785021807999
1772536751376049200,5.287049072265625,-0.015004092386364937,0.7489616335198283,0.4813991496685892
1772536751386098200,5.29709814453125,0.020958032354712487,0.8040624662339687,0.4701771331042051
1772536751396147000,5.30714697265625,0.05882745202183723,0.7657336123615502,0.4992160344533622
1772536751406196200,5.3171962890625,0.08794365639090537,0.6891092223644256,0.49788938895948226
1772536751416244000,5.327243896484375,0.14222002097964287,0.6396674383252858,0.5290737048394978
1772536751426293200,5.337293212890625,0.16995616916716097,0.5713660555154085,0.5965050998818129
1772536751436342000,5.347342041015625,0.20301088202893733,0.46341363031864163,0.6919237683285028
1772536751446390300,5.357390380859375,0.12763210817873477,0.4256342270225286,0.7829120531123132
1772536751456439300,5.367439208984375,-0.03191080352365971,0.3080670012623071,0.7574941918045281
1772536751466488300,5.37748828125,-0.08328618597388267,0.21138474262058735,0.6719044050633907
1772536751476536300,5.387536376953125,-0.04420739051699638,0.3340118821188807,0.6524752627763897
1772536751486585300,5.39758544921875,-0.06351297948956489,0.3815869955033064,0.5223907199442386
1772536751496634400,5.40763427734375,-0.018058803781867028,0.3870937762260437,0.5039188783820718
1772536751506683400,5.417683349609375,-0.03801145848631859,0.410629550114274,0.5527427497185766
1772536751516731100,5.427731201171875,-0.043756139618158336,0.43612054972350595,0.4982101453464478
1772536751526780400,5.437780517578125,0.08212474097907543,0.4074167255476117,0.4709994092725217
1772536751536829200,5.4478291015625,0.18368132765889167,0.42579906219542024,0.44356158644445237
1772536751546877400,5.45787744140625,0.26355624388456345,0.42835108476579187,0.49721397391594946
1772536751556926200,5.46792626953125,0.35931203533113,0.3066182637587189,0.5757688205190002
1772536751566975200,5.477975341796875,0.44780572682023045,0.23439912298321722,0.6190041511334479
1772536751577023200,5.488023193359375,0.6352987217217684,0.18152239605933426,0.6546613746438175
1772536751587072300,5.498072265625,0.774755123206973,0.08722557124942541,0.7004354299556463
1772536751597121300,5.508121337890625,0.8703279593020677,0.027700492352247235,0.7597112102668732
1772536751607170300,5.51817041015625,0.9333797510206698,-0.08410568566322327,0.7400517663553356
1772536751617218300,5.52821826171875,1.0072773464024067,-0.06179974583089351,0.7272656422793865
1772536751627267300,5.538267333984375,0.7949433402329683,-0.09341595032215118,0.8416782034009694
1772536751637316400,5.54831640625,0.7831745765060186,-0.30160715759843587,0.778585787411034
1772536751647364400,5.5583642578125,0.8573077342092991,-0.32670798884630203,0.8306818853512405
1772536751657413000,5.5684130859375,0.8328530919104814,-0.3330830768361687,0.8284471120364963
1772536751667462400,5.57846240234375,0.7486077055156231,-0.35728520567864175,0.8158832524091005
1772536751677511200,5.58851123046875,0.5891565637499093,-0.3213587367728352,0.8200095385588705
1772536751687559400,5.598559326171875,0.5422358226209879,-0.3751327047973871,0.8325165534324943
1772536751697608200,5.608608154296875,0.5359568884819745,-0.33068332221806046,0.8178012148596346
1772536751707657200,5.6186572265625,0.4126724541187286,-0.34956484055966136,0.8019850754380226
1772536751717705200,5.628705322265625,0.30964053418934345,-0.4044239734724164,0.7537300900306553
1772536751727754200,5.638754150390625,0.23000059576332568,-0.4011453901931643,0.718774804244563
1772536751737803300,5.64880322265625,0.21694822196662425,-0.4013502651154995,0.6429251249469816
1772536751747852300,5.658852294921875,0.16875556120574473,-0.4338061353012919,0.581042486605607
1772536751757900300,5.668900390625,0.13354863874614237,-0.4988198747426271,0.5713147271869704
1772536751767949300,5.67894921875,0.1367979959309101,-0.5866910504192113,0.5879931094611063
1772536751777998300,5.688998291015625,0.060928223693370816,-0.6489537375867367,0.5972983326187357
1772536751788046300,5.69904638671875,0.007807458880543708,-0.6879518690228462,0.5809904276248067
1772536751798095000,5.70909521484375,0.01296177290380001,-0.7372691498994827,0.5748219315903261
1772536751808144400,5.719144287109375,-0.07464753696620464,-0.7603650710657238,0.5750594666732475
1772536751818192100,5.729192138671875,-0.10928864223659038,-0.7685039538577199,0.5557420045997947
1772536751828241400,5.739241455078125,-0.13521452613174914,-0.770601802919805,0.5202558268073946
1772536751838290200,5.749290283203125,-0.1660024631053209,-0.7166746901601553,0.4871171254565939
1772536751848339200,5.759339111328125,-0.2040712047368288,-0.6107555243566631,0.4793342895606532
1772536751858387200,5.76938720703125,-0.16060674154162405,-0.5645025994867086,0.47123394868075846
1772536751868436200,5.779436279296875,-0.19152911854982374,-0.6073921854034066,0.5545815094530582
1772536751878485200,5.7894853515625,-0.4259977996379137,-0.7303504565522074,0.5996256065225228
1772536751888533200,5.799533203125,-0.7157458848774433,-0.7360217801868915,0.5260921682780608
1772536751898582300,5.809582275390625,-0.9741250183850526,-0.7024453815385698,0.4678670295309275
1772536751908631300,5.81963134765625,-1.0970756907492876,-0.7124021274074912,0.3886606967492029
1772536751918679300,5.82967919921875,-1.1961270166099072,-0.6600175679147243,0.2503331531634554
1772536751928728300,5.839728271484375,-1.2971160325348376,-0.46939241246730085,0.039280528574064374
1772536751938777000,5.849777099609375,-1.3740250846922397,-0.17675474326610563,-0.21158537975922226
1772536751948826400,5.859826416015625,-1.2808628168702125,0.11226210508942604,-0.4081291846659034
1772536751958874000,5.8698740234375,-1.0181284107625483,0.3354427917048335,-0.5736164647907018
1772536751968923400,5.87992333984375,-0.7372159584075212,0.5287494413211942,-0.6576050268802791
1772536751978972200,5.88997216796875,-0.475328524518013,0.6931663888007402,-0.6805846281904727
1772536751989020400,5.9000205078125,-0.24417583611011504,0.806799782243371,-0.6319926659137011
1772536751999069200,5.910069091796875,-0.04538578664660454,0.8114999227583408,-0.5482772582096979
1772536752009118200,5.9201181640625,0.12372457934617996,0.775490159483254,-0.46177320616785433
1772536752019167200,5.930167236328125,0.20307868656814096,0.7617407433331013,-0.3786344658406451
1772536752029215200,5.94021533203125,0.3290554287552833,0.6964946564406156,-0.36711423351466654
1772536752039264300,5.95026416015625,0.3740747201770544,0.6398804965540766,-0.41249443067070096
1772536752049313300,5.960313232421875,0.30412907729148864,0.5521876000538468,-0.43387383024264126
1772536752059362300,5.9703623046875,0.25803485011458394,0.41582448840886355,-0.4642427746191621
1772536752069410300,5.980410400390625,0.28511574926376343,0.2830038716763258,-0.43243988844938575
1772536752079459000,5.990458984375,0.17373802579343317,0.1933960814654827,-0.37000736114028837
1772536752089508400,6.00050830078125,0.025035657057166098,0.13716156854629516,-0.4082003136733547
1772536752099557400,6.010557373046875,-0.027533319091796873,0.11457359690219163,-0.4519698607623577
1772536752109605400,6.02060546875,-0.13746844253838061,0.12367109559327363,-0.5207440852483735
1772536752119654400,6.030654296875,-0.24843758520781992,0.13632628676593303,-0.5523971511512994
1772536752129703200,6.040703125,-0.375461206099391,0.17664894480407237,-0.5754518635243177
1772536752139751200,6.050751220703125,-0.48439036737382407,0.2561477211937308,-0.6455800233699381
1772536752149800200,6.06080029296875,-0.43794308897554873,0.3396116018220782,-0.720573524229601
1772536752159849500,6.070849365234375,-0.30642917092740535,0.37176644323468205,-0.754380882089585
1772536752169897200,6.080897216796875,-0.19372224467992782,0.3710115332141518,-0.7410111129067838
1772536752179946200,6.0909462890625,-0.13330898477137088,0.3458101642012596,-0.6861153743106871
1772536752189995300,6.100995361328125,0.043511224946379656,0.32809096763730045,-0.7241667264159768
1772536752200043300,6.111043212890625,0.21379063471853732,0.26660598684400316,-0.7035331767752766
1772536752210092300,6.12109228515625,0.22499475030004976,0.1475076059937477,-0.6857843157254159
1772536752220141300,6.131141357421875,0.25581483597755433,0.005522855074703693,-0.6893538447752594
1772536752230190300,6.1411904296875,0.41136370960772034,-0.13841916739195584,-0.6616808249518275
1772536752240238000,6.151238037109375,0.5262333668470383,-0.27698417299538847,-0.5706683190422133
1772536752250287400,6.161287353515625,0.5388251373946666,-0.44288288346529003,-0.49219285781830546
1772536752260336400,6.17133642578125,0.5341811109811068,-0.5980024257674813,-0.42691506061330436
1772536752270384400,6.18138427734375,0.5719646059304475,-0.7020663190931081,-0.3949770402891561
1772536752280433400,6.191433349609375,0.5563105252027511,-0.7607067241102456,-0.3735100720316171
1772536752290482200,6.201482177734375,0.47186464779973025,-0.7774816255614161,-0.39750681449510156
1772536752300531500,6.211531494140625,0.4668050263226032,-0.7422066063016652,-0.43744098467230796
1772536752310579200,6.2215791015625,0.49891865894198417,-0.6817468769028783,-0.4794108984608203
1772536752320628500,6.23162841796875,0.485668132224679,-0.6215665489673614,-0.46167475076206027
1772536752330677200,6.24167724609375,0.4607756830304861,-0.5721884778141975,-0.46498007591776547
1772536752340725200,6.251725341796875,0.46927404678463935,-0.5190153982922434,-0.4785618073508143
1772536752350774300,6.261774169921875,0.47909927522838114,-0.48008039522022006,-0.4655089586300775
1772536752360823300,6.2718232421875,0.4974000710725784,-0.479355003555119,-0.4245617389528081
1772536752370871300,6.281871337890625,0.6144570092231035,-0.5192547600060701,-0.3458691643794998
1772536752380920300,6.29192041015625,0.6928858182936907,-0.5635781781181692,-0.2472977675229311
1772536752390969300,6.30196923828125,0.6567191108912229,-0.6238628432109952,-0.15562504413891584
1772536752401018400,6.312018310546875,0.585291120493412,-0.6823109405264258,-0.05536721029905602
1772536752411066400,6.32206640625,0.5372159486323594,-0.7196662731915712,-0.005826578128477558
1772536752421115400,6.332115478515625,0.48584231974780556,-0.6969675346493721,-0.01751307953260839
1772536752431164200,6.3421640625,0.42158056771755215,-0.6371469799369573,-0.08356720400550402
1772536752441212400,6.35221240234375,0.3137029613226652,-0.5630386644139885,-0.11938986547696404
1772536752451261400,6.362261474609375,0.16770108371675013,-0.5493889092460275,-0.15002905989591964
1772536752461310700,6.372310791015625,0.09907412221431731,-0.5370347468465566,-0.2008613941111602
1772536752471358500,6.3823583984375,0.06434884579181671,-0.5386226005598902,-0.20339388999715446
1772536752481407500,6.392407470703125,0.023695932886004446,-0.5898503912329673,-0.15435995610654354
1772536752491456500,6.40245654296875,-0.035787352696061134,-0.6451514226943255,-0.12395992247201501
1772536752501505500,6.412505615234375,-0.12626958765387533,-0.6884536810651422,-0.08832067300975323
1772536752511553500,6.422553466796875,-0.18738018217682836,-0.7527317997083067,-0.009173358672577887
1772536752521602300,6.432602294921875,-0.2597936764806509,-0.8422434360682964,0.09442010412970557
1772536752531651600,6.442651611328125,-0.27762100959420205,-0.976228128144145,0.20850675776517016
1772536752541699300,6.45269921875,-0.3268763311505318,-1.1294389142155647,0.2967564478979446
1772536752551748600,6.46274853515625,-0.5423246699482203,-1.1450476944968104,0.2695191343443468
1772536752561797600,6.472797607421875,-0.7663736638307571,-1.0246800243631005,0.24684392280820755
1772536752571846400,6.482846435546875,-0.9387386477053165,-0.957652607011795,0.21996121311224995
1772536752581894400,6.492894287109375,-1.0184621727615595,-0.8835051285222172,0.14154102573953567
1772536752591943400,6.502943359375,-1.0646382330030202,-0.7018830714806914,0.04976425745915621
1772536752601992700,6.51299267578125,-1.216755963140726,-0.4467182238444686,-0.047378494833782314
1772536752612040400,6.52304052734375,-1.2832552649646998,-0.22218378453254697,-0.1110250375751406
1772536752622089700,6.53308984375,-1.1777812125802039,-0.04158230271041393,-0.11064181041121482
1772536752632138500,6.543138427734375,-1.0476701470673084,0.14084668679982423,-0.06834788883272558
1772536752642186500,6.5531865234375,-0.9158382491111755,0.3008811814114451,-0.024015191435627636
1772536752652235500,6.563235595703125,-0.6920733328670263,0.4536509457170963,0.07827829468399286
1772536752662284500,6.573284423828125,-0.6308586934477091,0.6050456222772598,0.26767171637937426
1772536752672333600,6.58333349609375,-0.5578115774154663,0.7390753225386142,0.3024229309607297
1772536752682381300,6.59338134765625,-0.28366613497734067,0.7893570645332336,0.34296394445728506
1772536752692430600,6.6034306640625,-0.04031272116601467,0.8307938212931155,0.41199780626017596
1772536752702479600,6.613479736328125,0.08614508253633975,0.7920806442782282,0.4589264749672264
1772536752712527600,6.623527587890625,0.17088555897176264,0.7221829321876168,0.5048737679541111
1772536752722576600,6.63357666015625,0.19687164862155912,0.6922352454304694,0.5307047035748139
1772536752732625400,6.64362548828125,0.2935661822229624,0.6368807302162051,0.5760976140819489
1772536752742673400,6.65367333984375,0.2205792719453573,0.5464060940429568,0.674813278247416
1772536752752722400,6.663722412109375,0.15834464182853697,0.49348435893356796,0.6904251272685825
1772536752762771700,6.673771728515625,0.230841138240695,0.49106356152743097,0.7183999795828014
1772536752772820500,6.683820556640625,0.14311317042708396,0.5723837081253528,0.7081199200436472
1772536752782868700,6.69386865234375,0.1180629003226757,0.5971212590187788,0.6847265503007918
1772536752792917500,6.70391748046875,0.0846095435321331,0.5878676929831504,0.7309321288976818
1772536752802966500,6.713966552734375,-0.016753566402196884,0.5742416109517217,0.7274928020987659
1772536752813014500,6.7240146484375,-0.032543840730190274,0.5285220623061061,0.775266287599504
1772536752823063600,6.7340634765625,-0.15755378371179102,0.5846870171204209,0.8048179607763886
1772536752833112600,6.744112548828125,-0.13256605744957922,0.662325260335207,0.8641839766543358
1772536752843160300,6.754160400390625,-0.2345832473784685,0.5439212914898991,0.8470083854477852
1772536752853209600,6.764209716796875,-0.2862912227839231,0.5876283312693238,0.8132735083021223
1772536752863258600,6.774258544921875,-0.09450666816830634,0.7458379485413432,0.7794207769304513
1772536752873307400,6.784307373046875,-0.04106558535993099,0.7986632375389338,0.6652713237244635
1772536752883355600,6.794355712890625,0.00566635519862175,0.729765642401576,0.6962316215902566
1772536752893404400,6.804404296875,0.18102058401703833,0.7634431633368134,0.6437575571831315
1772536752903453700,6.81445361328125,0.3402051838010549,0.7454077404305338,0.6246195067971945
1772536752913501400,6.82450146484375,0.46591830661594863,0.6475944319322705,0.6365707144189625
1772536752923550700,6.83455078125,0.5791740989178419,0.5880825047776103,0.629492519661039
1772536752933599500,6.844599609375,0.761030549237132,0.48711160903126,0.6664591452695429
1772536752943647700,6.854647705078125,0.8456114511966705,0.37669659311324355,0.6915870106548071
1772536752953696500,6.864696533203125,0.8992430881410837,0.2562754392266273,0.716000151899457
1772536752963745500,6.87474560546875,1.039289272212982,0.15488134963214398,0.7551171604748815
1772536752973794600,6.884794677734375,1.0853460899889469,0.0742854256555438,0.7827592006381601
1772536752983842600,6.894842529296875,1.0477408742159604,0.008541910634934901,0.7315035721100867
1772536752993891600,6.9048916015625,1.1890227375626563,-0.17226473837047815,0.6889628726962953
1772536753003940600,6.914940673828125,1.0484884777128696,-0.08801409127861261,0.8022530056592077
1772536753013988600,6.924988525390625,0.7285024905979632,-0.13705430877953767,0.7481885302554816
1772536753024037600,6.93503759765625,0.790749395674467,-0.2398915829196572,0.637026276166737
1772536753034086400,6.94508642578125,0.8841051402419805,-0.178423261000216,0.5802191509913652
1772536753044134700,6.955134765625,0.8576391581207513,-0.18421061223000287,0.5053679812118411
1772536753054183400,6.965183349609375,0.8222872742325067,-0.2683361716374755,0.4423642664186656
1772536753064232700,6.975232666015625,0.7621575074404477,-0.29841859069019555,0.43288142167180776
1772536753074280400,6.985280517578125,0.7061468664050102,-0.37741175564527507,0.48317953027933835
1772536753084329700,6.995329833984375,0.5308008208930493,-0.5074328047871589,0.5665518966993317
1772536753094378500,7.00537841796875,0.40625381924808024,-0.6126733406767249,0.6300644743300974
1772536753104427500,7.015427490234375,0.34791619656980033,-0.6769324623584747,0.6692605394911021
1772536753114475500,7.0254755859375,0.27080022366344925,-0.7110410681873559,0.6485021944269538
1772536753124524500,7.035524658203125,0.159118548810482,-0.7517153161421418,0.6420362132832408
1772536753134573600,7.045573486328125,0.09147942930161952,-0.7606383350491523,0.6283178498584777
1772536753144621600,7.05562158203125,-0.03421265072524547,-0.7380980019390583,0.5994136808048933
1772536753154670600,7.065670654296875,-0.26338088731765746,-0.7313564187243581,0.5326328951584175
1772536753164719600,7.0757197265625,-0.4655225852966308,-0.6850079245254397,0.5004277483306825
1772536753174767600,7.085767578125,-0.5842185228258371,-0.5970072772502899,0.43408984761349856
1772536753184816600,7.095816650390625,-0.6651221975773572,-0.4894955815583467,0.3312120587999001
1772536753194865400,7.105865478515625,-0.8233692242503166,-0.34188334614634514,0.22655600826740263
1772536753204914700,7.115914794921875,-0.8005997585594654,-0.2733122064843774,0.08707217078600078
1772536753214962400,7.12596240234375,-0.6441828699231147,-0.07667553566247225,-0.08650874648327007
1772536753225011700,7.13601171875,-0.550025745844841,0.15519874501824377,-0.2158920274445787
1772536753235060500,7.146060546875,-0.4639157346218824,0.20549889945238828,-0.2684409837188199
1772536753245108500,7.1561083984375,-0.3238251268863678,0.02382598900645971,-0.10556574925594031
1772536753255157500,7.166157470703125,-0.24171850608587264,-0.2713648718088865,0.10232228295584209
1772536753265206500,7.17620654296875,-0.28169395812153813,-0.5060033565059304,0.24375719057293607
1772536753275254500,7.186254638671875,-0.42774201295673847,-0.6674956487104297,0.4463682413630187
1772536753285303600,7.196303466796875,-0.6904734964549541,-0.9127072576090693,0.5357194629969075
1772536753295352600,7.2063525390625,-0.8999450989305973,-1.2076520347088575,0.618007468246296
1772536753305401600,7.216401611328125,-1.090910738378763,-1.2096095985174178,0.49855819159913806
1772536753315449600,7.22644970703125,-1.2605652942508458,-0.9191989577159285,0.15287074046209453
1772536753325498600,7.23649853515625,-1.4836457353621721,-0.4982762693852186,-0.1736328118532896
1772536753335547400,7.24654736328125,-1.5823574540048837,-0.15905074427127838,-0.5378505932740867
1772536753345595600,7.256595703125,-1.4713637614160775,0.220643277092278,-0.8669862476587294
1772536753355644400,7.26664453125,-1.2144038470566272,0.5947425471886992,-1.0661432307384908
1772536753365693700,7.276693603515625,-1.0127566545963287,0.9452370698139071,-1.1146852163936942
1772536753375741400,7.286741455078125,-0.5964946515530347,1.0437167332664132,-1.3313313136085867
1772536753385790500,7.29679052734375,0.05392740502059459,1.2012824996769427,-1.4121820891290902
1772536753395839500,7.306839599609375,0.4275099577665329,1.39396137278378,-1.3180657354526222
1772536753405888500,7.316888427734375,0.3765308811575174,1.302212478891015,-1.0214431613337247
1772536753415936500,7.3269365234375,0.2511971130490303,1.0085498505562542,-0.7642502419359981
1772536753425985500,7.336985595703125,0.31452772170901294,0.7265043025180697,-0.5606244428791105
1772536753436034600,7.34703466796875,0.3792413091599941,0.6127984283611178,-0.4235968394434079
1772536753446082600,7.35708251953125,0.33635376906991005,0.43037411502599715,-0.3635333793532103
1772536753456130600,7.367130615234375,0.22312837190628051,0.20452479372322557,-0.3134640380002558
1772536753466179300,7.377179443359375,0.07358078451752663,0.07281593762487172,-0.23123125180313361
1772536753476227600,7.3872275390625,-0.05322013353407383,0.03931318873465061,-0.2741851533940062
1772536753486276400,7.3972763671875,-0.08706453546881675,0.0016267244189977644,-0.41590482363607734
1772536753496325400,7.407325439453125,-0.20451719493865966,0.0063087447553873055,-0.49705560501646245
1772536753506373400,7.417373291015625,-0.3846136498481035,0.041003626039624215,-0.6481978046528994
1772536753516422400,7.42742236328125,-0.40951194426119325,0.08939765459150076,-0.7458212166022509
1772536753526471400,7.437471435546875,-0.4265320526450872,0.16543372330665587,-0.7820558746743946
1772536753536520400,7.4475205078125,-0.38459436062574387,0.21711977914124725,-0.7984004949495196
1772536753546568400,7.457568359375,-0.24417232897877691,0.21763474292606114,-0.7403586403474212
1772536753556617500,7.467617431640625,-0.056090720534324644,0.20947773995548485,-0.6343480699334293
1772536753566666200,7.477666259765625,0.09314005599021911,0.16233692633509636,-0.5214621338572353
1772536753576714500,7.487714599609375,0.2281394780665636,0.07577566421329975,-0.44356359573844817
1772536753586763300,7.49776318359375,0.33154198487401004,0.030674539726972577,-0.32239962412789464
1772536753596812500,7.5078125,0.3460018873810768,-0.09828823253363371,-0.2483894717497751
1772536753606860300,7.5178603515625,0.4075152174860239,-0.2138762671753764,-0.24000446870960293
1772536753616909600,7.52790966796875,0.47285132074952124,-0.23407383655160663,-0.247476229362376
1772536753626958300,7.537958251953125,0.5420791707545518,-0.2628916424959898,-0.2619227974638343
1772536753637007400,7.54800732421875,0.5441027855366468,-0.31092326747626065,-0.2688979154397733
1772536753647055400,7.558055419921875,0.5133288770884276,-0.3260807968586683,-0.2801929424414411
1772536753657104400,7.5681044921875,0.49137189682424065,-0.3364893781483173,-0.26754960610335693
1772536753667153400,7.5781533203125,0.4538824163854122,-0.38160599246472116,-0.26106201591603456
1772536753677201400,7.588201416015625,0.41403848177492614,-0.418346992623806,-0.19540891912523656
1772536753687250400,7.59825048828125,0.40287236011624333,-0.46276861041337247,-0.16497266339985653
1772536753697299500,7.608299560546875,0.4483043239921331,-0.5097343597277999,-0.174906941708643
1772536753707347500,7.618347412109375,0.43946576849818225,-0.5236912811487913,-0.12951474358756093
1772536753717396500,7.628396484375,0.5340010782390833,-0.5675239931344985,-0.14543562202528118
1772536753727445200,7.6384453125,0.5204506917923689,-0.5500409434139728,-0.13424294115323573
1772536753737494500,7.64849462890625,0.5727595557004213,-0.5614382434800267,-0.14977303017508237
1772536753747542300,7.658542236328125,0.5480816260397434,-0.5399354367241264,-0.09071359602827578
1772536753757591600,7.668591552734375,0.4698386949300766,-0.5827163015693426,-0.13882204910442233
1772536753767640300,7.678640380859375,0.5251449870884418,-0.6426572677910327,-0.12693364105317742
1772536753777688600,7.6886884765625,0.46101592152714727,-0.6397635921761393,-0.06786920193769037
1772536753787737300,7.6987373046875,0.4171002074331045,-0.7028188910260796,-0.05642517665307969
1772536753797786400,7.708786376953125,0.35866555412113665,-0.7205676059454679,-0.044197417112253605
1772536753807834400,7.71883447265625,0.31389585354626176,-0.7347343707248568,-0.058715114221163094
1772536753817883400,7.72888330078125,0.25784020432531835,-0.7117375260189175,-0.0825957194916904
1772536753827932400,7.738932373046875,0.1793400835841894,-0.6951680840119719,-0.10019446801375598
1772536753837980400,7.74898046875,0.09990881947278976,-0.6844380156829952,-0.10097728895451873
1772536753848029400,7.759029541015625,0.0067120648592710495,-0.6414604592218994,-0.1373961079545319
1772536753858078500,7.769078369140625,-0.06952127999365329,-0.6136296184882521,-0.18888960035908967
1772536753868127200,7.779127197265625,-0.11418868923783301,-0.5573848764359951,-0.22861235627532003
1772536753878175500,7.789175537109375,-0.1504746391057968,-0.504191338647902,-0.3013068960102275
1772536753888224300,7.799224365234375,-0.14797054733037948,-0.48253830976635215,-0.2955855957539752
1772536753898273500,7.8092734375,-0.13247311846911908,-0.4957797763943672,-0.22907157128490507
1772536753908321300,7.8193212890625,-0.15108663352429866,-0.6375324721232056,-0.07573650124669075
1772536753918370600,7.82937060546875,-0.35143326478004455,-0.7149485970199108,0.03427197969704866
1772536753928419300,7.83941943359375,-0.5459428604453802,-0.6895388459533452,0.14430110157001763
1772536753938467600,7.849467529296875,-0.7010393141329289,-0.6890905176639557,0.22343597655072808
1772536753948516400,7.859516357421875,-0.8133055108755827,-0.6259846576705574,0.19294556121900677
1772536753958565400,7.8695654296875,-0.9440425993323326,-0.4565732629045844,0.07772281622570007
1772536753968613400,7.87961328125,-1.1358996346622705,-0.23118512937277555,0.027473807456903157
1772536753978662400,7.889662353515625,-1.3336720315158366,0.022740239596366882,-0.03663140230476856
1772536753988711400,7.89971142578125,-1.3399836988806724,0.22714257598370313,-0.1200186375003308
1772536753998760400,7.909760498046875,-1.182367371326685,0.4663412082031369,-0.18782697609625756
1772536754008808400,7.919808349609375,-1.016769397369027,0.7268184830337763,-0.1855305722547695
1772536754018857500,7.929857421875,-0.9237018220931291,0.9171811881527304,-0.09280154475085436
1772536754028906200,7.93990625,-0.9185498461574315,1.068404307538271,0.005429075844027102
1772536754038954500,7.94995458984375,-0.8225736899584531,1.1984276947677135,0.06388678123801947
1772536754049003300,7.960003173828125,-0.5490753132522106,1.2345476404190063,0.10509860666822642
1772536754059052500,7.970052490234375,-0.3106184393107891,1.249755438683927,0.1841379853852093
1772536754069100300,7.980100341796875,-0.16978724234104156,1.1899173483148215,0.3076608316142112
1772536754079149600,7.990149658203125,0.01160977377295494,1.0520748117670415,0.39249439316056667
1772536754089198300,8.0001982421875,0.15869418591856957,0.9556146714434027,0.4728639610353857
1772536754099246600,8.01024658203125,0.18434476000368594,0.8629057003468275,0.5298321585239842
1772536754109295400,8.02029541015625,0.12160861010551452,0.7452008196815848,0.5606301054349169
1772536754119344400,8.030344482421874,0.17977379882633684,0.6670590108588338,0.5185364556688815
1772536754129393400,8.040393310546875,0.3297930953800678,0.663916036657989,0.5166066931826994
1772536754139441400,8.05044140625,0.3052373307943344,0.6610334669589996,0.5001829797893762
1772536754149490400,8.060490478515625,0.320007029902935,0.6127201024278998,0.45684893804080784
1772536754159539500,8.07053955078125,0.3898246624946594,0.6141074651330709,0.5220611591963097
1772536754169587500,8.08058740234375,0.3113204501003027,0.6017480420365929,0.5669985810209065
1772536754179636500,8.090636474609376,0.18331249434649943,0.531202095170319,0.6220768365770578
1772536754189685200,8.100685302734375,0.06819792243540286,0.47291766398400065,0.6761567287456244
1772536754199733500,8.1107333984375,-0.04527355844378471,0.46033787613511085,0.7004549383737146
1772536754209782300,8.1207822265625,-0.11639350580573081,0.46190965549647806,0.6523444760035723
1772536754219831600,8.13083154296875,-0.1811953560620546,0.49438072325140237,0.5707440876921639
1772536754229880300,8.14088037109375,-0.22328034759759902,0.5410246932655572,0.4736814148981124
1772536754239928600,8.150928466796875,-0.2563590258568525,0.5921843871384859,0.37747565119434145
1772536754249977300,8.160977294921874,-0.24705168380737302,0.6293576412349939,0.27803444923330095
1772536754260026400,8.1710263671875,-0.21221651726961135,0.6465653811454772,0.19595785824488848
1772536754270074400,8.181074462890624,-0.04918810153901577,0.6775745596542954,0.11496778385154902
1772536754280123400,8.191123291015625,0.16827391516864298,0.6453738332733512,0.14121699968324974
1772536754290172400,8.20117236328125,0.3330722631812095,0.5829468954548239,0.142353492899891
1772536754300220400,8.211220458984375,0.5370663110285997,0.46410716554075476,0.21492369386907664
1772536754310269400,8.22126953125,0.7130284426122904,0.2961781182870269,0.38098698378354307
1772536754320318500,8.231318359375,0.7637772175967693,0.0979877882823348,0.5205493298612535
1772536754330366500,8.241366455078126,0.8651607857972383,-0.1208510697364807,0.5606115468649193
1772536754340415500,8.25141552734375,0.867891672065854,-0.11552958245277405,0.705250209826231
1772536754350464300,8.26146435546875,0.8145084569245576,-0.2842813442662358,0.7288825028914958
1772536754360513500,8.271513427734375,0.901001329985261,-0.44474137081354853,0.727012471235916
1772536754370561300,8.281561279296875,0.9099462684631348,-0.43961832871139045,0.7307206781040877
1772536754380610600,8.291610595703125,0.9040700699061155,-0.4558443641081452,0.702573976354301
1772536754390659300,8.301659423828125,0.8608698106050491,-0.4825388942882418,0.6409612775281072
1772536754400707600,8.31170751953125,0.8381067746549844,-0.5425958881050348,0.5602008106395602
1772536754410756400,8.32175634765625,0.6921937443763018,-0.5678966258391738,0.5805425377268344
1772536754420805400,8.331805419921874,0.6335960094571114,-0.6622323213547467,0.5383058627609163
1772536754430853400,8.341853271484375,0.598715250211954,-0.7352572255551815,0.5697386004440486
1772536754440902400,8.35190234375,0.3303162424713373,-0.779322577252984,0.6037767348526045
1772536754450952000,8.361951904296875,0.2112812822461128,-0.8533613346710801,0.6156316059604287
1772536754461000000,8.372,0.21756723064780234,-0.8652896728739142,0.6066403441227972
1772536754471048700,8.382048583984375,0.13410685715079307,-0.8754621073201299,0.584167523290962
1772536754481098000,8.392097900390626,0.056773442101478576,-0.9110825790166854,0.5625129600394517
1772536754491146800,8.402146728515625,0.007743161472678184,-0.8999906916379928,0.54196138959378
1772536754501195000,8.412195068359376,-0.06911094562709331,-0.9028478346347808,0.5297659614199772
1772536754511243800,8.422243896484375,-0.14025427386462688,-0.9489622278168797,0.5299462133577093
1772536754521292800,8.432292724609376,-0.13604337817132472,-0.9883528657019138,0.5647628943907097
1772536754531340800,8.4423408203125,-0.11224983012974261,-1.0007599273324013,0.6425111373186111
1772536754541389800,8.452389892578125,-0.20651742884516716,-1.009811541055143,0.684863839879632
1772536754551438800,8.46243896484375,-0.2590355515897274,-0.9829825708404183,0.7022580422729253
1772536754561486800,8.47248681640625,-0.21973171520531176,-0.9232099469229579,0.7267657299332321
1772536754571536000,8.482535888671874,-0.2953004586696625,-0.8461351828098297,0.7083053596131503
1772536754581585000,8.4925849609375,-0.3257067028492689,-0.7555421809539199,0.6362283307220786
1772536754591633000,8.5026328125,-0.24907179145812988,-0.6059606912955642,0.5809273723259568
1772536754601682000,8.512681884765625,-0.23519991797208784,-0.4281178605318069,0.4783826148590073
1772536754611730700,8.522730712890626,-0.19033377128541468,-0.2819587465375662,0.3492351702138781
1772536754621780000,8.532780029296875,-0.08724632177650928,-0.1582218922317028,0.23739888932108877
1772536754631827700,8.54282763671875,-0.021527356675267218,-0.0876508109241724,0.17490882313847542
1772536754641877000,8.552876953125,-0.06839841344356537,-0.07837620210051537,0.11942912890827283
1772536754651925800,8.56292578125,-0.07316051327884197,-0.10166209288090466,0.13672180715585128
1772536754661974000,8.57297412109375,-0.11615092922151088,-0.12234598446935414,0.12144981194776482
1772536754672022800,8.583022705078125,-0.19824702862799168,-0.1796028261736035,0.0874834184680134
1772536754682071800,8.59307177734375,-0.2174865666270256,-0.22946897310465572,0.07196787856132723
1772536754692119800,8.603119873046875,-0.15353110406696796,-0.33615532388836145,0.11601058003590442
1772536754702168800,8.6131689453125,-0.09191548263132572,-0.49940351984947917,0.15339288290636613
1772536754712217900,8.6232177734375,-0.23096622592508792,-0.5846729885950684,0.23795710772573947
1772536754722265900,8.633265869140626,-0.43444706355333323,-0.7124243392392993,0.3410420730166137
1772536754732315000,8.64331494140625,-0.5434948827713728,-0.8537173085018992,0.41710046316143123
1772536754742364000,8.653364013671874,-0.6089116500556468,-0.8052773949816823,0.3832362240150571
1772536754752412000,8.663411865234375,-0.6943307564049959,-0.6025502983301878,0.24614238694272933
1772536754762461000,8.6734609375,-0.7625210800558329,-0.3322796514987945,0.10445321230362169
1772536754772509700,8.683509765625,-0.7989204271703958,-0.06454466062486171,-0.04415941405626945
1772536754782559000,8.69355908203125,-0.7252507953256369,0.2020338536903262,-0.2345107118652202
1772536754792606700,8.703606689453125,-0.3703828799217939,0.5318050294995308,-0.5363471664411947
1772536754802656000,8.713656005859375,0.04544248526990413,0.8301587382599711,-0.7170656622391194
1772536754812704800,8.723704833984375,0.1259884326249361,1.0225567485988138,-0.7757851969070733
1772536754822753000,8.7337529296875,0.22977029413878916,1.1144544033125041,-0.7852646075878292
1772536754832801800,8.7438017578125,0.4004045086979866,1.1792977546229957,-0.6209781546201557
1772536754842850800,8.753850830078125,0.41948681030869484,1.1360510258316994,-0.5005854596430436
1772536754852898800,8.76389892578125,0.2433966684311628,0.9684878892809152,-0.3030602790161967
1772536754862947800,8.77394775390625,-0.04716974745392799,0.7868538495406509,-0.24246260245144366
1772536754872996900,8.783996826171874,-0.20344927344620226,0.5767798972576856,-0.1986999782935716
1772536754883046000,8.7940458984375,-0.20992519146203995,0.417604649823904,-0.140146018584026
1772536754893094000,8.804093994140626,-0.278754982060194,0.24423136568963527,-0.20055793591886759
1772536754903143000,8.814142822265625,-0.41274610387682914,0.10931436119973659,-0.32393633217588064
1772536754913191700,8.824191650390626,-0.6413491078019142,0.08118453751951456,-0.3566258284544572
1772536754923240000,8.834239990234375,-0.8357195872575044,0.039868484529852866,-0.44950723350849
1772536754933288700,8.844288818359376,-0.9042641311734915,-0.016691314820945262,-0.5723305531660094
1772536754943338000,8.854337890625,-0.8236135544002056,0.0030631869629025458,-0.6685559714183211
1772536754953385700,8.8643857421875,-0.6576333031266928,0.008558861769735812,-0.6867047915711999
1772536754963435000,8.87443505859375,-0.46479836267530916,-0.04313946902453899,-0.7256766925875097
1772536754973483800,8.88448388671875,-0.32178339192569255,-0.03442337086647749,-0.68223546413742
1772536754983532000,8.894531982421874,-0.09205167623162269,-0.05465016633719205,-0.5795506771452724
1772536754993580800,8.904580810546875,0.12198913385570048,-0.11801526178866624,-0.4984270760327577
1772536755003629800,8.9146298828125,0.2690653626948595,-0.18291092780828475,-0.37847796010468154
1772536755013677800,8.924677734375,0.4059767558723688,-0.24531857640445232,-0.3037562436574138
1772536755023726800,8.934726806640626,0.5682891322880983,-0.26825755344331265,-0.23454222124833612
1772536755033775900,8.94477587890625,0.7610942621231078,-0.31653730796575547,-0.24367060826802625
1772536755043825000,8.954824951171876,0.8988368454277514,-0.3528846326321363,-0.23508398170853032
1772536755053873000,8.964872802734375,0.8737035732150077,-0.3870817935273051,-0.2226584528395906
1772536755063922000,8.974921875,0.8718179055988788,-0.4594716146945953,-0.24713503297558054
1772536755073970700,8.984970703125,0.9223632669657468,-0.5205334016397595,-0.23376785760866478
1772536755084019000,8.99501904296875,0.9374053532749413,-0.534311167101562,-0.23641278262687845
1772536755094067700,9.005067626953124,0.9304641558349132,-0.5933803189247846,-0.23432174689806998
1772536755104117000,9.015116943359375,0.8587024034380912,-0.6235419406935572,-0.19953549753595143
1772536755114164700,9.025164794921874,0.7723492311090231,-0.6548588699772954,-0.18364775418285278
1772536755124214000,9.035214111328125,0.7354775903075933,-0.6973293536990881,-0.19321171960821373
1772536755134262800,9.0452626953125,0.706503424757719,-0.7163666471242904,-0.20257915781447663
1772536755144311000,9.05531103515625,0.6591729337841272,-0.706936263217032,-0.232423932186421
1772536755154359800,9.06535986328125,0.6054056877613068,-0.6964350352078675,-0.2679443045093678
1772536755164408800,9.075408935546875,0.5671469765156507,-0.6381538188919424,-0.2946922819097526
1772536755174457900,9.085457763671876,0.6363146207660436,-0.6096522392898798,-0.2887171164902858
1772536755184505900,9.095505859375,0.642860096886754,-0.5822407930120825,-0.2453661236069165
1772536755194555000,9.105554931640626,0.6379547891885042,-0.5983905483022331,-0.22126716287797316
1772536755204604000,9.11560400390625,0.649160073813796,-0.6615683044880628,-0.15939623324070124
1772536755214652000,9.12565185546875,0.6028519116252661,-0.7063178390577435,-0.1092111565535888
1772536755224701000,9.135700927734375,0.5690858356237412,-0.7856675623655319,-0.07445544846020638
1772536755234749700,9.145749755859375,0.5547101042687893,-0.8425549862354993,-0.04149414950292557
1772536755244798000,9.1557978515625,0.5016209036380053,-0.8882219279110432,0.02844648841395974
1772536755254846700,9.1658466796875,0.44160102696120734,-0.9223109522566199,0.03945256067272276
1772536755264896000,9.17589599609375,0.4356172763764858,-0.9491378766447305,0.022919578218646347
1772536755274943700,9.18594384765625,0.37534839337468145,-0.9717854695215821,0.03712568862773478
1772536755284993000,9.195992919921874,0.22981004162728785,-0.9984574956089257,0.023660203985497355
1772536755295041800,9.206041748046875,0.11520166567265987,-0.9991966235384344,0.009871697933971881
1772536755305090000,9.216090087890626,0.031070845568180083,-0.9708031804859638,-0.05032145295049995
1772536755315138800,9.226138916015625,-0.008250526472926139,-0.9272600990965962,-0.10912888509761541
1772536755325187800,9.236187744140626,0.010852817925810812,-0.8690607158452271,-0.12065149204377085
1772536755335236900,9.24623681640625,-0.010482815569639205,-0.7907257225379347,-0.13245799396522343
1772536755345284900,9.256284912109376,-0.03917582609057426,-0.7239058104574679,-0.13944324974268674
1772536755355334000,9.266333984375,-0.07005962465405463,-0.700960695938766,-0.08188910559229552
1772536755365383000,9.2763828125,-0.07303834820389747,-0.8198696916967629,0.06608224545568227
1772536755375431000,9.286430908203124,-0.25986206554174424,-0.9482575866788625,0.19127401127759366
1772536755385480000,9.29647998046875,-0.5600491272091865,-0.9151271782323718,0.21954912518002093
1772536755395528700,9.30652880859375,-0.8261866197586059,-0.8995467472627758,0.2866900493757799
1772536755405577000,9.316576904296875,-1.066678798919916,-0.9267959887161851,0.32525684018991885
1772536755415625700,9.326625732421874,-1.3051806810468434,-0.7764955371335148,0.22091728999437762
1772536755425674000,9.336674072265625,-1.51007664617002,-0.4358981391444802,0.08288436370734124
1772536755435722800,9.34672265625,-1.54594057123363,-0.04390665400475263,-0.10704531115605495
1772536755445772000,9.35677197265625,-1.3522212491631507,0.2968263530626893,-0.24258754400536417
1772536755455820500,9.366820556640626,-1.0816817222625017,0.5690855433627963,-0.27088907099068166
1772536755465868800,9.376868896484375,-0.8421335459530354,0.7684916788980365,-0.203557665724121
1772536755475917600,9.38691748046875,-0.6286836874961853,0.8703641996592283,-0.04939668452208861
1772536755485966600,9.396966552734375,-0.5925947215050459,0.93383655487746,0.1438810860596597
1772536755496014600,9.4070146484375,-0.5781979473620653,0.9301520211458205,0.33196846665777263
1772536755506063600,9.417063720703124,-0.45661213361024855,0.8894839106708764,0.5350579668808728
1772536755516112600,9.427112548828125,-0.2942711156219244,0.8425237143144011,0.6487955513503402
1772536755526160600,9.43716064453125,-0.08203706269562244,0.8015794172465801,0.7162662554897368
1772536755536209700,9.447209716796875,-0.04503799612224102,0.7923454326942563,0.7774990881528705
1772536755546258700,9.4572587890625,-0.16816051792204378,0.7743576483219862,0.8556584326323121
1772536755556306700,9.467306640625,-0.2962234187334776,0.7883692225396632,0.8622701789222658
1772536755566355700,9.477355712890626,-0.32882804974019525,0.8635019126743078,0.7328037679884583
1772536755576404500,9.487404541015625,-0.2897849101185799,0.9234329420238733,0.6107207453042268
1772536755586452700,9.49745263671875,-0.3223614840745926,0.9590335399761796,0.5066394989849999
1772536755596501500,9.50750146484375,-0.3735936586618423,0.9410136068999767,0.433170540811494
1772536755606550800,9.51755078125,-0.40297289788126944,0.936952933332324,0.41058410353735086
1772536755616599600,9.527599609375,-0.430605585694313,0.8982166677027941,0.4231849341742694
1772536755626647800,9.537647705078125,-0.43950493146479125,0.8263838958963752,0.45416868598088617
1772536755636696600,9.547696533203125,-0.4532780207514763,0.8301847494840622,0.4372031573284417
1772536755646745600,9.55774560546875,-0.476141594466567,0.8640072318479418,0.4318293918682262
1772536755656793600,9.567793701171874,-0.5067565129607916,0.8780717052966356,0.4249571314785629
1772536755666842600,9.577842529296875,-0.45278059262335296,0.8849544505476951,0.3582710383782163
1772536755676891600,9.5878916015625,-0.31991350640058513,0.8590563314422964,0.2915286667796783
1772536755686939600,9.597939697265625,-0.28457857364714145,0.8435214931800961,0.2596231239530258
1772536755696988700,9.60798876953125,-0.14009119225740432,0.7986430715337395,0.22273551839748396
1772536755707037700,9.61803759765625,0.11392214725613593,0.7552507967919111,0.2210260658647865
1772536755717085700,9.628085693359376,0.3040916678905487,0.7080182132348418,0.3141452617300674
1772536755727134700,9.638134765625,0.46221126879155633,0.6139893917113542,0.43714930824935433
1772536755737183500,9.64818359375,0.7114432192474603,0.49128012688755984,0.5405035189356655
1772536755747232800,9.658232666015625,0.863891204252839,0.3806201962977648,0.6354710826139897
1772536755757280500,9.668280517578125,0.8927578177750111,0.22926234461665151,0.7173322772860526
1772536755767329800,9.678329833984375,0.9775625916182994,0.08419833238273859,0.7509858328238129
1772536755777378600,9.688378662109375,1.1030009891450405,0.016328618988394737,0.7443018250152468
1772536755787426800,9.6984267578125,1.0389309602946042,-0.06769143421798944,0.7840556701894849
1772536755797475600,9.7084755859375,0.858549843224883,-0.12911679377853869,0.812785432524234
1772536755807524600,9.718524658203124,0.7172545358747243,-0.1538864933758974,0.6951276058711111
1772536755817572600,9.728572509765625,0.728503075119853,-0.13406974001079797,0.5540675320489332
1772536755827621600,9.73862158203125,0.7744353897333145,-0.0740998399555683,0.43598914189618077
1772536755837670700,9.748670654296875,0.6789858877569437,-0.03361936100721359,0.35897593524456023
1772536755847718700,9.75871875,0.654805386224389,0.007520458632707595,0.3282871843291446
1772536755857767700,9.768767578125,0.5857581534832715,0.05653729525804519,0.33460005727037784
1772536755867816700,9.778816650390626,0.5788683939695358,0.058144730454683304,0.2896553837210871
1772536755877864700,9.78886474609375,0.8806208052575588,-0.03282470349818468,0.2781899685885757
1772536755887913700,9.798913818359376,0.8361579786747694,-0.13964111040234564,0.41099429177343844
1772536755897962500,9.80896240234375,0.4725082064002752,-0.3639069619059562,0.5137207990154624
1772536755908011800,9.81901171875,0.1834048488050699,-0.5411009733721613,0.6378365696363151
1772536755918059500,9.8290595703125,0.20898528026342392,-0.5155126508682966,0.5028224614474922
1772536755928108800,9.83910888671875,0.3765449096828699,-0.45496962710022926,0.39028413323257116
1772536755938157600,9.849157470703124,0.08584405376315116,-0.4019283572643995,0.4710900832306593
1772536755948205800,9.859205810546875,-0.04184592208266258,-0.41495764244645833,0.4332738550554961
