time,seconds_elapsed,z,y,x
1772572916288550000,0.0745498046875,10.628918647766113,2.1272194385528564,-0.07058826833963394
1772572916306386000,0.092385986328125,10.560722351074219,2.0883359909057617,-0.09870393574237823
1772572916324223500,0.110223388671875,10.255638122558594,2.1756739616394043,-0.19740787148475647
1772572916342063900,0.12806396484375,9.896116256713867,2.159522533416748,-0.364905446767807
1772572916359907600,0.145907470703125,8.914461135864258,1.425524115562439,-0.9248259663581848
1772572916377738800,0.16373876953125,8.39282512664795,2.6350958347320557,-0.5706881880760193
1772572916395573800,0.18157373046875,7.199405193328857,2.492722988128662,-0.19980068504810333
1772572916413408300,0.199408203125,7.463213920593262,2.297708034515381,-0.3607180118560791
1772572916431243500,0.217243408203125,7.387241840362549,2.4155545234680176,-0.26560330390930176
1772572916449079000,0.2350791015625,6.704689025878906,2.736790895462036,-0.02632104977965355
1772572916466914000,0.2529140625,6.1573309898376465,2.964707374572754,0.3936193287372589
1772572916484737000,0.270737060546875,7.016354084014893,2.820539712905884,1.0510473251342773
1772572916502584000,0.288583984375,7.428517818450928,2.1343977451324463,1.5517455339431763
1772572916520414500,0.30641455078125,5.181657314300537,1.1928220987319946,1.1988041400909424
1772572916538254000,0.324254150390625,5.093122959136963,0.42412781715393066,0.09930214285850525
1772572916556089300,0.34208935546875,3.11246395111084,0.18723836541175842,-0.3002992272377014
1772572916573924400,0.35992431640625,5.386841773986816,1.0348957777023315,-0.02632104977965355
1772572916591759600,0.377759521484375,9.109476089477539,2.2360928058624268,1.0845468044281006
1772572916609594600,0.3955947265625,10.051650047302246,3.394218921661377,0.11844471842050552
1772572916627429600,0.4134296875,10.447063446044922,5.5621161460876465,-1.042074203491211
1772572916645264600,0.4312646484375,14.875579833984375,7.334599494934082,0.19980068504810333
1772572916663099600,0.449099609375,19.34776496887207,7.637889862060547,0.4378865361213684
1772572916680935000,0.466934814453125,18.77229118347168,7.073183536529541,-1.2729816436767578
1772572916698770400,0.4847705078125,16.615760803222656,5.343173027038574,-3.476771354675293
1772572916716605700,0.502605712890625,16.168901443481445,5.0703911781311035,-3.7292141914367676
1772572916734440200,0.520440185546875,18.94696807861328,9.371489524841309,-3.0370900630950928
1772572916752275200,0.538275146484375,10.859825134277344,9.595218658447266,-2.1708884239196777
1772572916770097700,0.55609765625,10.897512435913086,11.441879272460938,-0.6771687865257263
1772572916787932400,0.573932373046875,11.44965648651123,7.788637638092041,-0.8614161610603333
1772572916805783600,0.591783447265625,9.847661972045898,4.839483737945557,-2.056631088256836
1772572916823609600,0.609609619140625,5.6823554039001465,3.67238450050354,-1.2873386144638062
1772572916841451000,0.627450927734375,4.0426740646362305,2.946761131286621,-0.10767702013254166
1772572916859286000,0.6452861328125,5.84446907043457,1.5343974828720093,1.1575279235839844
1772572916877121000,0.66312109375,6.4456658363342285,2.369492530822754,3.6879379749298096
1772572916894956500,0.68095654296875,5.642873764038086,1.4745769500732422,3.885345697402954
1772572916912790800,0.698790771484375,5.641079425811768,1.1563315391540527,2.438286304473877
1772572916930626000,0.7166259765625,5.78644323348999,0.04426721855998039,1.3836497068405151
1772572916948458500,0.73445849609375,6.046064376831055,-0.27337998151779175,0.18484555184841156
1772572916966299600,0.752299560546875,6.250650882720947,-0.1094716340303421,0.2787638306617737
1772572916984127700,0.770127685546875,4.453640937805176,1.0456634759902954,1.0235298871994019
1772572917001967000,0.787967041015625,2.3988046646118164,2.592623233795166,1.923829436302185
1772572917019802000,0.805802001953125,2.9186453819274902,3.2165517807006836,0.9798609018325806
1772572917037639400,0.823639404296875,5.8851470947265625,1.7629120349884033,-0.7226324677467346
1772572917055471900,0.841471923828125,8.674580574035645,-0.08554340898990631,-1.5499508380889893
1772572917073307000,0.859306884765625,9.265008926391602,-0.24945175647735596,-1.0013962984085083
1772572917091142000,0.877141845703125,8.199604988098145,0.7040880918502808,0.6831508874893188
1772572917108964900,0.89496484375,6.3391852378845215,1.0654042959213257,2.4783661365509033
1772572917126812200,0.912812255859375,4.89272403717041,1.6875381469726562,2.306680917739868
1772572917144647400,0.9306474609375,5.253442287445068,0.7734799385070801,1.0618150234222412
1772572917162482400,0.948482421875,7.946564197540283,0.029312077909708023,0.4097708761692047
1772572917180313600,0.966313720703125,9.781859397888184,1.0325030088424683,1.1407781839370728
1772572917198152700,0.984152587890625,7.191628456115723,3.2745778560638428,2.9353952407836914
1772572917215986400,1.001986328125,10.965707778930664,3.043670415878296,2.376671075820923
1772572917233824500,1.019824462890625,16.597814559936523,2.7798616886138916,0.20039889216423035
1772572917251657700,1.03765771484375,19.301105499267578,4.48833703994751,1.222732424736023
1772572917269493000,1.055492919921875,21.623340606689453,4.0420756340026855,1.384247899055481
1772572917287318000,1.073318115234375,21.152551651000977,5.292923450469971,0.5443671345710754
1772572917305163500,1.09116357421875,19.56192398071289,9.800403594970703,1.9770697355270386
1772572917322998000,1.108998046875,21.644277572631836,10.3890380859375,2.6428725719451904
1772572917340833300,1.126833251953125,20.090736389160156,8.763114929199219,-3.555734395980835
1772572917358668500,1.14466845703125,14.673386573791504,7.696514129638672,-7.761718273162842
1772572917376503600,1.162503662109375,15.011971473693848,5.253442287445068,-6.3738813400268555
1772572917394338800,1.1803388671875,9.953543663024902,4.063013076782227,-4.674378871917725
1772572917412173600,1.198173583984375,2.6967110633850098,6.019145488739014,-4.024727821350098
1772572917430008800,1.2160087890625,-0.23808585107326508,6.737590312957764,0.2267199456691742
1772572917447841000,1.233841064453125,-0.27756741642951965,4.526622295379639,1.0923235416412354
1772572917465682200,1.25168212890625,0.08315058797597885,3.586242914199829,0.052043892443180084
1772572917483500500,1.26950048828125,-3.1405797004699707,0.6927221417427063,-1.2287144660949707
1772572917501338000,1.287338134765625,0.5156532526016235,1.1694921255111694,-1.088136076927185
1772572917519172400,1.30517236328125,1.5595221519470215,1.8610178232192993,-0.4366901218891144
1772572917537022200,1.323022216796875,1.4165509939193726,2.4053850173950195,-0.5802595019340515
1772572917554854100,1.340854248046875,2.685943365097046,1.7443677186965942,0.10169496387243271
1772572917572686000,1.35868603515625,4.195216178894043,1.079761266708374,0.5300102233886719
1772572917590527500,1.376527587890625,6.966702938079834,0.6329016089439392,0.5431707501411438
1772572917608359200,1.394359130859375,7.945367813110352,0.2386840581893921,0.6999006271362305
1772572917626194400,1.4121943359375,5.9676995277404785,0.5712863802909851,0.3577269911766052
1772572917644029700,1.43002978515625,4.993222713470459,0.33798620104789734,-0.41156548261642456
1772572917661864700,1.44786474609375,4.615156650543213,0.11665010452270508,-0.21296121180057526
1772572917679700000,1.465699951171875,5.182853698730469,-0.19740787148475647,-0.01136590726673603
1772572917697535000,1.483534912109375,5.6554365158081055,-0.17647066712379456,0.17347964644432068
1772572917715370200,1.501370361328125,7.2472615242004395,-0.9912267923355103,-0.09391828626394272
1772572917733205000,1.519205078125,7.356733322143555,-2.1068804264068604,-1.0265209674835205
1772572917751040300,1.537040283203125,7.2921271324157715,-1.506281852722168,-1.4883357286453247
1772572917768872700,1.554872802734375,5.575276851654053,-0.711864709854126,-2.063809633255005
1772572917786713600,1.572713623046875,5.735595703125,0.8255237936973572,-1.8269200325012207
1772572917804545800,1.5905458984375,8.6907320022583,2.764906644821167,-0.2679961323738098
1772572917822377200,1.608377197265625,11.108678817749023,1.7407784461975098,0.5467599630355835
1772572917840219000,1.626218994140625,19.643877029418945,1.5038890838623047,-0.08554340898990631
1772572917858050800,1.64405078125,27.909883499145508,2.007578134536743,0.37926238775253296
1772572917875885000,1.661885009765625,27.1806697845459,1.2675977945327759,2.2576282024383545
1772572917893721900,1.679721923828125,24.889543533325195,1.0959128141403198,1.5589239597320557
1772572917911555800,1.697555908203125,23.581266403198242,3.008376359939575,-2.3910279273986816
1772572917929390800,1.715390869140625,20.793628692626953,4.7611188888549805,-1.3010972738265991
1772572917947226000,1.73322607421875,17.53281021118164,7.025925636291504,0.7178468108177185
1772572917965061400,1.751061279296875,18.66282081604004,5.364708423614502,0.22432711720466614
1772572917982896000,1.768896240234375,17.745771408081055,4.108476638793945,-0.26081767678260803
1772572918000731400,1.7867314453125,13.825729370117188,4.126422882080078,-0.7399803996086121
1772572918018566400,1.80456640625,9.927821159362793,4.380061626434326,-0.5312066078186035
1772572918036401400,1.8224013671875,2.62313175201416,5.249852657318115,-0.11605189740657806
1772572918054236700,1.840236572265625,-2.02492618560791,3.5371899604797363,-0.16869398951530457
1772572918072071700,1.85807177734375,-0.09631111472845078,0.9032905697822571,-0.527019202709198
1772572918089903400,1.8759033203125,3.2069804668426514,-0.18424734473228455,-0.49591249227523804
1772572918107741700,1.89374169921875,4.158725738525391,0.9852447509765625,-0.6346961855888367
1772572918125577000,1.911576904296875,2.108076810836792,0.7938188910484314,0.04785645380616188
1772572918143412200,1.929412109375,1.9298114776611328,1.551147222518921,1.3758729696273804
1772572918161244000,1.947243896484375,3.425325632095337,1.7790635824203491,1.308275818824768
1772572918179085300,1.965085205078125,4.387838363647461,1.4123635292053223,0.4091726839542389
1772572918196917000,1.9829169921875,4.116851329803467,0.9828519225120544,-0.43968117237091064
1772572918214752800,2.000752685546875,2.2241287231445312,0.8554341197013855,-0.26440688967704773
1772572918232587500,2.01858740234375,0.6323033571243286,0.7280163168907166,0.09631111472845078
1772572918250401800,2.03640185546875,0.4588237404823303,0.5790630578994751,0.20578274130821228
1772572918268243500,2.054243408203125,1.6109678745269775,0.3577269911766052,-0.0771685317158699
1772572918286080000,2.072080078125,2.8803603649139404,-0.19740787148475647,-0.6221339106559753
1772572918303928600,2.089928466796875,2.616551637649536,0.047258246690034866,-0.8213363885879517
1772572918321761800,2.10776171875,2.520838737487793,0.23389841616153717,-1.048654556274414
1772572918339597000,2.12559716796875,2.933002471923828,1.3621143102645874,-1.052243709564209
1772572918357432300,2.143432373046875,3.9523448944091797,2.4023938179016113,-0.12263216078281403
1772572918375267600,2.161267578125,5.062614440917969,2.9718856811523438,1.9298114776611328
1772572918393102600,2.1791025390625,13.221541404724121,0.8805587291717529,2.213959217071533
1772572918410937300,2.196937255859375,27.443283081054688,-0.7770691514015198,1.5966109037399292
1772572918428772400,2.2147724609375,35.02613830566406,1.1282159090042114,1.2693923711776733
1772572918446607600,2.232607666015625,27.259634017944336,0.21176479756832123,0.9343972206115723
1772572918464439000,2.25043896484375,23.617158889770508,0.9690931439399719,2.122433662414551
1772572918482277000,2.268277099609375,25.182065963745117,2.286342144012451,2.9174489974975586
1772572918500113200,2.286113037109375,23.106889724731445,4.7234320640563965,2.7044878005981445
1772572918517956400,2.303956298828125,18.27159309387207,6.2877397537231445,1.8628123998641968
1772572918535784200,2.3217841796875,16.006786346435547,7.810173034667969,1.8442680835723877
1772572918553617400,2.339617431640625,14.259428024291992,8.578269004821777,2.310270309448242
1772572918571453700,2.35745361328125,11.050054550170898,8.33719253540039,1.6971094608306885
1772572918589288200,2.3752880859375,6.687341213226318,6.347560405731201,-0.12801600992679596
1772572918607123500,2.39312353515625,4.180859565734863,5.071587562561035,-0.33798620104789734
1772572918624958700,2.410958740234375,4.025924205780029,4.057629108428955,1.5846468210220337
1772572918642793500,2.42879345703125,4.579264163970947,3.050250768661499,2.7762725353240967
1772572918660628700,2.446628662109375,4.078566074371338,2.169692039489746,3.145963668823242
1772572918678463700,2.464463623046875,3.2853455543518066,1.290927767753601,2.565704107284546
1772572918696299000,2.482299072265625,2.2301106452941895,0.11904292553663254,0.5569294691085815
1772572918714121700,2.500121826171875,1.042074203491211,-0.10827522724866867,-1.0325030088424683
1772572918731969300,2.51796923828125,0.6909275650978088,-0.3798605799674988,-1.3770694732666016
1772572918749791700,2.535791748046875,1.4913266897201538,-0.11425728350877762,-0.9457631707191467
1772572918767639300,2.553639404296875,3.0340991020202637,0.33918261528015137,-0.18125630915164948
1772572918785474600,2.571474609375,3.76570463180542,0.23389841616153717,-0.15972091257572174
1772572918803309600,2.5893095703125,3.569493293762207,0.17527425289154053,-0.3367897868156433
1772572918821144600,2.60714453125,3.1998021602630615,0.22432711720466614,-0.12143574655056
1772572918838979600,2.6249794921875,3.5461630821228027,0.29312077164649963,0.09810572862625122
1772572918856814800,2.64281494140625,3.854238986968994,0.12263216078281403,0.035892341285943985
1772572918874650000,2.660650146484375,4.589433670043945,-0.33379876613616943,-0.17168502509593964
1772572918892484900,2.67848486328125,4.53200626373291,-0.3038884699344635,-0.6323033571243286
1772572918910320000,2.696320068359375,3.978067636489868,0.6556333899497986,-0.5952146053314209
1772572918928151000,2.714151123046875,3.3026933670043945,2.2193429470062256,-0.2667997181415558
1772572918945990400,2.731990478515625,4.809573650360107,3.6813576221466064,-0.33918261528015137
1772572918963825200,2.7498251953125,6.174080848693848,4.2831525802612305,-0.3367897868156433
1772572918981660700,2.76766064453125,8.325227737426758,4.246662139892578,0.9571290612220764
1772572918999495700,2.78549560546875,15.379867553710938,4.295714855194092,1.0923235416412354
1772572919017331200,2.803331298828125,19.268203735351562,3.5808591842651367,0.5180460810661316
1772572919035165700,2.821165771484375,19.354944229125977,1.6013965606689453,1.2011969089508057
1772572919053001000,2.8390009765625,20.9706974029541,0.7363911867141724,3.757927894592285
1772572919070836000,2.8568359375,24.744178771972656,2.337787628173828,5.602196216583252
1772572919088671200,2.874671142578125,25.791637420654297,3.930809497833252,6.919445037841797
1772572919106501400,2.89250146484375,24.251256942749023,3.6095728874206543,7.226922512054443
1772572919124332500,2.91033251953125,22.213171005249023,3.696312665939331,6.94038200378418
1772572919142176500,2.928176513671875,19.89153480529785,4.359124660491943,5.8959150314331055
1772572919160011500,2.946011474609375,16.00738525390625,4.49252462387085,3.9116668701171875
1772572919177847000,2.963846923828125,10.216156005859375,3.601198196411133,2.373081922531128
1772572919195681800,2.981681884765625,6.815357208251953,3.4301111698150635,1.7754744291305542
1772572919213517300,2.999517333984375,4.9878387451171875,4.197608947753906,1.7539390325546265
1772572919231352300,3.017352294921875,3.160918712615967,2.9216363430023193,2.438286304473877
1772572919249187000,3.03518701171875,2.5196423530578613,1.3920245170593262,2.462214469909668
1772572919267022300,3.053022216796875,4.278367042541504,0.9110672473907471,1.109073281288147
1772572919284857300,3.070857421875,5.336592674255371,1.2562319040298462,0.038285162299871445
1772572919302678800,3.0886787109375,4.784449100494385,1.1156535148620605,-0.3762713670730591
1772572919320529000,3.10652880859375,2.967100143432617,1.0396814346313477,-0.1537388563156128
1772572919338362600,3.124362548828125,1.506281852722168,0.8871390223503113,-0.15613168478012085
1772572919356197600,3.14219775390625,1.0211371183395386,0.07597211748361588,-0.29850462079048157
1772572919374032600,3.16003271484375,3.3984062671661377,0.2757728099822998,-0.7513462901115417
1772572919391868000,3.177867919921875,5.355136871337891,0.7166503667831421,-0.6640082597732544
1772572919409703000,3.195702880859375,6.410970211029053,0.8356932997703552,-0.37028929591178894
1772572919427538200,3.2135380859375,5.584249973297119,0.5910272002220154,-0.09571290761232376
1772572919445373400,3.23137353515625,3.9194436073303223,0.12442677468061447,-0.18484555184841156
1772572919463208700,3.249208740234375,2.7571299076080322,-0.5335994362831116,-0.4289134442806244
1772572919481031700,3.26703173828125,1.939382791519165,-0.47976094484329224,-1.0342975854873657
1772572919498867000,3.284866943359375,1.677966833114624,-0.05922235921025276,-1.4979069232940674
1772572919516702700,3.30270263671875,1.0737791061401367,0.8530412912368774,-2.128415822982788
1772572919534536700,3.32053662109375,2.2019951343536377,2.241476535797119,-2.0027925968170166
1772572919552373000,3.338373046875,3.55214524269104,4.086941242218018,-1.2035897970199585
1772572919570219000,3.356218994140625,5.158925533294678,5.054837703704834,-1.7850457429885864
1772572919588041700,3.374041748046875,10.380064964294434,6.333801746368408,-2.2468605041503906
1772572919605889500,3.3918896484375,19.20180320739746,8.004590034484863,0.02751746028661728
1772572919623710200,3.409710205078125,20.86421775817871,6.282954216003418,1.8065811395645142
1772572919641559800,3.427559814453125,21.9146671295166,4.322035789489746,0.966102123260498
1772572919659394600,3.44539453125,26.09014129638672,4.136591911315918,-0.364905446767807
1772572919677229800,3.463229736328125,27.248268127441406,5.698507308959961,-0.29790642857551575
1772572919695065300,3.4810654296875,23.645275115966797,7.723433494567871,1.1593226194381714
1772572919712900000,3.498900146484375,19.698314666748047,7.420143127441406,1.2544373273849487
1772572919730735000,3.516735107421875,16.953746795654297,5.901298999786377,0.46719861030578613
1772572919748552200,3.53455224609375,15.42473316192627,5.168497085571289,-0.07357929646968842
1772572919766409000,3.552408935546875,14.66381549835205,4.40757942199707,-0.1788634955883026
1772572919784242000,3.570241943359375,12.327223777770996,3.9846479892730713,0.5712863802909851
1772572919802077000,3.588076904296875,7.193423271179199,4.719244480133057,2.1708884239196777
1772572919819912000,3.605911865234375,3.483351469039917,3.84765887260437,2.286940336227417
1772572919837747000,3.623746826171875,3.004786968231201,1.7234305143356323,0.9577272534370422
1772572919855582000,3.64158203125,4.128815650939941,-0.0005982056609354913,-0.664606511592865
1772572919873417200,3.659417236328125,4.822135925292969,-0.3086741268634796,-1.485344648361206
1772572919891239700,3.67723974609375,5.522634506225586,0.27038896083831787,-1.064207911491394
1772572919909087200,3.695087158203125,3.970889091491699,1.1994023323059082,-0.0771685317158699
1772572919926920200,3.712920166015625,1.339382529258728,2.1846470832824707,0.9804590940475464
1772572919944758000,3.730758056640625,0.8925228714942932,2.4364917278289795,1.2765709161758423
1772572919962592500,3.748592529296875,2.307279348373413,2.0129621028900146,0.9463613629341125
1772572919980416300,3.766416259765625,3.2823543548583984,1.3962119817733765,0.24885354936122894
1772572919998263300,3.78426318359375,3.772284984588623,0.7920243144035339,-0.07058826833963394
1772572920016098000,3.80209814453125,4.022335052490234,0.6909275650978088,0.09152546525001526
1772572920033921500,3.819921630859375,3.2608189582824707,0.7076773047447205,0.46061834692955017
1772572920051768600,3.8377685546875,2.286342144012451,0.6221339106559753,0.6035895347595215
1772572920069603600,3.855603515625,1.7102699279785156,0.7160521745681763,0.6963114142417908
1772572920087438800,3.87343896484375,1.540379524230957,0.14715859293937683,0.4654040038585663
1772572920105273900,3.89127392578125,2.2851455211639404,-0.25782662630081177,-0.34576287865638733
1772572920123108600,3.909108642578125,2.8624141216278076,-0.3475574851036072,-1.3465609550476074
1772572920140944000,3.92694384765625,3.1746773719787598,0.6747759580612183,-1.469791293144226
1772572920158779000,3.94477880859375,3.04307222366333,2.782254457473755,-0.7082754969596863
1772572920176614000,3.96261376953125,5.845067501068115,4.600799560546875,0.7202396392822266
1772572920194449200,3.98044921875,10.229914665222168,5.030909538269043,0.638883650302887
1772572920212284200,3.9982841796875,14.671591758728027,5.31984281539917,0.6993024349212646
1772572920230119400,4.016119384765625,19.706689834594727,4.817948341369629,2.2097716331481934
1772572920247954700,4.03395458984375,23.458635330200195,4.012165546417236,0.7830511927604675
1772572920265790000,4.0517900390625,21.884157180786133,4.8059844970703125,-0.5162515044212341
1772572920283624700,4.069624755859375,20.584854125976562,6.224329948425293,1.8191434144973755
1772572920301460000,4.0874599609375,23.15713882446289,6.559325218200684,4.997410297393799
1772572920319295000,4.105294921875,25.369304656982422,5.989234924316406,4.551746845245361
1772572920337130000,4.1231298828125,25.517061233520508,5.023132801055908,3.2955150604248047
1772572920354956800,4.140956787109375,23.676382064819336,4.035495281219482,1.7772690057754517
1772572920372787700,4.15878759765625,19.59602165222168,3.7052857875823975,-0.7872386574745178
1772572920390623200,4.176623291015625,9.022735595703125,4.336392879486084,-1.2562319040298462
1772572920408470800,4.194470703125,0.877567708492279,6.656234264373779,2.809173822402954
1772572920426289200,4.2122890625,3.0544381141662598,5.760122299194336,5.124827861785889
1772572920444140800,4.230140869140625,9.90688419342041,2.241476535797119,3.7531423568725586
1772572920461975800,4.247975830078125,12.381660461425781,0.638883650302887,1.184447169303894
1772572920479799000,4.265799072265625,9.369695663452148,0.7040880918502808,0.5132604837417603
1772572920497646300,4.283646240234375,3.2997024059295654,1.7365909814834595,0.8159525394439697
1772572920515481900,4.30148193359375,0.18424734473228455,1.8508483171463013,0.9732806086540222
1772572920533313300,4.319313232421875,0.41096729040145874,1.5894324779510498,0.6454638838768005
1772572920551151400,4.3371513671875,2.7397818565368652,0.5318048596382141,-0.267397940158844
1772572920568989700,4.35498974609375,4.085744857788086,0.2183450609445572,-0.9044869542121887
1772572920586816800,4.372816650390625,4.274777889251709,0.10049854964017868,-0.7459624409675598
1772572920604658400,4.390658447265625,2.4915266036987305,0.4247260093688965,0.09391828626394272
1772572920622488800,4.40848876953125,0.8949156403541565,0.5437689423561096,0.8620143532752991
1772572920640314000,4.426314208984375,1.5583257675170898,0.3762713670730591,1.5308083295822144
1772572920658167300,4.444167236328125,4.326223373413086,-0.251844584941864,1.5487544536590576
1772572920675984100,4.461984130859375,6.221338748931885,-0.47557350993156433,0.7334001660346985
1772572920693822000,4.479822021484375,6.434898376464844,-1.0426725149154663,-0.12442677468061447
1772572920711666700,4.497666748046875,5.470590591430664,-1.5224334001541138,-0.6759724020957947
1772572920729501400,4.51550146484375,4.5924248695373535,-1.3543375730514526,-0.9337990283966064
1772572920747335700,4.533335693359375,4.376472473144531,-0.2883351147174835,-1.1497513055801392
1772572920765173200,4.55117333984375,4.312464714050293,1.3028919696807861,-1.7138592004776
1772572920783006500,4.56900634765625,6.1669020652771,2.3222343921661377,-1.975873351097107
1772572920800842800,4.5868427734375,10.464411735534668,2.575873613357544,-1.922034740447998
1772572920818677000,4.604677001953125,16.30170249938965,3.0107691287994385,-1.8095721006393433
1772572920836512300,4.62251220703125,20.90190315246582,3.181257724761963,-0.4941178858280182
1772572920854347300,4.64034716796875,20.32343864440918,5.512465000152588,1.710868239402771
1772572920872182500,4.6581826171875,16.109079360961914,6.602396011352539,1.9405791759490967
1772572920890017300,4.676017333984375,18.037694931030273,6.052644729614258,-0.5246263742446899
1772572920907852500,4.6938525390625,19.588842391967773,6.376274108886719,-1.3160524368286133
1772572920925675800,4.71167578125,16.063018798828125,8.671588897705078,0.04785645380616188
1772572920943523300,4.7295234375,12.701102256774902,10.004989624023438,-0.8398807644844055
1772572920961357800,4.74735791015625,14.965909004211426,7.627122402191162,-0.3978067636489868
1772572920979193000,4.765193115234375,19.85923194885254,5.027320384979248,0.706480860710144
1772572920997028400,4.7830283203125,19.26940155029297,4.609174728393555,0.6376872062683105
1772572921014863600,4.800863525390625,14.531013488769531,4.453640937805176,0.07357929646968842
1772572921032697300,4.818697265625,8.998807907104492,4.0666022300720215,-0.32243284583091736
1772572921050535000,4.836534912109375,6.93619441986084,3.8871402740478516,0.7052844762802124
1772572921068368600,4.85436865234375,7.120441913604736,2.9036903381347656,1.6145570278167725
1772572921086204000,4.872203857421875,5.5830535888671875,1.3914263248443604,1.0103694200515747
1772572921104039200,4.8900390625,4.231108665466309,0.5419743061065674,0.3332005441188812
1772572921121873700,4.907873779296875,2.730210542678833,0.6628118753433228,0.9200403094291687
1772572921139709200,4.925709228515625,1.8616160154342651,1.3106685876846313,1.8424733877182007
1772572921157544000,4.9435439453125,2.977867841720581,1.0217353105545044,1.7102699279785156
1772572921175367000,4.961366943359375,4.277768611907959,-0.275174617767334,-0.12263216078281403
1772572921193214500,4.97921435546875,5.705685615539551,-0.4498506486415863,-1.007378339767456
1772572921211049200,4.99704931640625,5.00578498840332,-0.08075776696205139,-0.6747759580612183
1772572921228884500,5.014884521484375,2.878565549850464,0.5204389095306396,-0.0568295381963253
1772572921246719700,5.0327197265625,3.053241729736328,1.2197413444519043,1.4177473783493042
1772572921264548000,5.050548095703125,4.73300313949585,1.3112667798995972,1.5649060010910034
1772572921282390000,5.06839013671875,3.6119658946990967,0.1537388563156128,0.4253242313861847
1772572921300224800,5.086224853515625,0.7465606927871704,-0.22193430364131927,-0.24586252868175507
1772572921318062800,5.104062744140625,2.8073792457580566,0.43609192967414856,-0.25782662630081177
1772572921335895000,5.12189501953125,5.256433010101318,0.2997010350227356,0.4103690981864929
1772572921353717200,5.13971728515625,6.763911247253418,2.050050735473633,-0.5048855543136597
1772572921371565800,5.15756591796875,6.171687602996826,1.7988044023513794,-2.3024935722351074
1772572921389400600,5.175400634765625,5.763711452484131,0.0891326442360878,-0.7214360237121582
1772572921407235600,5.193235595703125,7.424928665161133,0.7369893789291382,0.22911277413368225
1772572921425062100,5.211062255859375,12.705289840698242,1.6223337650299072,0.05024927482008934
1772572921442905600,5.228905517578125,16.603199005126953,1.0396814346313477,-1.3459627628326416
1772572921460740600,5.24674072265625,18.546768188476562,1.973480463027954,-0.7603194117546082
1772572921478563000,5.26456298828125,19.136001586914062,3.514458179473877,2.15653133392334
1772572921496410000,5.28241015625,18.134605407714844,5.423930644989014,2.5633113384246826
1772572921514237400,5.300237548828125,19.855642318725586,5.489135265350342,2.6494529247283936
1772572921532081400,5.318081298828125,22.481765747070312,5.011168956756592,3.242872953414917
1772572921549916200,5.335916259765625,21.43370819091797,5.420939922332764,3.1746773719787598
1772572921567751700,5.353751708984375,18.2225399017334,6.425326824188232,2.7726831436157227
1772572921585586700,5.371586669921875,16.713865280151367,6.33798885345459,2.3090739250183105
1772572921603421400,5.38942138671875,9.482755661010742,6.468397617340088,-2.6470601558685303
1772572921621256000,5.407255859375,13.666007995605469,3.249453067779541,-1.6576279401779175
1772572921639092700,5.4250927734375,11.663813591003418,4.17726993560791,1.01814603805542
1772572921656926700,5.4429267578125,9.945767402648926,4.448855400085449,3.5808591842651367
1772572921674762000,5.460761962890625,7.399205684661865,4.456632137298584,4.135395526885986
1772572921692584700,5.478584716796875,5.618347644805908,2.864208698272705,2.5944180488586426
1772572921710434000,5.49643408203125,3.555136203765869,2.249253273010254,0.727418065071106
1772572921728267000,5.51426708984375,2.988037347793579,2.3850460052490234,0.8201399445533752
1772572921746102500,5.5321025390625,3.0556344985961914,3.2135608196258545,1.5966109037399292
1772572921763937500,5.5499375,4.013361930847168,2.8701908588409424,1.4590235948562622
1772572921781772800,5.567772705078125,4.425525665283203,0.9469595551490784,0.31405797600746155
1772572921799607600,5.585607666015625,3.647858142852783,0.12203395366668701,-0.96370929479599
1772572921817442800,5.60344287109375,2.2241287231445312,0.7016952633857727,-1.1168500185012817
1772572921835267600,5.621267578125,3.243471145629883,0.6436693072319031,-0.3523431420326233
1772572921853099300,5.639099365234375,4.889134883880615,0.6287141442298889,0.46002015471458435
1772572921870949400,5.656949462890625,5.593821048736572,0.649053156375885,0.893121063709259
1772572921888783400,5.674783447265625,6.702296257019043,0.39421752095222473,1.1264212131500244
1772572921906618000,5.6926181640625,7.001997470855713,0.08195417374372482,0.7884350419044495
1772572921924453400,5.710453369140625,5.426323413848877,0.09930214285850525,0.8506484627723694
1772572921942288600,5.72828857421875,3.5377883911132812,0.6771687865257263,0.7992027401924133
1772572921960123600,5.74612353515625,4.391427993774414,1.545763373374939,0.7310073375701904
1772572921977959000,5.763958984375,5.850451469421387,1.469791293144226,0.34995031356811523
1772572921995794000,5.7817939453125,6.344569206237793,1.7467604875564575,-0.3846462368965149
1772572922013628700,5.799628662109375,5.645267009735107,2.691925525665283,-1.4021940231323242
1772572922031464400,5.81746435546875,5.1427741050720215,3.8285162448883057,-2.2713868618011475
1772572922049297200,5.835297119140625,6.592824459075928,4.310669898986816,-2.803191661834717
1772572922067136300,5.85313623046875,9.765707015991211,4.636094093322754,-2.9653055667877197
1772572922084967400,5.870967529296875,13.13839054107666,4.332803726196289,-2.8073792457580566
1772572922102806300,5.88880615234375,15.834504127502441,5.614758491516113,-1.700698733329773
1772572922120639200,5.90663916015625,19.389041900634766,5.91924524307251,-0.7752745151519775
1772572922138474000,5.924473876953125,21.827926635742188,5.8719868659973145,-1.414756417274475
1772572922156310500,5.942310546875,21.24228286743164,7.2436723709106445,-1.2843475341796875
1772572922174126600,5.960126708984375,19.545772552490234,7.880163192749023,-1.109073281288147
1772572922191968000,5.977968017578125,19.00080680847168,7.310073375701904,-1.9806588888168335
1772572922209816000,5.995816162109375,18.762720108032227,6.486343860626221,-2.090728759765625
1772572922227640300,6.013640380859375,17.18345832824707,6.014957904815674,-1.2005987167358398
1772572922245486000,6.031486083984375,13.71924877166748,5.019543647766113,-0.7956135272979736
1772572922263320800,6.04932080078125,9.126823425292969,4.72163724899292,-0.6681957244873047
1772572922281155800,6.06715576171875,5.101497650146484,5.391627788543701,0.5712863802909851
1772572922298991600,6.08499169921875,3.4534413814544678,5.02432918548584,1.5672988891601562
1772572922316826600,6.10282666015625,4.219742774963379,3.342773199081421,1.932802438735962
1772572922334661600,6.12066162109375,5.975476264953613,1.765903115272522,1.944766640663147
1772572922352496400,6.138496337890625,6.557530403137207,0.9732806086540222,1.7258232831954956
1772572922370327800,6.156327880859375,6.107679843902588,0.597607433795929,1.5355939865112305
1772572922388167000,6.1741669921875,5.128417015075684,0.6891329288482666,1.4063814878463745
1772572922405998800,6.191998779296875,3.638885021209717,0.9966106414794922,1.2149556875228882
1772572922423837200,6.209837158203125,2.7702903747558594,1.2329018115997314,1.1575279235839844
1772572922441675000,6.227675048828125,3.1854450702667236,1.0929217338562012,0.8452646136283875
1772572922459507000,6.2455068359375,3.9595232009887695,0.3565305769443512,0.40319061279296875
1772572922477342000,6.263342041015625,4.938786029815674,-0.5443671345710754,-0.20757736265659332
1772572922495177200,6.28117724609375,5.295316696166992,-0.6604190468788147,-0.14715859293937683
1772572922513012200,6.29901220703125,4.759922504425049,-0.349352091550827,-0.008374879136681557
1772572922530847000,6.316846923828125,4.490729808807373,-0.2727817893028259,0.13220344483852386
1772572922548670200,6.334670166015625,5.012365341186523,-0.37148571014404297,0.17587246000766754
1772572922566517200,6.352517333984375,5.059623718261719,-0.42771705985069275,0.06281159073114395
1772572922584352800,6.370352783203125,4.685744762420654,0.582054078578949,-0.004785645287483931
1772572922602187800,6.388187744140625,4.396213531494141,0.6699903607368469,-0.07357929646968842
1772572922620022800,6.406022705078125,6.893123626708984,1.2735798358917236,-1.6660027503967285
1772572922637857800,6.42385791015625,7.198208808898926,2.7870402336120605,-3.050848960876465
1772572922655690000,6.44168994140625,6.220740795135498,3.706482172012329,-2.582453727722168
1772572922673528000,6.459528076171875,8.72782039642334,5.121238708496094,-2.4849462509155273
1772572922691346700,6.4773466796875,10.686944007873535,7.82273530960083,-3.4887354373931885
1772572922709198000,6.495197998046875,13.555938720703125,6.912864685058594,-3.294318675994873
1772572922727038200,6.5130380859375,16.951353073120117,5.242674350738525,-2.445464849472046
1772572922744868400,6.530868408203125,16.481761932373047,5.053043365478516,-1.685145378112793
1772572922762690800,6.54869091796875,15.334403991699219,5.648257732391357,-1.994417667388916
1772572922780538400,6.566538330078125,16.17548179626465,6.355935096740723,-1.6516457796096802
1772572922798373600,6.58437353515625,17.461624145507812,7.645666599273682,1.186241865158081
1772572922816209000,6.602208984375,18.054445266723633,7.04207706451416,3.0113673210144043
1772572922834043600,6.620043701171875,18.13400650024414,4.553541660308838,1.1521440744400024
1772572922851876000,6.6378759765625,18.141782760620117,3.3056845664978027,-1.2263215780258179
1772572922869716200,6.65571630859375,14.276178359985352,3.5856447219848633,-2.717050075531006
1772572922887549200,6.673549072265625,8.60459041595459,3.6981074810028076,-1.7569299936294556
1772572922905384000,6.691384033203125,7.744968891143799,1.7228323221206665,-0.259621262550354
1772572922923216000,6.7092158203125,9.43489933013916,-0.07178468257188797,1.1611171960830688
1772572922941057000,6.72705712890625,10.101899147033691,-0.8608179688453674,2.1003000736236572
1772572922958889000,6.744888916015625,9.78544807434082,-1.1700903177261353,1.9674984216690063
1772572922976724000,6.762723876953125,9.004789352416992,-0.4588237404823303,2.1846470832824707
1772572922994559200,6.780559326171875,8.34138011932373,0.4731806814670563,2.531008243560791
1772572923012394200,6.798394287109375,7.304689407348633,0.12083754688501358,3.077169895172119
1772572923030229200,6.816229248046875,6.387639999389648,0.5276173949241638,2.38265323638916
1772572923048061400,6.8340615234375,4.999803066253662,0.10588239878416061,1.4626128673553467
1772572923065901800,6.85190185546875,4.383651256561279,0.44745782017707825,1.119242787361145
1772572923083735600,6.869735595703125,4.4135613441467285,0.18364913761615753,0.8386843204498291
1772572923101569500,6.887569580078125,4.435695171356201,0.2907279431819916,1.0450652837753296
1772572923119404800,6.90540478515625,5.0949177742004395,-0.07956135272979736,1.0390832424163818
1772572923137239800,6.92323974609375,5.474180221557617,-0.13698910176753998,1.428515076637268
1772572923155075000,6.941074951171875,5.577669620513916,-0.37447673082351685,1.805384635925293
1772572923172909800,6.958909912109375,5.059623718261719,-0.6430711150169373,1.8592232465744019
1772572923190744800,6.976744873046875,4.519443988800049,-1.100698471069336,1.1736794710159302
1772572923208580000,6.994580078125,4.268197536468506,-0.9744769930839539,0.5198407173156738
1772572923226415400,7.012415283203125,4.0767717361450195,0.4001995921134949,0.5868397355079651
1772572923244250000,7.03025,4.611567497253418,1.2544373273849487,-0.19680966436862946
1772572923262082300,7.048082275390625,6.157928943634033,2.6470601558685303,-1.038485050201416
1772572923279923000,7.0659228515625,5.571089267730713,4.193421840667725,-0.3194418251514435
1772572923297755100,7.083755126953125,5.8235321044921875,4.789832592010498,0.6113662123680115
1772572923315590700,7.101590576171875,11.925827980041504,3.40079927444458,0.4624129831790924
1772572923333425400,7.11942529296875,17.86780548095703,3.098107099533081,-0.45942193269729614
1772572923351260400,7.137260498046875,18.46002769470215,4.457230567932129,0.29012975096702576
1772572923369096000,7.155095947265625,17.069799423217773,5.941977024078369,1.719243049621582
1772572923386930700,7.1729306640625,17.073986053466797,6.314659118652344,1.4069796800613403
1772572923404765400,7.190765380859375,16.57388687133789,7.7491559982299805,0.9726824164390564
1772572923422600700,7.2086005859375,16.02114486694336,8.72782039642334,1.2335001230239868
1772572923440439300,7.226439208984375,15.322440147399902,7.082755088806152,-0.37447673082351685
1772572923458271000,7.24427099609375,14.11526107788086,5.402993679046631,-2.6123640537261963
1772572923476102700,7.2621025390625,13.898112297058105,5.431109428405762,-2.6739792823791504
1772572923493929700,7.2799296875,13.284951210021973,6.353542327880859,0.16510476171970367
1772572923511766000,7.29776611328125,11.437093734741211,7.121040344238281,2.6350958347320557
1772572923529602600,7.3156025390625,8.910273551940918,5.7649078369140625,2.2259232997894287
1772572923547446000,7.333446044921875,7.555935859680176,3.5880374908447266,1.5667005777359009
1772572923565281300,7.35128125,6.553342819213867,1.0875378847122192,0.8608179688453674
1772572923583116000,7.369115966796875,6.199803352355957,-0.5892325639724731,0.35892340540885925
1772572923600951300,7.386951416015625,7.600203037261963,-1.1156535148620605,-0.20578274130821228
1772572923618786600,7.40478662109375,6.8997039794921875,0.25064817070961,0.9882357716560364
1772572923636621300,7.422621337890625,6.332006931304932,1.5804593563079834,1.950150489807129
1772572923654456600,7.44045654296875,5.1840500831604,2.679363250732422,2.210369825363159
1772572923672291300,7.458291259765625,4.503890514373779,2.3437697887420654,2.1134605407714844
1772572923690126800,7.476126953125,4.744967460632324,1.4315061569213867,1.1078768968582153
1772572923707961900,7.4939619140625,4.335196495056152,0.6879364848136902,-0.13100704550743103
1772572923725796600,7.511796630859375,4.685744762420654,0.21415762603282928,-0.25304099917411804
1772572923743632000,7.5296318359375,5.191826820373535,0.5545366406440735,0.2476571500301361
1772572923761466600,7.547466552734375,5.323431968688965,1.1180464029312134,1.0875378847122192
1772572923779302000,7.565302001953125,5.435894966125488,1.0552347898483276,1.43389892578125
1772572923797136600,7.58313671875,4.83888578414917,0.8512466549873352,1.2819547653198242
1772572923814972000,7.600971923828125,3.7698919773101807,0.9595218896865845,0.890728235244751
1772572923832806700,7.618806640625,3.1758737564086914,0.6406782865524292,0.12801600992679596
1772572923850642000,7.636641845703125,3.9391841888427734,0.6903293132781982,-0.49351966381073
1772572923868477200,7.654477294921875,4.503890514373779,1.2915260791778564,-0.9565308690071106
1772572923886312200,7.672312255859375,3.975674867630005,2.9515466690063477,-1.067797064781189
1772572923904147500,7.6901474609375,2.169093608856201,5.105685234069824,-1.1324033737182617
1772572923921982500,7.707982421875,1.236491084098816,6.884150981903076,-1.7748762369155884
1772572923939817000,7.72581689453125,8.35992431640625,6.200999736785889,-2.719442844390869
1772572923957651000,7.74365087890625,13.613964080810547,6.214758396148682,-1.679761528968811
1772572923975475000,7.761474853515625,14.19003677368164,7.540980339050293,-0.6478567123413086
1772572923993310200,7.779310302734375,14.529817581176758,9.568299293518066,0.9852447509765625
