time,seconds_elapsed,z,y,x
1772572916293009000,0.0790087890625,10.773683547973633,2.1876380443573,-0.0364905446767807
1772572916310843400,0.096843505859375,10.634900093078613,2.1278176307678223,-0.07597211748361588
1772572916328693500,0.114693603515625,10.29033374786377,2.251646041870117,-0.14356936514377594
1772572916346506200,0.13250634765625,9.862018585205078,2.1780667304992676,-0.381655216217041
1772572916364364300,0.1503642578125,8.663812637329102,1.5936198234558105,-0.8422735929489136
1772572916382195200,0.1681953125,8.313263893127441,2.874378204345703,-0.4145565330982208
1772572916400032500,0.186032470703125,7.155735969543457,2.459223508834839,-0.12861421704292297
1772572916417866500,0.203866455078125,7.761120319366455,2.342573404312134,-0.33439695835113525
1772572916435701200,0.221701171875,7.241279602050781,2.544168710708618,-0.1746760457754135
1772572916453536300,0.239536376953125,6.663413047790527,2.854039192199707,0.13698910176753998
1772572916471371500,0.25737158203125,6.347560405731201,3.0586254596710205,0.589830756187439
1772572916489206500,0.27520654296875,7.525427341461182,2.7595226764678955,1.2873386144638062
1772572916507041800,0.293041748046875,7.245467185974121,1.9980069398880005,1.567897081375122
1772572916524876800,0.310876708984375,4.543970108032227,0.8997012972831726,0.9170492887496948
1772572916542711800,0.3287119140625,5.482554912567139,0.14835500717163086,0.061016976833343506
1772572916560546800,0.346546875,2.8139593601226807,0.36311084032058716,-0.3445664644241333
1772572916578382000,0.364382080078125,6.817749977111816,1.4626128673553467,0.2805584669113159
1772572916596217600,0.382217529296875,9.655637741088867,2.4819552898406982,1.124626636505127
1772572916614052600,0.400052490234375,10.130014419555664,3.9260237216949463,-0.18963119387626648
1772572916631887400,0.417887451171875,11.330015182495117,6.15254545211792,-0.97926265001297
1772572916649723100,0.43572314453125,16.261024475097656,7.532007694244385,0.7674978375434875
1772572916667557600,0.4535576171875,19.99382781982422,7.558926582336426,-0.04486542567610741
1772572916685392600,0.471392578125,17.765512466430664,6.7692952156066895,-1.7653049230575562
1772572916703227600,0.4892275390625,16.64208221435547,5.0566325187683105,-3.748356580734253
1772572916721062700,0.507062744140625,16.435701370239258,5.811567783355713,-3.2967114448547363
1772572916738898200,0.524898193359375,18.713666915893555,10.189835548400879,-3.0514471530914307
1772572916756733200,0.542733154296875,9.473783493041992,10.036096572875977,-1.5098711252212524
1772572916774568200,0.560568115234375,10.74437141418457,10.682756423950195,-0.43908295035362244
1772572916792391000,0.578390869140625,11.240882873535156,7.025925636291504,-1.1389836072921753
1772572916810238200,0.59623828125,9.119645118713379,4.320241451263428,-2.046461582183838
1772572916828073200,0.6140732421875,4.821537494659424,3.594019651412964,-0.8506484627723694
1772572916845908000,0.631907958984375,4.366901397705078,2.5531418323516846,0.08853443711996078
1772572916863744500,0.64974462890625,6.550950050354004,1.7228323221206665,1.8945173025131226
1772572916881578500,0.66757861328125,6.27577543258667,2.3880369663238525,4.098307132720947
1772572916899414300,0.685414306640625,5.590830326080322,1.3561322689056396,3.5467612743377686
1772572916917249000,0.7032490234375,5.796014785766602,1.0295119285583496,2.3222343921661377
1772572916935084000,0.721083984375,5.901896953582764,-0.014356935396790504,1.1180464029312134
1772572916952906800,0.73890673828125,6.266204357147217,-0.2961117923259735,0.10827522724866867
1772572916970754000,0.756754150390625,6.196214199066162,0.13280165195465088,0.46779683232307434
1772572916988570400,0.7745703125,3.8781673908233643,1.4739787578582764,1.3716856241226196
1772572917006414800,0.792414794921875,2.39401912689209,2.9700911045074463,1.8819550275802612
1772572917024247800,0.810247802734375,3.635295867919922,3.0753753185272217,0.6035895347595215
1772572917042094300,0.82809423828125,6.813562393188477,1.3453645706176758,-0.9541380405426025
1772572917059929900,0.845929931640625,9.235696792602539,-0.27337998151779175,-1.5726827383041382
1772572917077765000,0.86376513671875,9.129216194152832,0.0364905446767807,-0.5318048596382141
1772572917095600400,0.881600341796875,7.984848976135254,0.8488538265228271,1.2143574953079224
1772572917113434600,0.8994345703125,6.01675271987915,1.334596872329712,2.6530420780181885
1772572917131269600,0.91726953125,5.016552448272705,1.7120646238327026,2.135594129562378
1772572917149105200,0.935105224609375,5.616552829742432,0.503689169883728,0.8093722462654114
1772572917166940400,0.9529404296875,8.989834785461426,0.1136590763926506,0.5120640397071838
1772572917184775700,0.970775634765625,9.45164966583252,1.6390835046768188,1.6199408769607544
1772572917202610200,0.988610107421875,7.21735143661499,3.6370904445648193,3.2823543548583984
1772572917220439600,1.006439453125,12.825529098510742,2.806781053543091,1.6719847917556763
1772572917238280400,1.024280517578125,17.702699661254883,3.177668571472168,0.3930211067199707
1772572917256115500,1.042115478515625,19.709680557250977,4.775475978851318,1.5990036725997925
1772572917273950500,1.059950439453125,22.1007080078125,3.906282901763916,1.1001001596450806
1772572917291785500,1.077785400390625,20.931814193725586,6.240481376647949,0.584446907043457
1772572917309620700,1.095620849609375,19.41895294189453,10.830513954162598,2.9114668369293213
1772572917327455500,1.11345556640625,21.84048843383789,9.347561836242676,1.6791633367538452
1772572917345291300,1.131291259765625,19.307086944580078,8.37846851348877,-5.5244293212890625
1772572917363126000,1.1491259765625,15.068202018737793,7.370491981506348,-7.677969455718994
1772572917380961300,1.166961181640625,15.87278938293457,5.313262462615967,-5.837889194488525
1772572917398796300,1.18479638671875,8.214560508728027,4.659423828125,-4.174877166748047
1772572917416631600,1.202631591796875,2.0039889812469482,6.659823417663574,-2.973680257797241
1772572917434466000,1.220466064453125,-0.1501496136188507,6.262615203857422,1.0049854516983032
1772572917452289000,1.2382890625,-0.25782662630081177,4.473381996154785,0.9367900490760803
1772572917470136800,1.25613671875,0.9170492887496948,3.2967114448547363,-0.5443671345710754
1772572917487958000,1.2739580078125,-2.4699912071228027,0.714257538318634,-1.1108678579330444
1772572917505795300,1.29179541015625,1.4350954294204712,1.303490161895752,-0.7848458290100098
1772572917523632400,1.30963232421875,1.1653046607971191,2.0865414142608643,-0.4588237404823303
1772572917541477000,1.32747705078125,1.784447431564331,2.3647069931030273,-0.3810569941997528
1772572917559312400,1.3453125,3.0167510509490967,1.7102699279785156,0.33499518036842346
1772572917577134800,1.363134765625,4.799404144287109,0.8404789566993713,0.6191428303718567
1772572917594982700,1.380982666015625,7.310671329498291,0.5252245664596558,0.6502495408058167
1772572917612817200,1.398817138671875,7.883154392242432,0.3690928816795349,0.6801598072052002
1772572917630652000,1.41665185546875,5.687739372253418,0.6454638838768005,0.2590230405330658
1772572917648484600,1.434484619140625,4.925625324249268,0.29790642857551575,-0.39960137009620667
1772572917666326000,1.452325927734375,4.816751956939697,0.07776673883199692,-0.07657032459974289
1772572917684154400,1.470154296875,5.437689304351807,-0.17587246000766754,0.09152546525001526
1772572917701995800,1.487995849609375,6.0161542892456055,-0.18963119387626648,0.22791635990142822
1772572917719824100,1.50582421875,7.445865631103516,-1.3130614757537842,-0.26141586899757385
1772572917737666600,1.52366650390625,7.478767395019531,-1.970489501953125,-1.1479566097259521
1772572917755497700,1.541497802734375,6.977470874786377,-1.333998680114746,-1.4632110595703125
1772572917773317600,1.559317626953125,5.384449005126953,-0.355932354927063,-2.1918256282806396
1772572917791170800,1.5771708984375,6.580262184143066,1.5355939865112305,-1.3609179258346558
1772572917809003000,1.5950029296875,9.041878700256348,2.792423963546753,0.1495514214038849
1772572917826825700,1.61282568359375,13.101302146911621,1.4584254026412964,0.6029912829399109
1772572917844673300,1.63067333984375,21.88296127319336,1.9441684484481812,-0.05383851006627083
1772572917862508300,1.64850830078125,29.102108001708984,1.7282161712646484,1.0378868579864502
1772572917880339200,1.666339111328125,25.854448318481445,1.3471591472625732,2.51425838470459
1772572917898178800,1.6841787109375,24.63650131225586,1.5481562614440918,0.5970092415809631
1772572917916014800,1.702014892578125,23.67757797241211,3.6939198970794678,-2.765504837036133
1772572917933848000,1.71984814453125,19.829320907592773,5.458626747131348,-0.5162515044212341
1772572917951683800,1.737683837890625,17.59562110900879,6.9822564125061035,0.8003991842269897
1772572917969519400,1.755519287109375,18.973289489746094,4.8675994873046875,0.02153540402650833
1772572917987354000,1.77335400390625,16.908283233642578,4.043272018432617,-0.2069791555404663
1772572918005189000,1.791189208984375,13.01516056060791,4.246662139892578,-0.7232306599617004
1772572918023024000,1.809024169921875,8.459226608276367,4.454837322235107,-0.48394837975502014
1772572918040859100,1.826859130859375,1.119242787361145,5.338985443115234,0.03349951654672623
1772572918058694700,1.844694580078125,-1.9351953268051147,2.8426733016967773,-0.2476571500301361
1772572918076530000,1.862530029296875,1.1467602252960205,0.4540380835533142,-0.5210371017456055
1772572918094365000,1.880364990234375,3.8668015003204346,0.1453639715909958,-0.4654040038585663
1772572918112199400,1.898199462890625,3.830909013748169,1.0426725149154663,-0.5306084156036377
1772572918130034700,1.91603466796875,1.9232312440872192,0.9846464991569519,0.48873403668403625
1772572918147869700,1.93386962890625,2.3359930515289307,1.7497515678405762,1.5230315923690796
1772572918165693000,1.95169287109375,3.8488552570343018,1.7425731420516968,1.1886346340179443
1772572918183539500,1.96953955078125,4.600799560546875,1.3052847385406494,0.16869398951530457
1772572918201375200,1.987375244140625,3.8470606803894043,1.0019944906234741,-0.42412781715393066
1772572918219210500,2.00521044921875,1.7694923877716064,0.914058268070221,-0.09092725813388824
1772572918237045000,2.023044921875,0.592223584651947,0.7058826684951782,0.18963119387626648
1772572918254873000,2.040873046875,0.711864709854126,0.600000262260437,0.2470589429140091
1772572918272703700,2.058703857421875,2.190629243850708,0.28893333673477173,-0.2111666053533554
1772572918290541600,2.07654150390625,2.998206853866577,-0.14715859293937683,-0.6167500615119934
1772572918308386800,2.09438671875,2.661417007446289,0.11066804826259613,-0.7980063557624817
1772572918326220500,2.112220458984375,2.637488842010498,0.5395814776420593,-1.0360921621322632
1772572918344056000,2.13005615234375,3.3511481285095215,1.6504493951797485,-0.9379864931106567
1772572918361890600,2.147890625,4.242474555969238,2.7320053577423096,0.43489551544189453
1772572918379725800,2.165725830078125,6.15972375869751,2.7738797664642334,2.272583246231079
1772572918397561300,2.183561279296875,17.0261287689209,0.19920247793197632,2.1170499324798584
1772572918415396400,2.201396240234375,30.756145477294922,-0.14715859293937683,1.49611234664917
1772572918433231400,2.2192314453125,33.744781494140625,1.0031908750534058,1.3256237506866455
1772572918451066400,2.23706640625,25.782663345336914,0.16271193325519562,1.1491531133651733
1772572918468901400,2.2549013671875,24.0185546875,1.2556337118148804,2.3365912437438965
1772572918486732000,2.27273193359375,25.3770809173584,3.0490541458129883,3.10528564453125
1772572918504556500,2.290556640625,22.101306915283203,5.166104316711426,2.5076780319213867
1772572918522399200,2.308399169921875,17.451454162597656,6.75075101852417,1.8323038816452026
1772572918540241700,2.32624169921875,15.875182151794434,8.200202941894531,2.022533416748047
1772572918558073300,2.3440732421875,13.630714416503906,8.654839515686035,2.307279348373413
1772572918575912400,2.361912353515625,10.15753173828125,8.022536277770996,1.4482558965682983
1772572918593748000,2.379748046875,5.795416355133057,5.982655048370361,-0.4372883439064026
1772572918611582000,2.39758203125,4.098905086517334,4.89990234375,0.1663011759519577
1772572918629417200,2.415417236328125,4.298107624053955,3.7986059188842773,1.9782661199569702
1772572918647251000,2.4332509765625,4.701896667480469,2.927020311355591,3.0592236518859863
1772572918665089000,2.451089111328125,3.946960926055908,1.9920248985290527,3.1339993476867676
1772572918682922500,2.468922607421875,3.221935749053955,1.0169496536254883,2.213959217071533
1772572918700757500,2.486757568359375,2.00518536567688,0.08673982322216034,0.0891326442360878
1772572918718591500,2.504591552734375,0.9433703422546387,-0.12023933976888657,-1.1676974296569824
1772572918736429000,2.522428955078125,0.8961120843887329,-0.31824541091918945,-1.2783654928207397
1772572918754263000,2.540262939453125,1.9854445457458496,0.07956135272979736,-0.6658028960227966
1772572918772097800,2.558097900390625,3.4265220165252686,0.4013960063457489,-0.06340979784727097
1772572918789933000,2.57593310546875,3.8841493129730225,0.24107688665390015,-0.16929219663143158
1772572918807768300,2.593768310546875,3.5126636028289795,0.24406790733337402,-0.259621262550354
1772572918825603300,2.611603271484375,3.3589248657226562,0.2835494875907898,0.005383851006627083
1772572918843438800,2.62943896484375,3.7495529651641846,0.3451646566390991,0.15254244208335876
1772572918861273300,2.6472734375,4.121636867523193,0.07477571070194244,0.07657032459974289
1772572918879108600,2.665108642578125,4.841278553009033,-0.35832518339157104,-0.2727817893028259
1772572918896944000,2.682944091796875,4.5236310958862305,-0.07776673883199692,-0.600000262260437
1772572918914779400,2.700779296875,3.8919260501861572,1.0456634759902954,-0.4624129831790924
1772572918932614100,2.7186142578125,3.565903902053833,2.726621389389038,-0.1746760457754135
1772572918950449000,2.736448974609375,5.4795637130737305,3.944568157196045,-0.35892340540885925
1772572918968284200,2.7542841796875,6.289534091949463,4.371088981628418,0.040677983313798904
1772572918986119200,2.772119140625,10.022337913513184,4.3070807456970215,1.093519926071167
1772572919003954700,2.78995458984375,16.996219635009766,4.342973232269287,0.9056833982467651
1772572919021790000,2.8077900390625,19.646270751953125,3.214757204055786,0.6143572330474854
1772572919039624400,2.82562451171875,17.69312858581543,1.1425727605819702,2.316850423812866
1772572919057460200,2.843460205078125,22.573888778686523,1.194616675376892,3.99900484085083
1772572919075295000,2.861294921875,25.442285537719727,2.6638097763061523,6.110671043395996
1772572919093130200,2.879130126953125,25.899314880371094,4.1868414878845215,7.072585582733154
1772572919110965500,2.896965576171875,23.802602767944336,3.4809587001800537,7.260422229766846
1772572919128800000,2.914800048828125,21.77109718322754,3.960719585418701,6.828517436981201
1772572919146635500,2.932635498046875,19.244874954223633,4.453042984008789,5.554339408874512
1772572919164470300,2.95047021484375,14.928820610046387,4.572684288024902,3.380460262298584
1772572919182304800,2.9683046875,8.95394229888916,3.34995174407959,2.407777786254883
1772572919200141600,2.9861416015625,6.444469451904297,3.7160534858703613,1.7312071323394775
1772572919217976000,3.00397607421875,4.665405750274658,4.146163463592529,1.970489501953125
1772572919235810800,3.021810791015625,2.8630123138427734,2.5423741340637207,2.5573291778564453
1772572919253645300,3.039645263671875,2.960519790649414,1.1461620330810547,2.3096721172332764
1772572919271481600,3.057481689453125,4.755136966705322,1.103689432144165,0.849452018737793
1772572919289315800,3.07531591796875,5.491528034210205,1.2957134246826172,-0.11066804826259613
1772572919307138800,3.093138916015625,4.502694129943848,1.124626636505127,-0.26081767678260803
1772572919324986000,3.110986083984375,2.6985056400299072,1.1120643615722656,-0.02632104977965355
1772572919342822000,3.12882177734375,1.1120643615722656,0.7166503667831421,-0.1950150430202484
1772572919360656400,3.146656494140625,1.5056836605072021,0.06041877344250679,-0.32183465361595154
1772572919378491600,3.16449169921875,4.071387767791748,0.4899304509162903,-0.7387840151786804
1772572919396327000,3.182326904296875,5.793023586273193,0.7932206988334656,-0.537188708782196
1772572919414162400,3.200162353515625,6.580860614776611,0.8566305041313171,-0.2267199456691742
1772572919431997200,3.2179970703125,5.307280540466309,0.5024927258491516,-0.08733802288770676
1772572919449832000,3.23583203125,3.686741590499878,0.046061836183071136,-0.1339980661869049
1772572919467667000,3.2536669921875,2.6315066814422607,-0.5790630578994751,-0.5264210104942322
1772572919485489000,3.271489013671875,2.043470621109009,-0.35114672780036926,-1.124626636505127
1772572919503327200,3.2893271484375,1.571486234664917,0.1543370634317398,-1.5397813320159912
1772572919521160000,3.307159912109375,1.2167502641677856,1.1928220987319946,-2.2067806720733643
1772572919538996500,3.32499658203125,2.7702903747558594,2.7379872798919678,-1.7060825824737549
1772572919556844300,3.34284423828125,3.975076675415039,4.48833703994751,-1.1318050622940063
1772572919574678300,3.36067822265625,6.0502519607543945,5.287539958953857,-2.0823538303375244
1772572919592513000,3.378512939453125,12.76630687713623,6.9684977531433105,-1.8047864437103271
1772572919610347800,3.39634765625,20.621944427490234,7.918448448181152,0.7262216806411743
1772572919628179000,3.414178955078125,21.266809463500977,5.584847927093506,2.052443504333496
1772572919646018300,3.432018310546875,22.680370330810547,4.1347975730896,0.615553617477417
1772572919663854000,3.44985400390625,27.090341567993164,4.503292083740234,-0.5048855543136597
1772572919681688600,3.4676884765625,26.552555084228516,6.129215240478516,0.11665010452270508
1772572919699523600,3.485523681640625,22.77907371520996,8.134998321533203,1.4524433612823486
1772572919717359000,3.503359130859375,19.018753051757812,7.026523590087891,1.0761719942092896
1772572919735193900,3.52119384765625,16.563716888427734,5.749952793121338,0.41874396800994873
1772572919753021400,3.539021484375,15.217155456542969,5.006382942199707,-0.12442677468061447
1772572919770864000,3.556864013671875,14.55793285369873,4.281357765197754,-0.10707881301641464
1772572919788699400,3.574699462890625,11.143375396728516,4.168895244598389,1.1599208116531372
1772572919806534700,3.59253466796875,6.190232276916504,4.766502857208252,2.410170555114746
1772572919824369700,3.61036962890625,3.0550363063812256,3.4241292476654053,2.1092731952667236
1772572919842204700,3.62820458984375,3.4546377658843994,1.2113664150238037,0.597607433795929
1772572919860040000,3.6460400390625,4.4135613441467285,-0.13698910176753998,-0.9930213689804077
1772572919877875000,3.663875,5.139184951782227,-0.12382857501506805,-1.378864049911499
1772572919895710000,3.6817099609375,5.521438121795654,0.5617151260375977,-0.8171489238739014
1772572919913545000,3.699544921875,3.328416347503662,1.46500563621521,0.3038884699344635
1772572919931380000,3.7173798828125,1.1054840087890625,2.4053850173950195,1.1736794710159302
1772572919949212400,3.73521240234375,1.2999008893966675,2.404188632965088,1.2969099283218384
1772572919967053600,3.753053466796875,2.730210542678833,1.9381862878799438,0.8482556343078613
1772572919984882700,3.770882568359375,3.572484254837036,1.2687941789627075,0.1495514214038849
1772572920002724600,3.788724609375,3.996013879776001,0.778863787651062,-0.010169495828449726
1772572920020555800,3.8065556640625,4.103092670440674,0.7369893789291382,0.2105683982372284
1772572920038390800,3.824390869140625,3.0765717029571533,0.7190431952476501,0.5485545992851257
1772572920056226000,3.84222607421875,2.252842426300049,0.7028916478157043,0.7345965504646301
1772572920074061000,3.86006103515625,1.6785650253295898,0.6729813814163208,0.6975077986717224
1772572920091896300,3.877896240234375,1.755135416984558,0.09391828626394272,0.39601215720176697
1772572920109731300,3.8957314453125,2.8002007007598877,-0.27038896083831787,-0.6346961855888367
1772572920127566000,3.913566162109375,2.9288148880004883,-0.13220344483852386,-1.4261223077774048
1772572920145401900,3.93140185546875,3.308077335357666,1.1282159090042114,-1.2855439186096191
1772572920163236900,3.94923681640625,3.3272199630737305,3.4917263984680176,-0.35533416271209717
1772572920181071600,3.967071533203125,7.332805156707764,4.7575297355651855,0.9768698215484619
1772572920198907100,3.9849072265625,11.22772216796875,5.184648513793945,0.40378883481025696
1772572920216742100,4.0027421875,16.074981689453125,5.392824172973633,1.1623135805130005
1772572920234577700,4.02057763671875,21.05564308166504,4.509274482727051,2.466402053833008
1772572920252412200,4.038412109375,23.744577407836914,3.757927894592285,0.6071787476539612
1772572920270247400,4.056247314453125,21.03590202331543,5.536991596221924,-0.617946445941925
1772572920288082700,4.074082763671875,21.189043045043945,6.357729911804199,3.0693931579589844
1772572920305917000,4.0919169921875,23.97847557067871,6.570092678070068,5.127220630645752
1772572920323753500,4.10975341796875,25.770700454711914,5.861817359924316,4.338187217712402
1772572920341588000,4.127587890625,25.301706314086914,4.759922504425049,3.0005996227264404
1772572920359422700,4.145422607421875,23.188844680786133,3.875774383544922,1.2873386144638062
1772572920377258000,4.163258056640625,17.83609962463379,3.854238986968994,-1.2562319040298462
1772572920395093200,4.18109326171875,6.066403388977051,4.8538408279418945,-0.4749752879142761
1772572920412928000,4.198927978515625,0.6945167779922485,6.933801651000977,3.8668015003204346
1772572920430763300,4.21676318359375,4.910670280456543,4.95912504196167,5.098506927490234
1772572920448598800,4.234598876953125,10.988439559936523,1.633101463317871,3.0801608562469482
1772572920466433800,4.252433837890625,12.275778770446777,0.5617151260375977,0.8871390223503113
1772572920484269000,4.27026904296875,8.059624671936035,0.9984052777290344,0.6041877269744873
1772572920502103600,4.288103515625,2.246262311935425,1.8987047672271729,0.9272187948226929
1772572920519939300,4.305939208984375,0.11545369029045105,1.8951154947280884,0.9732806086540222
1772572920537761800,4.32376171875,1.1443674564361572,1.378864049911499,0.4785645306110382
1772572920555596800,4.3415966796875,3.3128628730773926,0.4420739710330963,-0.4001995921134949
1772572920573444400,4.3594443359375,4.3657050132751465,0.21355941891670227,-0.9020941257476807
1772572920591272400,4.3772724609375,4.028914928436279,0.1818545162677765,-0.5413761138916016
1772572920609114400,4.3951142578125,2.1092731952667236,0.5587241053581238,0.3732803463935852
1772572920626937000,4.41293701171875,0.844068169593811,0.5718846321105957,1.0941181182861328
1772572920644777200,4.430777099609375,2.314457654953003,0.29730820655822754,1.667797327041626
1772572920662610700,4.448610595703125,5.054837703704834,-0.2841476798057556,1.4117653369903564
1772572920680442600,4.466442626953125,6.51745080947876,-0.5126622319221497,0.5958128571510315
1772572920698291500,4.48429150390625,6.407381057739258,-1.1330015659332275,-0.2566302418708801
1772572920716125400,4.50212548828125,5.209773063659668,-1.5092729330062866,-0.6634100675582886
1772572920733960700,4.519960693359375,4.715655326843262,-1.1521440744400024,-0.9888339638710022
1772572920751785000,4.537784912109375,4.326821327209473,0.17108681797981262,-1.2089736461639404
1772572920769630700,4.555630615234375,4.731806755065918,1.7383856773376465,-1.7856439352035522
1772572920787460600,4.573460693359375,7.041478633880615,2.4981069564819336,-1.8891334533691406
1772572920805301000,4.591301025390625,12.028719902038574,2.6560330390930176,-1.8664016723632812
1772572920823136300,4.60913623046875,17.809181213378906,3.2350962162017822,-1.6827524900436401
1772572920840971000,4.626970947265625,21.687946319580078,3.528217077255249,0.42771705985069275
1772572920858806000,4.644805908203125,19.232311248779297,6.114858150482178,1.9962122440338135
1772572920876641500,4.6626416015625,16.127025604248047,6.579065799713135,1.4009976387023926
1772572920894476500,4.6804765625,18.89253044128418,5.904289722442627,-0.7740781307220459
1772572920912311800,4.698311767578125,19.502700805664062,6.819544315338135,-1.1682956218719482
1772572920930146600,4.716146484375,15.095121383666992,9.41037368774414,0.1944168359041214
1772572920947981000,4.73398095703125,13.018750190734863,9.314062118530273,-0.49651068449020386
1772572920965818000,4.751818115234375,16.29332733154297,6.993622303009033,-0.20398813486099243
1772572920983651300,4.7696513671875,20.416759490966797,4.741377830505371,0.9559326171875
1772572921001488000,4.78748779296875,18.521644592285156,4.639084815979004,0.5186443328857422
1772572921019322000,4.805322021484375,13.253844261169434,4.474578380584717,0.023330021649599075
1772572921037145300,4.823145263671875,8.154739379882812,4.095914363861084,-0.15194423496723175
1772572921054992100,4.8409921875,6.92901611328125,3.7782669067382812,1.0689935684204102
1772572921072827100,4.8588271484375,7.127620220184326,2.538186550140381,1.6666009426116943
1772572921090662400,4.876662353515625,5.112265586853027,1.212562918663025,0.8584251403808594
1772572921108497400,4.894497314453125,4.104887008666992,0.6436693072319031,0.3445664644241333
1772572921126332400,4.91233251953125,2.2636101245880127,0.7806583642959595,1.2490534782409668
1772572921144168200,4.930168212890625,2.3048863410949707,1.4638092517852783,2.045863389968872
1772572921162003000,4.9480029296875,3.4815568923950195,0.6699903607368469,1.2717852592468262
1772572921179838500,4.96583837890625,4.780261516571045,-0.3206382393836975,-0.3595215976238251
1772572921197673000,4.9836728515625,6.034698486328125,-0.3409772217273712,-0.8392825126647949
1772572921215508500,5.001508544921875,4.54337215423584,0.08015955984592438,-0.649053156375885
1772572921233343700,5.01934375,2.6662025451660156,0.7322037220001221,0.4450650215148926
1772572921251178500,5.037178466796875,3.593421459197998,1.3130614757537842,1.583450436592102
1772572921269013500,5.055013427734375,5.051248550415039,1.3196417093276978,1.5260226726531982
1772572921286848800,5.072848876953125,2.693121910095215,-0.14476576447486877,0.17766708135604858
1772572921304683800,5.090683837890625,1.4584254026412964,0.1579262912273407,-0.4977070987224579
1772572921322518800,5.108518798828125,3.339184045791626,0.31046873331069946,0.18424734473228455
1772572921340353800,5.126353759765625,5.98026180267334,0.5467599630355835,0.32721850275993347
1772572921358184400,5.144184326171875,6.629913330078125,3.0424740314483643,-0.6317051649093628
1772572921376024600,5.162024658203125,6.358327865600586,0.7100701332092285,-2.134995937347412
1772572921393859000,5.179859130859375,6.091528415679932,0.3475574851036072,-0.46002015471458435
1772572921411694300,5.1976943359375,8.80798053741455,0.8039883971214294,0.3888336718082428
1772572921429529000,5.215529052734375,14.291731834411621,1.7545372247695923,-0.2841476798057556
1772572921447363300,5.23336328125,16.844274520874023,1.109073281288147,-1.5080764293670654
1772572921465201200,5.251201171875,18.999610900878906,2.3324038982391357,0.1010967567563057
1772572921483021600,5.269021484375,19.067806243896484,4.104887008666992,2.4915266036987305
1772572921500860200,5.286860107421875,18.175283432006836,5.587839126586914,2.5782663822174072
1772572921518706400,5.30470654296875,20.896520614624023,5.357530117034912,2.8037898540496826
1772572921536538600,5.32253857421875,22.691137313842773,5.1320061683654785,3.3409786224365234
1772572921554376400,5.34037646484375,20.846271514892578,5.571687698364258,3.1028928756713867
1772572921572210200,5.358210205078125,18.283557891845703,6.5629143714904785,3.043670415878296
1772572921590045200,5.376045166015625,12.55155086517334,6.574280261993408,1.9752750396728516
1772572921607880400,5.39388037109375,12.080164909362793,5.48375129699707,-2.9838497638702393
1772572921625708500,5.41170849609375,13.037294387817383,3.3170504570007324,-0.9678967595100403
1772572921643551000,5.429551025390625,11.557332992553711,4.48115873336792,1.9369899034500122
1772572921661386200,5.44738623046875,9.355338096618652,4.48833703994751,3.789632797241211
1772572921679220700,5.465220703125,6.978667259216309,4.149752616882324,4.022933006286621
1772572921697042400,5.48304248046875,5.170291423797607,2.7433712482452393,2.115255117416382
1772572921714892800,5.500892822265625,3.397808074951172,2.1858434677124023,0.5880361795425415
1772572921732726300,5.518726318359375,3.022733211517334,2.6973092555999756,1.1180464029312134
1772572921750561000,5.53656103515625,3.366701364517212,3.291327476501465,1.7102699279785156
1772572921768396300,5.554396240234375,4.271188259124756,2.6141586303710938,1.3256237506866455
1772572921786231800,5.572231689453125,4.478765964508057,0.5324030518531799,0.005982056725770235
1772572921804066800,5.59006689453125,3.3236305713653564,0.33858439326286316,-1.073180913925171
1772572921821900500,5.607900634765625,2.296511650085449,0.7716853022575378,-0.9278169870376587
1772572921839737900,5.62573779296875,3.8943188190460205,0.6789634227752686,-0.08374879509210587
1772572921857560300,5.643560302734375,5.185246467590332,0.7328019142150879,0.6281159520149231
1772572921875406600,5.661406494140625,5.985645771026611,0.5868397355079651,1.0396814346313477
1772572921893242000,5.6792421875,7.03788948059082,0.36311084032058716,1.1078768968582153
1772572921911076900,5.697076904296875,6.824928283691406,0.09272187948226929,0.8153542876243591
1772572921928912000,5.714911865234375,4.934598445892334,0.23629122972488403,0.9433703422546387
1772572921946747400,5.732747314453125,3.6095728874206543,0.9900303483009338,0.8135597109794617
1772572921964582700,5.750582763671875,4.89990234375,1.6522440910339355,0.7722834944725037
1772572921982417700,5.768417724609375,6.269793510437012,1.4829518795013428,0.1908276081085205
1772572922000252200,5.786252197265625,6.337390899658203,1.9657038450241089,-0.5527420043945312
1772572922018083800,5.804083740234375,5.618347644805908,3.1004998683929443,-1.5702898502349854
1772572922035922400,5.82192236328125,5.226522922515869,3.985246181488037,-2.455035924911499
1772572922053743400,5.839743408203125,7.496713161468506,4.516452789306641,-2.7248268127441406
1772572922071595000,5.857594970703125,10.8969144821167,4.560121536254883,-2.99222469329834
1772572922089414000,5.875413818359375,14.026726722717285,4.603192329406738,-2.5393829345703125
1772572922107263200,5.89326318359375,16.675580978393555,5.898307800292969,-1.3603196144104004
1772572922125098200,5.91109814453125,20.41197395324707,5.887540340423584,-0.7034898400306702
1772572922142932700,5.9289326171875,22.104894638061523,6.150152206420898,-1.5451651811599731
1772572922160768000,5.94676806640625,20.833707809448242,7.555935859680176,-1.0396814346313477
1772572922178603500,5.964603515625,19.50688934326172,7.901100158691406,-1.280758261680603
1772572922196438300,5.982438232421875,18.968503952026367,7.103094100952148,-2.059622049331665
1772572922214273500,6.0002734375,18.693927764892578,6.45822811126709,-1.8681962490081787
1772572922232108300,6.0181083984375,16.68036651611328,5.8235321044921875,-0.9409775137901306
1772572922249944000,6.035944091796875,12.667603492736816,4.897509574890137,-0.7926225066184998
1772572922267778800,6.05377880859375,8.112266540527344,4.936991214752197,-0.3613162338733673
1772572922285614000,6.071614013671875,4.505684852600098,5.501697540283203,0.9487541913986206
1772572922303448800,6.08944873046875,3.610769271850586,4.762913703918457,1.7569299936294556
1772572922321284000,6.1072841796875,4.762315273284912,2.905484914779663,1.989033818244934
1772572922339119000,6.125119140625,6.385247230529785,1.5343974828720093,1.9860427379608154
1772572922356953900,6.142953857421875,6.537191390991211,0.9511470198631287,1.6839489936828613
1772572922374789400,6.160789306640625,6.077171325683594,0.6011967062950134,1.5774682760238647
1772572922392624000,6.1786240234375,4.842474937438965,0.8159525394439697,1.3908281326293945
1772572922410446800,6.19644677734375,3.4677982330322266,1.1240284442901611,1.2652050256729126
1772572922428282400,6.214282470703125,2.8791637420654297,1.2921242713928223,1.1395817995071411
1772572922446130000,6.2321298828125,3.4857444763183594,1.052243709564209,0.8249256014823914
1772572922463965000,6.24996484375,4.2693939208984375,0.1381855010986328,0.2877369225025177
1772572922481799700,6.267799560546875,5.254040241241455,-0.5706881880760193,-0.17587246000766754
1772572922499635200,6.28563525390625,5.259424209594727,-0.5485545992851257,-0.04187439754605293
1772572922517470200,6.30347021484375,4.719244480133057,-0.23748764395713806,0.06580262631177902
1772572922535305200,6.32130517578125,4.654638290405273,-0.251844584941864,0.21176479756832123
1772572922553140500,6.339140380859375,5.244469165802002,-0.39182472229003906,0.2021935135126114
1772572922570975000,6.35697509765625,5.013561725616455,-0.20877377688884735,0.10887342691421509
1772572922588810500,6.374810546875,4.623531341552734,0.7513462901115417,0.10408778488636017
1772572922606645800,6.392645751953125,4.898108005523682,0.745364248752594,-0.28235307335853577
1772572922624480800,6.410480712890625,7.507481098175049,1.5750755071640015,-2.091326951980591
1772572922642315300,6.428315185546875,6.863213539123535,3.242274761199951,-3.053839921951294
1772572922660150300,6.446150390625,6.620342254638672,3.9248273372650146,-2.2773690223693848
1772572922677985300,6.4639853515625,9.504889488220215,5.952146530151367,-2.7038896083831787
1772572922695820800,6.48182080078125,11.304890632629395,7.993224143981934,-3.4989049434661865
1772572922713655600,6.499655517578125,14.674583435058594,6.437291145324707,-3.0376882553100586
1772572922731490600,6.517490478515625,17.425132751464844,5.072783946990967,-2.170290231704712
1772572922749326000,6.535326171875,15.9834566116333,5.228915691375732,-1.5846468210220337
1772572922767161000,6.5531611328125,15.703496932983398,5.889933109283447,-2.046461582183838
1772572922784996400,6.570996337890625,16.586448669433594,6.644270420074463,-1.1001001596450806
1772572922802830800,6.588830810546875,17.81037712097168,7.862216949462891,1.9692929983139038
1772572922820666000,6.606666015625,18.00539207458496,6.487540245056152,2.9012975692749023
1772572922838501400,6.62450146484375,18.54018783569336,4.244269371032715,0.6436693072319031
1772572922856327200,6.6423271484375,17.68714714050293,3.2727832794189453,-1.7222341299057007
1772572922874170400,6.66017041015625,13.088739395141602,3.820141315460205,-2.706880569458008
1772572922892009200,6.67800927734375,7.869993686676025,3.3672995567321777,-1.2442678213119507
1772572922909841700,6.695841552734375,8.310273170471191,1.1359925270080566,0.08195417374372482
1772572922927664400,6.713664306640625,9.854840278625488,-0.2147558331489563,1.5607185363769531
1772572922945512200,6.73151220703125,10.165308952331543,-1.0480563640594482,2.179263114929199
1772572922963346700,6.7493466796875,9.79801082611084,-0.8949156403541565,1.9848463535308838
1772572922981181700,6.767181640625,8.84805965423584,-0.22612173855304718,2.3994028568267822
1772572922999017200,6.785017333984375,8.288139343261719,0.5318048596382141,2.789433002471924
1772572923016852200,6.802852294921875,7.183253765106201,0.22193430364131927,3.0867412090301514
1772572923034687500,6.8206875,6.121438503265381,0.4977070987224579,2.169692039489746
1772572923052510200,6.83851025390625,4.923232555389404,0.22911277413368225,1.3872389793395996
1772572923070349800,6.856349853515625,4.432105541229248,0.44386860728263855,1.0863415002822876
1772572923088195800,6.87419580078125,4.538586139678955,0.2841476798057556,0.9278169870376587
1772572923106027800,6.89202783203125,4.6995038986206055,0.19800607860088348,1.083350419998169
1772572923123861200,6.909861328125,5.302495002746582,-0.029312077909708023,1.1784651279449463
1772572923141698600,6.927698486328125,5.706881999969482,-0.1417747437953949,1.5702898502349854
1772572923159532300,6.9455322265625,5.5722856521606445,-0.33798620104789734,1.9573289155960083
1772572923177367300,6.9633671875,5.030311584472656,-0.729810893535614,1.7665013074874878
1772572923195202600,6.98120263671875,4.524229526519775,-1.1389836072921753,1.0450652837753296
1772572923213037600,6.99903759765625,4.371088981628418,-0.6203392744064331,0.5455635786056519
1772572923230872600,7.01687255859375,4.151547431945801,0.6867401003837585,0.5700899958610535
1772572923248708000,7.0347080078125,5.227719306945801,1.6809579133987427,-0.40797626972198486
1772572923266532400,7.052532470703125,6.289534091949463,2.9928228855133057,-1.00259268283844
1772572923284377900,7.0703779296875,5.344369411468506,4.5583271980285645,0.06999006122350693
1772572923302211800,7.0882119140625,6.930810928344727,4.621737003326416,0.641276478767395
1772572923320049200,7.106049072265625,13.978869438171387,3.1591241359710693,0.3367897868156433
1772572923337883400,7.12388330078125,18.53121566772461,3.4055848121643066,-0.4378865361213684
1772572923355718100,7.14171826171875,18.195621490478516,4.990829944610596,0.7549355626106262
1772572923373553400,7.159553466796875,17.069799423217773,6.128018856048584,1.919043779373169
1772572923391388200,7.17738818359375,17.13799476623535,6.592824459075928,1.1479566097259521
1772572923409223200,7.19522314453125,16.478172302246094,8.187042236328125,1.197009563446045
1772572923427058400,7.213058349609375,16.00977897644043,8.680562019348145,1.0689935684204102
1772572923444893400,7.2308935546875,15.196816444396973,6.539584159851074,-0.9403793215751648
1772572923462728400,7.248728515625,13.947164535522461,5.318048477172852,-2.8731818199157715
1772572923480548400,7.26654833984375,14.030315399169922,5.629115104675293,-2.0823538303375244
1772572923498390800,7.284390869140625,13.116257667541504,6.669992923736572,1.0061819553375244
1772572923516222000,7.302221923828125,10.779067993164062,7.077969551086426,2.851048231124878
1772572923534071800,7.32007177734375,8.654839515686035,5.275575637817383,2.038684844970703
1772572923551900700,7.337900634765625,7.420143127441406,2.9940192699432373,1.4195420742034912
1772572923569742300,7.355742431640625,6.356533527374268,0.6191428303718567,0.8087740540504456
1772572923587571000,7.373571044921875,6.663413047790527,-0.8087740540504456,0.22432711720466614
1772572923605412000,7.391412109375,7.679764270782471,-0.8889335989952087,-0.048454657196998596
1772572923623244800,7.409244873046875,6.865606307983398,0.7010970115661621,1.3645070791244507
1772572923641078500,7.42707861328125,6.26440954208374,1.947757601737976,2.1367905139923096
1772572923658914000,7.4449140625,5.045266628265381,2.785245656967163,2.2600209712982178
1772572923676749300,7.462749267578125,4.646861553192139,2.191227436065674,2.008176326751709
1772572923694584300,7.480584228515625,4.752145767211914,1.2448660135269165,0.7872386574745178
1772572923712419000,7.498419189453125,4.427918434143066,0.6173482537269592,-0.19322042167186737
1772572923730254000,7.516254150390625,4.961517810821533,0.2356930375099182,-0.12083754688501358
1772572923748089600,7.534089599609375,5.347360610961914,0.8291130661964417,0.5156532526016235
1772572923765923600,7.551923583984375,5.486144065856934,1.195214867591858,1.2999008893966675
1772572923783761200,7.56976123046875,5.497509956359863,1.0546365976333618,1.5002998113632202
1772572923801594600,7.5875947265625,4.660022258758545,0.9320043921470642,1.2652050256729126
1772572923819430100,7.60543017578125,3.624528169631958,0.9266205430030823,0.7734799385070801
1772572923837265000,7.623264892578125,3.362514019012451,0.6837490797042847,-0.01734796352684498
1772572923855100000,7.641099853515625,4.303491592407227,0.8045865893363953,-0.5635097622871399
1772572923872934700,7.6589345703125,4.545764923095703,1.662413477897644,-0.966102123260498
1772572923890769700,7.676769775390625,3.8662030696868896,3.5365917682647705,-1.0133603811264038
1772572923908605200,7.694605224609375,1.6648063659667969,5.602794170379639,-1.2388839721679688
1772572923926440400,7.7124404296875,2.287538528442383,7.063014030456543,-1.9824535846710205
1772572923944275200,7.730275146484375,10.501500129699707,6.330810546875,-2.5495524406433105
1772572923962109700,7.748109619140625,14.206786155700684,6.414559364318848,-1.2915260791778564
1772572923979945000,7.765945068359375,14.157732963562012,8.219346046447754,-0.30628129839897156
1772572923997779700,7.78377978515625,15.07418441772461,10.0612211227417,1.3627125024795532
