time,seconds_elapsed,z,y,x
1772536712746236700,0.073236572265625,0.3490104675292969,0.2533041536808014,-0.0533582977950573
1772536712756285700,0.08328564453125,0.3615339696407318,0.198578342795372,-0.07405238598585129
1772536712766333700,0.093333740234375,0.36623844504356384,0.12297333031892776,-0.0704781636595726
1772536712776382700,0.1033828125,0.35372665524482727,0.08097447454929352,-0.028599686920642853
1772536712786431500,0.113431396484375,0.32391709089279175,0.08884358406066895,0.04434935376048088
1772536712796480800,0.123480712890625,0.2999105453491211,0.12547776103019714,0.1193932369351387
1772536712806529800,0.13352978515625,0.28076669573783875,0.1660158634185791,0.1855672001838684
1772536712816578600,0.14357861328125,0.2623754143714905,0.1978244036436081,0.23998357355594635
1772536712826626800,0.153626708984375,0.25736281275749207,0.20418135821819305,0.2584635019302368
1772536712836675600,0.163675537109375,0.27676528692245483,0.2066170871257782,0.23860885202884674
1772536712846724900,0.173724853515625,0.2983645796775818,0.1931004822254181,0.20866505801677704
1772536712856773600,0.183773681640625,0.29918164014816284,0.1509421169757843,0.17329561710357666
1772536712866822700,0.19382275390625,0.2876797318458557,0.08454710990190506,0.13034789264202118
1772536712876871700,0.20387158203125,0.2738909423351288,0.016054067760705948,0.0920734703540802
1772536712886919700,0.213919677734375,0.249555766582489,-0.02895095758140087,0.05574369058012962
1772536712896968700,0.22396875,0.21283850073814392,-0.052986785769462585,0.0395231731235981
1772536712907017700,0.234017822265625,0.16800418496131897,-0.09625516086816788,0.03338725119829178
1772536712917066500,0.24406640625,0.12719577550888062,-0.15569691359996796,0.009409214369952679
1772536712927115800,0.25411572265625,0.0992530807852745,-0.1858185976743698,-0.013079316355288029
1772536712937164800,0.264164794921875,0.0780940055847168,-0.1603848785161972,-0.033061280846595764
1772536712947213600,0.274213623046875,0.05627499148249626,-0.1297558695077896,-0.05864653363823891
1772536712957261600,0.284261474609375,0.04635018855333328,-0.09875640273094177,-0.09320904314517975
1772536712967310600,0.294310546875,0.05211646482348442,-0.058640677481889725,-0.12568175792694092
1772536712977360000,0.30435986328125,0.05727607384324074,-0.010835870169103146,-0.1515357345342636
1772536712987408600,0.31440869140625,0.07079747319221497,0.03350363299250603,-0.18130241334438324
1772536712997457700,0.324457763671875,0.10432826727628708,0.09641601890325546,-0.18458768725395203
1772536713007506700,0.334506591796875,0.13235165178775787,0.17642536759376526,-0.1748857945203781
1772536713017554700,0.3445546875,0.13692057132720947,0.20723654329776764,-0.16256174445152283
1772536713027603700,0.354603759765625,0.14183570444583893,0.18944555521011353,-0.168824702501297
1772536713037652700,0.36465283203125,0.13247787952423096,0.14841477572917938,-0.16643744707107544
1772536713047701500,0.374701416015625,0.11204478144645691,0.0970996543765068,-0.17441654205322266
1772536713057750800,0.384750732421875,0.09370731562376022,0.03671540319919586,-0.18439248204231262
1772536713067799600,0.394799560546875,0.09673479944467545,0.007535947021096945,-0.18768201768398285
1772536713077847800,0.404847900390625,0.09806238114833832,0.01426602154970169,-0.18453122675418854
1772536713087896600,0.414896484375,0.09504155814647675,-0.003608316881582141,-0.18233811855316162
1772536713097945600,0.424945556640625,0.10170985013246536,-0.030839672312140465,-0.18441857397556305
1772536713107994600,0.43499462890625,0.11249325424432755,-0.02773762121796608,-0.17617715895175934
1772536713118043600,0.445043701171875,0.110236756503582,0.00941933412104845,-0.14833007752895355
1772536713128092700,0.4550927734375,0.10231625288724899,0.015154185704886913,-0.12353605031967163
1772536713138140700,0.465140625,0.09755105525255203,-0.009195628575980663,-0.11577267199754715
1772536713148189700,0.475189697265625,0.08559665828943253,-0.05536472052335739,-0.1090141013264656
1772536713158238700,0.48523876953125,0.06534411758184433,-0.0843641459941864,-0.07904049009084702
1772536713168287700,0.495287841796875,0.027655595913529396,-0.0972522497177124,-0.03194887936115265
1772536713178336500,0.50533642578125,0.003831756068393588,-0.11260111629962921,0.023578830063343048
1772536713188385800,0.5153857421875,-0.017428258433938026,-0.13123951852321625,0.08065516501665115
1772536713198433500,0.52543359375,-0.037751372903585434,-0.12979421019554138,0.1393352597951889
1772536713208482800,0.53548291015625,-0.04500608891248703,-0.09681682288646698,0.18480341136455536
1772536713218531600,0.545531494140625,-0.038057636469602585,-0.061645522713661194,0.20695477724075317
1772536713228580600,0.55558056640625,-0.051358528435230255,-0.035949479788541794,0.20797769725322723
1772536713238629600,0.565629638671875,-0.06930370628833771,-0.08232896029949188,0.17848744988441467
1772536713248678700,0.5756787109375,-0.09903976321220398,-0.14371295273303986,0.14764805138111115
1772536713258726700,0.5857265625,-0.15097859501838684,-0.20005160570144653,0.10556664317846298
1772536713268775700,0.595775634765625,-0.2100333869457245,-0.2648569643497467,0.06585784256458282
1772536713278824400,0.605824462890625,-0.2863100469112396,-0.32893475890159607,0.027636688202619553
1772536713288873700,0.615873779296875,-0.35856854915618896,-0.35553306341171265,0.0018548916559666395
1772536713298922800,0.6259228515625,-0.4063190221786499,-0.327259361743927,-0.011774634011089802
1772536713308971500,0.635971435546875,-0.43025630712509155,-0.2580469846725464,-0.011421232484281063
1772536713319019500,0.64601953125,-0.4222327470779419,-0.16667766869068146,-0.0059897154569625854
1772536713329068500,0.656068603515625,-0.38388240337371826,-0.05407974496483803,0.03051716275513172
1772536713339117800,0.666117919921875,-0.33664804697036743,0.04055701196193695,0.06686611473560333
1772536713349166600,0.67616650390625,-0.3090744912624359,0.044608745723962784,0.07123290002346039
1772536713359215600,0.686215576171875,-0.3087621033191681,-0.04739521071314812,0.034624289721250534
1772536713369264600,0.6962646484375,-0.32998722791671753,-0.16788195073604584,-0.031502533704042435
1772536713379313700,0.706313720703125,-0.37062811851501465,-0.25114381313323975,-0.10996964573860168
1772536713389361700,0.716361572265625,-0.40869802236557007,-0.2867111265659332,-0.1835447996854782
1772536713399410700,0.72641064453125,-0.4593055248260498,-0.28291240334510803,-0.2557886242866516
1772536713409462800,0.736462890625,-0.4922800064086914,-0.23191818594932556,-0.3198179602622986
1772536713419511800,0.74651171875,-0.4771505892276764,-0.1074841171503067,-0.35340628027915955
1772536713429560800,0.756560791015625,-0.4401840269565582,0.057791661471128464,-0.3605693578720093
1772536713439609900,0.76660986328125,-0.3838840126991272,0.20791219174861908,-0.34698086977005005
1772536713449657600,0.77665771484375,-0.3213774859905243,0.3133089244365692,-0.31171315908432007
1772536713459707000,0.786706787109375,-0.27545180916786194,0.34546712040901184,-0.25292468070983887
1772536713469756000,0.796755859375,-0.24166642129421234,0.3230869770050049,-0.16825824975967407
1772536713479804700,0.8068046875,-0.21478793025016785,0.27836665511131287,-0.05982232093811035
1772536713489854000,0.81685400390625,-0.19699855148792267,0.22094783186912537,0.059187423437833786
1772536713499902700,0.82690283203125,-0.1788264662027359,0.14046736061573029,0.1580788493156433
1772536713509951000,0.836950927734375,-0.16019898653030396,0.045104093849658966,0.23047848045825958
1772536713519999700,0.846999755859375,-0.14575986564159393,-0.026804449036717415,0.27223125100135803
1772536713530048800,0.857048828125,-0.13182860612869263,-0.058927230536937714,0.2791038155555725
1772536713540097800,0.867097900390625,-0.11318567395210266,-0.061650581657886505,0.2621959447860718
1772536713550146800,0.877146728515625,-0.10204674303531647,-0.05765344202518463,0.22726084291934967
1772536713560195600,0.887195556640625,-0.11281922459602356,-0.04640398547053337,0.1640286147594452
1772536713570243800,0.897243896484375,-0.1349591463804245,-0.057916030287742615,0.08853013068437576
1772536713580292600,0.907292724609375,-0.17328417301177979,-0.05745210871100426,0.009414274245500565
1772536713590342000,0.917341796875,-0.21460311114788055,-0.042863842099905014,-0.06623467803001404
1772536713600390700,0.927390625,-0.2432107925415039,0.011833756230771542,-0.12805357575416565
1772536713610439700,0.937439697265625,-0.23431529104709625,0.10572749376296997,-0.16275322437286377
1772536713620489000,0.947489013671875,-0.2074059247970581,0.20499016344547272,-0.1770104616880417
1772536713630537700,0.957537841796875,-0.16584941744804382,0.26308757066726685,-0.17799822986125946
1772536713640586000,0.9675859375,-0.11990376561880112,0.2559625208377838,-0.17514358460903168
1772536713650634800,0.977634765625,-0.08085170388221741,0.22283494472503662,-0.1539706587791443
1772536713660683800,0.987683837890625,-0.05576366186141968,0.20432864129543304,-0.12076183408498764
1772536713670732800,0.99773291015625,-0.03934873640537262,0.19214440882205963,-0.07145900279283524
1772536713680781800,1.00778173828125,-0.04238074645400047,0.16522011160850525,-0.028431108221411705
1772536713690830600,1.01783056640625,-0.03702646121382713,0.12306680530309677,0.006894657853990793
1772536713700878800,1.02787890625,-0.0456114262342453,0.09151393920183182,0.034331075847148895
1772536713710927600,1.037927734375,-0.05578789860010147,0.06220798194408417,0.04524097964167595
1772536713720977000,1.047976806640625,-0.06705813109874725,-0.0027382622938603163,0.032390695065259933
1772536713731025700,1.058025634765625,-0.08149272948503494,-0.04585244134068489,0.013705958612263203
1772536713741074700,1.06807470703125,-0.1012246236205101,-0.10863566398620605,-0.01721121184527874
1772536713751124000,1.0781240234375,-0.12678350508213043,-0.1760794222354889,-0.04917260631918907
1772536713761171700,1.088171630859375,-0.15336132049560547,-0.2368314564228058,-0.08154971897602081
1772536713771220700,1.098220703125,-0.1765744984149933,-0.29061052203178406,-0.10993901640176773
1772536713781269800,1.108269775390625,-0.18498609960079193,-0.30239102244377136,-0.13158120214939117
1772536713791318800,1.11831884765625,-0.17926056683063507,-0.26955610513687134,-0.14250680804252625
1772536713801367800,1.128367919921875,-0.156851664185524,-0.19675301015377045,-0.15081454813480377
1772536713811416800,1.138416748046875,-0.12203269451856613,-0.09978970885276794,-0.15152108669281006
1772536713821465900,1.1484658203125,-0.08572236448526382,0.016876718029379845,-0.13693015277385712
1772536713831513900,1.158513916015625,-0.05444726347923279,0.13228720426559448,-0.12075544893741608
1772536713841562600,1.168562744140625,-0.03313931077718735,0.1923433393239975,-0.09290144592523575
1772536713851612000,1.17861181640625,-0.010276872664690018,0.2049856334924698,-0.0630418136715889
1772536713861660700,1.18866064453125,0.01173095777630806,0.19172656536102295,-0.018438128754496574
1772536713871709700,1.198709716796875,0.03344131261110306,0.17271184921264648,0.034395258873701096
1772536713881758700,1.2087587890625,0.05480998381972313,0.1342824399471283,0.08090390264987946
1772536713891806700,1.218806640625,0.08096542209386826,0.061465226113796234,0.1141156554222107
1772536713901855700,1.228855712890625,0.1017303541302681,-0.017356086522340775,0.13632534444332123
1772536713911904800,1.23890478515625,0.11196301877498627,-0.07041184604167938,0.16342221200466156
1772536713921953800,1.248953857421875,0.12214801460504532,-0.10740741342306137,0.18896326422691345
1772536713932002800,1.2590029296875,0.13750140368938446,-0.12459439039230347,0.2027781456708908
1772536713942051800,1.2690517578125,0.153638556599617,-0.11316916346549988,0.21623963117599487
1772536713952099800,1.279099853515625,0.16772614419460297,-0.06875190138816833,0.21784311532974243
1772536713962148900,1.28914892578125,0.1790589690208435,-0.01363458577543497,0.20006278157234192
1772536713972198000,1.299197998046875,0.18829959630966187,0.025115473195910454,0.16320863366127014
1772536713982247000,1.309246826171875,0.18940775096416473,0.041969552636146545,0.10565479099750519
1772536713992295700,1.319295654296875,0.18447211384773254,0.04900243133306503,0.05765237659215927
1772536714002345000,1.329344970703125,0.1855030208826065,0.07192692160606384,0.03568049892783165
1772536714012393700,1.339393798828125,0.20939023792743683,0.11183226108551025,0.061651114374399185
1772536714022442000,1.34944189453125,0.2500961124897003,0.12986984848976135,0.0996972993016243
1772536714032490800,1.35949072265625,0.26645058393478394,0.0670006051659584,0.12948688864707947
1772536714042539800,1.369539794921875,0.2727532386779785,-0.026464363560080528,0.14928002655506134
1772536714052588800,1.3795888671875,0.29318767786026,-0.0782197043299675,0.1653577983379364
1772536714062637800,1.389637939453125,0.30247411131858826,-0.10611285269260406,0.1661548912525177
1772536714072686600,1.3996865234375,0.29357969760894775,-0.14585627615451813,0.1430402398109436
1772536714082734800,1.40973486328125,0.27645474672317505,-0.18576426804065704,0.09264817833900452
1772536714092783600,1.41978369140625,0.24748089909553528,-0.21666653454303741,0.033548105508089066
1772536714102833000,1.4298330078125,0.236405611038208,-0.18491339683532715,-0.0020719394087791443
1772536714112882000,1.4398818359375,0.20441199839115143,-0.11908111721277237,-0.01882561855018139
1772536714122930700,1.4499306640625,0.18821358680725098,-0.02269359491765499,0.0017725999932736158
1772536714132980000,1.45997998046875,0.19100403785705566,0.07518716156482697,0.03540060296654701
1772536714143027700,1.47002783203125,0.20056851208209991,0.12667565047740936,0.07060705870389938
1772536714153077000,1.480076904296875,0.2235976755619049,0.12830764055252075,0.11609118431806564
1772536714163125800,1.490125732421875,0.2451506406068802,0.08759748935699463,0.17095203697681427
1772536714173174800,1.5001748046875,0.27263686060905457,0.05076677352190018,0.24159984290599823
1772536714183223800,1.510223876953125,0.304957777261734,0.04079962894320488,0.31236135959625244
1772536714193272800,1.52027294921875,0.30833518505096436,0.03943395987153053,0.36375078558921814
1772536714203321600,1.530321533203125,0.29721251130104065,0.028269454836845398,0.36746323108673096
1772536714213369900,1.540369873046875,0.2837715446949005,0.011889150366187096,0.3456050753593445
1772536714223418600,1.550418701171875,0.26010987162590027,0.0038304245099425316,0.2924529016017914
1772536714233468000,1.560468017578125,0.2273537963628769,0.0051902346312999725,0.2268134355545044
1772536714243516700,1.5705166015625,0.18510088324546814,0.009285643696784973,0.1386694610118866
1772536714253565700,1.580565673828125,0.1505085527896881,0.021703697741031647,0.054675761610269547
1772536714263615000,1.590614990234375,0.1257328987121582,0.04667935520410538,-0.015388011001050472
1772536714273662700,1.600662841796875,0.10089412331581116,0.04628227651119232,-0.059665195643901825
1772536714283711700,1.610711669921875,0.08790721744298935,0.0007177218794822693,-0.08839670568704605
1772536714293760800,1.6207607421875,0.09036771208047867,-0.053216349333524704,-0.09195549041032791
1772536714303809800,1.630809814453125,0.0895828828215599,-0.09111925959587097,-0.06914898008108139
1772536714313858800,1.64085888671875,0.08423232287168503,-0.13311916589736938,-0.029353894293308258
1772536714323907800,1.650907958984375,0.07467849552631378,-0.17463545501232147,0.0035334820859134197
1772536714333955800,1.660955810546875,0.05607045814394951,-0.19141177833080292,0.029461752623319626
1772536714344004900,1.6710048828125,0.04171442240476608,-0.17326605319976807,0.02768009714782238
1772536714354053600,1.6810537109375,0.026627881452441216,-0.11039521545171738,0.010890464298427105
1772536714364103000,1.69110302734375,0.016692960634827614,-0.03262052685022354,-0.029171733185648918
1772536714374151700,1.701151611328125,0.0027539748698472977,0.03569035232067108,-0.08856049180030823
1772536714384200700,1.71120068359375,-0.006857639644294977,0.10529979318380356,-0.13979437947273254
1772536714394249700,1.721249755859375,-0.0060264673084020615,0.17232516407966614,-0.17773111164569855
1772536714404297700,1.731297607421875,0.005844307132065296,0.2356404811143875,-0.1971583366394043
1772536714414347000,1.741346923828125,0.018099375069141388,0.2739711105823517,-0.2033105045557022
1772536714424396000,1.75139599609375,0.0252853836864233,0.28496623039245605,-0.20263859629631042
1772536714434444800,1.76144482421875,0.01930791698396206,0.25810158252716064,-0.20083989202976227
1772536714444494000,1.771494140625,0.008080297149717808,0.19576124846935272,-0.19907422363758087
1772536714454543000,1.781543212890625,-0.016023440286517143,0.11471406370401382,-0.2006382942199707
1772536714464591000,1.791591064453125,-0.04954145476222038,0.037707697600126266,-0.18810412287712097
1772536714474640000,1.801639892578125,-0.08385495096445084,-0.02592427469789982,-0.1823013573884964
1772536714484689000,1.81168896484375,-0.10651072859764099,-0.07356663048267365,-0.18267127871513367
1772536714494738200,1.82173828125,-0.12249315530061722,-0.09558351337909698,-0.1810952126979828
1772536714504787000,1.831786865234375,-0.13496847450733185,-0.07983677834272385,-0.17559659481048584
1772536714514836000,1.8418359375,-0.1376260370016098,-0.06047958880662918,-0.16521133482456207
1772536714524885000,1.851885009765625,-0.1315564215183258,-0.02684839256107807,-0.14629623293876648
1772536714534933000,1.86193310546875,-0.11465467512607574,0.016697753220796585,-0.12422261387109756
1772536714544982000,1.87198193359375,-0.08753304183483124,0.06770101934671402,-0.08868672698736191
1772536714555031000,1.882031005859375,-0.06589965522289276,0.10563694685697556,-0.0470130480825901
1772536714565079800,1.892079833984375,-0.04960084334015846,0.0971558466553688,0.0005398227367550135
1772536714575129000,1.902129150390625,-0.0516890287399292,0.0617898628115654,0.047689225524663925
1772536714585177900,1.912177734375,-0.06747624278068542,0.014815164729952812,0.09317335486412048
1772536714595227000,1.922226806640625,-0.09637420624494553,-0.04051626846194267,0.13024242222309113
1772536714605275000,1.93227490234375,-0.12155519425868988,-0.07756216824054718,0.15946929156780243
1772536714615324000,1.942323974609375,-0.13857358694076538,-0.0762830525636673,0.18406517803668976
1772536714625373000,1.952373046875,-0.14948776364326477,-0.053938597440719604,0.19174546003341675
1772536714635422000,1.962421875,-0.15109071135520935,-0.03159813955426216,0.17930583655834198
1772536714645471000,1.972470947265625,-0.1461702585220337,-0.008189486339688301,0.14277739822864532
1772536714655520000,1.98252001953125,-0.14558622241020203,0.00887684803456068,0.09555581957101822
1772536714665568000,1.992568115234375,-0.15464124083518982,0.041416414082050323,0.04918192699551582
1772536714675617000,2.002616943359375,-0.16710323095321655,0.07135460525751114,0.0100813964381814
1772536714685666000,2.012666015625,-0.17119811475276947,0.08841534703969955,-0.006849383935332298
1772536714695715000,2.022715087890625,-0.15993347764015198,0.09777316451072693,0.002007490722462535
1772536714705764000,2.03276416015625,-0.1443910002708435,0.10023898631334305,0.03356089070439339
1772536714715812900,2.042812744140625,-0.12448520213365555,0.09174083918333054,0.08739562332630157
1772536714725862100,2.052862060546875,-0.09193365275859833,0.07033967971801758,0.14407861232757568
1772536714735910000,2.062909912109375,-0.06400082260370255,-0.0032557144295424223,0.18989136815071106
1772536714745959200,2.072959228515625,-0.05264723300933838,-0.12219994515180588,0.19227489829063416
1772536714756008000,2.083008056640625,-0.0644700676202774,-0.2630012631416321,0.1542862355709076
1772536714766057000,2.093056884765625,-0.09113763272762299,-0.37251338362693787,0.08561237156391144
1772536714776106000,2.10310595703125,-0.1339636594057083,-0.4116365611553192,0.007485080510377884
1772536714786155000,2.113155029296875,-0.18573231995105743,-0.3970576226711273,-0.07666654884815216
1772536714796203000,2.123203125,-0.23035943508148193,-0.30587977170944214,-0.1553773432970047
1772536714806252000,2.133251953125,-0.25892263650894165,-0.14952769875526428,-0.2154606431722641
1772536714816301000,2.143301025390625,-0.25415077805519104,0.053293049335479736,-0.2395382821559906
1772536714826350000,2.15335009765625,-0.21594960987567902,0.2606574296951294,-0.2297421097755432
1772536714836399000,2.163399169921875,-0.1657775193452835,0.4065272808074951,-0.2005019336938858
1772536714846447900,2.17344775390625,-0.10943035036325455,0.4581819474697113,-0.1692875623703003
1772536714856497200,2.1834970703125,-0.07646095007658005,0.4313647150993347,-0.1345045417547226
1772536714866545000,2.193544921875,-0.06725813448429108,0.3247695565223694,-0.11144077032804489
1772536714876594200,2.20359423828125,-0.08021121472120285,0.17064018547534943,-0.0767885223031044
1772536714886643000,2.213642822265625,-0.09506846219301224,0.029499301686882973,-0.021085577085614204
1772536714896692000,2.22369189453125,-0.11210336536169052,-0.07435066252946854,0.06407325714826584
1772536714906741000,2.233740966796875,-0.11884782463312149,-0.11959324032068253,0.15646231174468994
1772536714916790000,2.2437900390625,-0.11897458881139755,-0.11139123886823654,0.23651933670043945
1772536714926839000,2.253839111328125,-0.09785518795251846,-0.07012555748224258,0.2821137011051178
1772536714936887000,2.263886962890625,-0.07069840282201767,-0.016112124547362328,0.2930680811405182
1772536714946935800,2.273935791015625,-0.04652249440550804,0.03460564836859703,0.2565785348415375
1772536714956985000,2.283985107421875,-0.035771846771240234,0.07301562279462814,0.18817603588104248
1772536714967034000,2.2940341796875,-0.04499490559101105,0.11499077081680298,0.10958828032016754
1772536714977083000,2.304082763671875,-0.09327881783246994,0.11663074046373367,0.01671825908124447
1772536714987132200,2.314132080078125,-0.1641244888305664,0.08330634236335754,-0.08483872562646866
1772536714997180000,2.324179931640625,-0.24045920372009277,0.032045818865299225,-0.1850540041923523
1772536715007229200,2.334229248046875,-0.30991631746292114,-0.02924417145550251,-0.27011457085609436
1772536715017278000,2.34427783203125,-0.3711961805820465,-0.07861438393592834,-0.3351207375526428
1772536715027327000,2.354326904296875,-0.40131014585494995,-0.11457104980945587,-0.367458701133728
1772536715037376000,2.3643759765625,-0.38858476281166077,-0.09582426398992538,-0.35486194491386414
1772536715047425000,2.374425048828125,-0.35575971007347107,-0.03544534370303154,-0.3080422580242157
1772536715057473800,2.384473876953125,-0.30605125427246094,0.02941860817372799,-0.25270867347717285
1772536715067522000,2.39452197265625,-0.25069719552993774,0.08145597577095032,-0.20814813673496246
1772536715077570800,2.40457080078125,-0.20807650685310364,0.09587912261486053,-0.19434204697608948
1772536715087620000,2.4146201171875,-0.1914285570383072,0.08443205803632736,-0.19614820182323456
1772536715097668900,2.4246689453125,-0.19798046350479126,0.06389375776052475,-0.21007999777793884
1772536715107718000,2.4347177734375,-0.21784551441669464,0.03301733732223511,-0.22367143630981445
1772536715117767200,2.44476708984375,-0.24842126667499542,-0.01449744962155819,-0.22971682250499725
1772536715127816000,2.45481591796875,-0.2755697965621948,-0.0761011615395546,-0.22601954638957977
1772536715137864200,2.4648642578125,-0.28254008293151855,-0.1324848085641861,-0.19991657137870789
1772536715147913000,2.474912841796875,-0.28338244557380676,-0.1556931883096695,-0.1476946473121643
1772536715157962000,2.4849619140625,-0.2805027663707733,-0.16899462044239044,-0.09736037254333496
1772536715168011000,2.495010986328125,-0.2594989538192749,-0.1714164912700653,-0.06175364553928375
1772536715178060000,2.50506005859375,-0.22613486647605896,-0.1391051560640335,-0.026757843792438507
1772536715188108800,2.51510888671875,-0.19631491601467133,-0.07948151230812073,-0.010617490857839584
1772536715198158000,2.525157958984375,-0.16960154473781586,-0.010173275135457516,-0.012294483371078968
1772536715208205800,2.535205810546875,-0.15001799166202545,0.05192578211426735,-0.0367223285138607
1772536715218255000,2.545255126953125,-0.13612614572048187,0.09853855520486832,-0.0719093456864357
1772536715228304000,2.555303955078125,-0.12045610696077347,0.1451454758644104,-0.09940727800130844
1772536715238353000,2.565352783203125,-0.09460426867008209,0.17786826193332672,-0.11334280669689178
1772536715248402000,2.57540185546875,-0.06898492574691772,0.17936336994171143,-0.10982397198677063
1772536715258451000,2.585450927734375,-0.042505115270614624,0.15323509275913239,-0.09225722402334213
1772536715268499000,2.5954990234375,-0.0191971305757761,0.11895115673542023,-0.04631743207573891
1772536715278548000,2.6055478515625,0.01943761296570301,0.08685606718063354,0.015787219628691673
1772536715288597000,2.615596923828125,0.05577058717608452,0.039996419101953506,0.08728723227977753
1772536715298646000,2.62564599609375,0.08603661507368088,-0.033843718469142914,0.1352611482143402
1772536715308695000,2.635695068359375,0.11270710825920105,-0.13713522255420685,0.15557999908924103
1772536715318744000,2.645744140625,0.14140479266643524,-0.2550725042819977,0.17940810322761536
1772536715328793000,2.65579296875,0.16947424411773682,-0.34906530380249023,0.21719756722450256
1772536715338841000,2.665841064453125,0.18648838996887207,-0.40219512581825256,0.26006433367729187
1772536715348890000,2.67589013671875,0.19037313759326935,-0.4140413999557495,0.2873721122741699
1772536715358939000,2.68593896484375,0.18665696680545807,-0.40272241830825806,0.2961437702178955
1772536715368988200,2.69598828125,0.16823828220367432,-0.3760223686695099,0.2694152295589447
1772536715379037000,2.706036865234375,0.16884760558605194,-0.2998117506504059,0.23844239115715027
1772536715389086000,2.7160859375,0.18185955286026,-0.15973320603370667,0.21302811801433563
1772536715399135200,2.72613525390625,0.19625259935855865,-0.006160157732665539,0.19737352430820465
1772536715409183000,2.736182861328125,0.2330620139837265,0.1385890394449234,0.20072884857654572
1772536715419232300,2.746232177734375,0.28349030017852783,0.2857004702091217,0.22866380214691162
1772536715429281300,2.75628125,0.33960551023483276,0.39349988102912903,0.27119502425193787
1772536715439330300,2.766330322265625,0.38350212574005127,0.3857088088989258,0.299805611371994
1772536715449379300,2.77637939453125,0.4037171006202698,0.2778947353363037,0.30137714743614197
1772536715459428400,2.786428466796875,0.3920072019100189,0.11268872767686844,0.2770252227783203
1772536715469477000,2.79647705078125,0.37728896737098694,-0.052926331758499146,0.247651606798172
1772536715479525400,2.806525390625,0.3720065951347351,-0.17311638593673706,0.20701204240322113
1772536715489574100,2.81657421875,0.3567141890525818,-0.24749821424484253,0.16747581958770752
1772536715499623400,2.82662353515625,0.3427349925041199,-0.2914278507232666,0.11960043013095856
1772536715509672400,2.83667236328125,0.3292998671531677,-0.30473512411117554,0.06790581345558167
1772536715519721200,2.84672119140625,0.32685109972953796,-0.2471991330385208,0.01948368549346924
1772536715529770500,2.8567705078125,0.3374837636947632,-0.1261637955904007,-0.005881058517843485
1772536715539819300,2.8668193359375,0.34642159938812256,0.013412212021648884,-0.022308234125375748
1772536715549867300,2.8768671875,0.35611629486083984,0.12034718692302704,-0.018126539885997772
1772536715559916300,2.886916259765625,0.3727964758872986,0.16503076255321503,-0.00387410051189363
1772536715569965300,2.89696533203125,0.38523849844932556,0.15391606092453003,0.033795781433582306
1772536715580014300,2.907014404296875,0.3951169550418854,0.09769540280103683,0.09144922345876694
1772536715590063400,2.9170634765625,0.3970583975315094,0.015565910376608372,0.156308114528656
1772536715600112000,2.927112060546875,0.40134263038635254,-0.06586769968271255,0.2274896204471588
1772536715610160400,2.937160400390625,0.395820289850235,-0.12420770525932312,0.2882365882396698
1772536715620209200,2.947209228515625,0.3835769593715668,-0.16951899230480194,0.3042949140071869
1772536715630258400,2.957258544921875,0.36209723353385925,-0.2117077261209488,0.27174124121665955
1772536715640307200,2.96730712890625,0.34042495489120483,-0.23335416615009308,0.21251945197582245
1772536715650356200,2.977356201171875,0.3253730237483978,-0.2048729807138443,0.15674567222595215
1772536715660405500,2.987405517578125,0.3184714615345001,-0.12795209884643555,0.10759010910987854
1772536715670454300,2.997454345703125,0.3210243582725525,-0.04032585024833679,0.06836867332458496
1772536715680502300,3.007502197265625,0.3248254954814911,0.04745966196060181,0.04575444012880325
1772536715690551300,3.01755126953125,0.32287392020225525,0.10259295254945755,0.020121779292821884
1772536715700600300,3.027600341796875,0.31794387102127075,0.12012374401092529,-0.002435460686683655
1772536715710649300,3.0376494140625,0.3121560215950012,0.10495464503765106,-0.016410931944847107
1772536715720698400,3.047698486328125,0.29965436458587646,0.060212474316358566,-0.022541262209415436
1772536715730747100,3.0577470703125,0.2668705880641937,-0.009015332907438278,-0.020686369389295578
1772536715740796400,3.06779638671875,0.2308715581893921,-0.06974285840988159,-0.020980648696422577
1772536715750844200,3.07784423828125,0.1880950778722763,-0.09903257340192795,-0.025239309296011925
1772536715760893400,3.0878935546875,0.1432301253080368,-0.06786613166332245,-0.03278457745909691
1772536715770942200,3.097942138671875,0.1027442216873169,0.003064233111217618,-0.05314364656805992
1772536715780991200,3.1079912109375,0.07066617906093597,0.08546297252178192,-0.09358694404363632
1772536715791040300,3.118040283203125,0.037942323833703995,0.15498238801956177,-0.14990028738975525
1772536715801089300,3.12808935546875,0.00957060232758522,0.2028668224811554,-0.21018067002296448
1772536715811138300,3.13813818359375,-0.005141498986631632,0.23185214400291443,-0.26337066292762756
1772536715821186300,3.148186279296875,-0.004589958116412163,0.2506040036678314,-0.29261988401412964
1772536715831235300,3.1582353515625,-0.00692102313041687,0.2640151381492615,-0.2920510172843933
1772536715841284400,3.168284423828125,-0.0031497206073254347,0.2689398527145386,-0.2735620439052582
1772536715851333400,3.17833349609375,-0.003989681601524353,0.2478145956993103,-0.2477853000164032
1772536715861382100,3.188382080078125,-0.01055996585637331,0.19398465752601624,-0.22972933948040009
1772536715871431400,3.198431396484375,-0.017114005982875824,0.1396431177854538,-0.20875374972820282
1772536715881480200,3.208480224609375,-0.052124984562397,0.07181186974048615,-0.1952485889196396
1772536715891528400,3.218528564453125,-0.08546856045722961,0.0007286408799700439,-0.19962362945079803
1772536715901577200,3.2285771484375,-0.10864019393920898,-0.051370780915021896,-0.21445050835609436
1772536715911626200,3.238626220703125,-0.12317226827144623,-0.047869786620140076,-0.2103324681520462
1772536715921675300,3.24867529296875,-0.13519909977912903,-0.029168272390961647,-0.20332036912441254
1772536715931724300,3.258724365234375,-0.14121730625629425,-0.02889050357043743,-0.20558245480060577
1772536715941773000,3.26877294921875,-0.13487845659255981,-0.04867672547698021,-0.2081689089536667
1772536715951822300,3.278822265625,-0.12643197178840637,-0.06148706376552582,-0.19294895231723785
1772536715961870000,3.2888701171875,-0.11226236075162888,-0.04487426578998566,-0.16420279443264008
1772536715971919400,3.29891943359375,-0.09873349964618683,0.00043036683928221464,-0.12032002210617065
1772536715981968400,3.308968505859375,-0.08483712375164032,0.0483827106654644,-0.07544655352830887
1772536715992017200,3.31901708984375,-0.07461564987897873,0.08345787227153778,-0.02100089006125927
1772536716002066400,3.32906640625,-0.07686841487884521,0.09187479317188263,0.030470291152596474
1772536716012115200,3.339115234375,-0.08359716087579727,0.07919521629810333,0.07928310334682465
1772536716022164200,3.349164306640625,-0.08877673745155334,0.06871594488620758,0.12818406522274017
1772536716032212200,3.359212158203125,-0.09995748847723007,0.06383463740348816,0.17363783717155457
1772536716042261200,3.36926123046875,-0.12154720723628998,0.04677736014127731,0.20304127037525177
1772536716052310300,3.379310302734375,-0.1381853073835373,-0.0006934871198609471,0.20722322165966034
1772536716062359300,3.389359375,-0.14972691237926483,-0.03623417019844055,0.20130647718906403
1772536716072408300,3.399408203125,-0.16238625347614288,-0.04126860946416855,0.1922200471162796
1772536716082457300,3.409457275390625,-0.16406190395355225,-0.023512782528996468,0.17454597353935242
1772536716092506400,3.41950634765625,-0.16383899748325348,0.002927879337221384,0.16537511348724365
1772536716102554400,3.429554443359375,-0.1644483357667923,0.03111743927001953,0.15935130417346954
1772536716112603100,3.43960302734375,-0.170357346534729,0.05703212693333626,0.1574876308441162
1772536716122652400,3.44965234375,-0.17000767588615417,0.0857231616973877,0.15672144293785095
1772536716132701400,3.459701416015625,-0.16732054948806763,0.10734829306602478,0.16595488786697388
1772536716142750200,3.469750244140625,-0.16269277036190033,0.12246865779161453,0.17632150650024414
1772536716152799500,3.479799560546875,-0.1595875322818756,0.11936687678098679,0.19929739832878113
1772536716162848300,3.48984814453125,-0.1494845598936081,0.10392160713672638,0.22310179471969604
1772536716172896500,3.499896484375,-0.13745853304862976,0.07948204129934311,0.26384949684143066
1772536716182945300,3.5099453125,-0.1179085299372673,0.05937783792614937,0.3170567750930786
1772536716192994300,3.519994384765625,-0.0990339070558548,0.03394491598010063,0.360135555267334
1772536716203043300,3.530043212890625,-0.08677350729703903,-0.013177054934203625,0.372798353433609
1772536716213092400,3.54009228515625,-0.09769007563591003,-0.0846877247095108,0.35309308767318726
1772536716223141000,3.55014111328125,-0.12794917821884155,-0.18073010444641113,0.2975616455078125
1772536716233190400,3.5601904296875,-0.16333486139774323,-0.2440667301416397,0.2267114371061325
1772536716243238100,3.570238037109375,-0.23064519464969635,-0.29195037484169006,0.1261424869298935
1772536716253287400,3.580287353515625,-0.30406373739242554,-0.3201604187488556,0.009111206978559494
1772536716263336200,3.590336181640625,-0.36937618255615234,-0.3029974102973938,-0.12016236037015915
1772536716273385200,3.60038525390625,-0.4227991998195648,-0.25905951857566833,-0.23797234892845154
1772536716283434500,3.6104345703125,-0.4646265208721161,-0.19069750607013702,-0.33017683029174805
1772536716293483300,3.620483154296875,-0.4848577678203583,-0.10918188095092773,-0.3868268132209778
1772536716303532300,3.6305322265625,-0.48178553581237793,-0.01900964416563511,-0.4087214469909668
1772536716313580300,3.640580322265625,-0.4588988721370697,0.040829453617334366,-0.3989308774471283
1772536716323629300,3.65062939453125,-0.4127707779407501,0.07055912166833878,-0.3373444676399231
1772536716333678300,3.66067822265625,-0.35571521520614624,0.08380302041769028,-0.24141022562980652
1772536716343727400,3.670727294921875,-0.3060331642627716,0.05711202323436737,-0.1219397559762001
1772536716353776000,3.680776123046875,-0.2848101556301117,-0.023081351071596146,-0.008098673075437546
1772536716363825400,3.690825439453125,-0.25589489936828613,-0.12209048867225647,0.09591507911682129
1772536716373874200,3.700874267578125,-0.2354671210050583,-0.19314202666282654,0.17892368137836456
1772536716383922400,3.71092236328125,-0.23408466577529907,-0.21676293015480042,0.2167421579360962
1772536716393971200,3.72097119140625,-0.24022404849529266,-0.21294716000556946,0.20794521272182465
1772536716404020200,3.731020263671875,-0.24568593502044678,-0.182608962059021,0.1609657108783722
1772536716414068700,3.74106884765625,-0.26343056559562683,-0.11528957635164261,0.08388424664735794
1772536716424117800,3.75111767578125,-0.28683948516845703,-0.02851126901805401,-0.006966562941670418
1772536716434166800,3.761166748046875,-0.3007443845272064,0.06739448755979538,-0.10134898871183395
1772536716444214800,3.77121484375,-0.2980942726135254,0.1624072790145874,-0.18426917493343353
1772536716454263800,3.781263916015625,-0.2933993935585022,0.23741309344768524,-0.23295734822750092
1772536716464312800,3.791312744140625,-0.27727341651916504,0.26415228843688965,-0.2610715329647064
1772536716474361600,3.801361572265625,-0.25097230076789856,0.2473440170288086,-0.25910401344299316
1772536716484411000,3.811410888671875,-0.22066552937030792,0.2113173007965088,-0.23446683585643768
1772536716494460000,3.8214599609375,-0.20176801085472107,0.16459214687347412,-0.19817008078098297
1772536716504508700,3.8315087890625,-0.1923135221004486,0.12249795347452164,-0.15886075794696808
1772536716514556700,3.841556640625,-0.19011667370796204,0.0657862052321434,-0.12487775087356567
1772536716524605700,3.851605712890625,-0.19454258680343628,0.009955162182450294,-0.10960239171981812
1772536716534655000,3.861655029296875,-0.19762971997261047,-0.033798977732658386,-0.10872887820005417
1772536716544703700,3.871703857421875,-0.1962219774723053,-0.0569160133600235,-0.12400982528924942
1772536716554752800,3.881752685546875,-0.18069946765899658,-0.0675811767578125,-0.14227698743343353
1772536716564801800,3.8918017578125,-0.16312633454799652,-0.05997492000460625,-0.15557441115379333
1772536716574850800,3.901850830078125,-0.14194782078266144,-0.04140442982316017,-0.1611958146095276
1772536716584898800,3.91189892578125,-0.11286689341068268,-0.024049410596489906,-0.1480049043893814
1772536716594947800,3.92194775390625,-0.08719935268163681,-0.012775183655321598,-0.12672652304172516
1772536716604996600,3.93199658203125,-0.06354115903377533,-0.008273908868432045,-0.09850846230983734
1772536716615046000,3.9420458984375,-0.044427916407585144,-0.021375330165028572,-0.09816864132881165
1772536716625094700,3.9520947265625,-0.03346208482980728,-0.05649443343281746,-0.1151694655418396
1772536716635143700,3.962143798828125,-0.023899473249912262,-0.09942059963941574,-0.1454184502363205
1772536716645193000,3.97219287109375,-0.01685887575149536,-0.12449692189693451,-0.17898786067962646
1772536716655241700,3.98224169921875,-0.02171195298433304,-0.11993546038866043,-0.20570895075798035
1772536716665289700,3.992289794921875,-0.017251957207918167,-0.0950000137090683,-0.22176435589790344
1772536716675338800,4.0023388671875,-0.010246512480080128,-0.061528075486421585,-0.2179272621870041
1772536716685387800,4.0123876953125,-0.002633067313581705,-0.009371663443744183,-0.20762430131435394
1772536716695436800,4.022436767578125,0.018935341387987137,0.01404657680541277,-0.19304482638835907
1772536716705485800,4.03248583984375,0.046597063541412354,0.02736983820796013,-0.16731469333171844
1772536716715534600,4.04253466796875,0.07636880874633789,0.03852688521146774,-0.12542903423309326
1772536716725582800,4.052582763671875,0.10506037622690201,0.04218740016222,-0.0729391872882843
1772536716735631600,4.062631591796875,0.13768622279167175,0.028864404186606407,-0.016741694882512093
1772536716745681000,4.072680908203125,0.16548030078411102,-0.0073623089119791985,0.05175374075770378
1772536716755729700,4.082729736328125,0.19014756381511688,-0.059417787939310074,0.12627165019512177
1772536716765778700,4.09277880859375,0.2133447676897049,-0.11220403760671616,0.2025190144777298
1772536716775827700,4.10282763671875,0.22366797924041748,-0.16776104271411896,0.2645943760871887
1772536716785876700,4.112876708984375,0.24852485954761505,-0.19017420709133148,0.3183673322200775
1772536716795925800,4.12292578125,0.26253974437713623,-0.170969620347023,0.35398444533348083
1772536716805973800,4.132973876953125,0.26029762625694275,-0.1485455334186554,0.3611163794994354
1772536716816022500,4.1430224609375,0.25880199670791626,-0.14596332609653473,0.33120641112327576
1772536716826071800,4.15307177734375,0.2680407762527466,-0.12339384108781815,0.29714804887771606
1772536716836120800,4.163120849609375,0.2669387459754944,-0.059661999344825745,0.2765919268131256
1772536716846169600,4.173169677734375,0.30724942684173584,0.09059088677167892,0.2933866083621979
1772536716856219000,4.183218994140625,0.3586231470108032,0.25321415066719055,0.3255693018436432
1772536716866266600,4.1932666015625,0.3991343379020691,0.3044477701187134,0.3340378999710083
1772536716876316000,4.20331591796875,0.4194689095020294,0.24303528666496277,0.3085232079029083
1772536716886364700,4.21336474609375,0.41882655024528503,0.12622664868831635,0.25552257895469666
1772536716896413700,4.22341357421875,0.40078258514404297,0.026671558618545532,0.1985836625099182
1772536716906462700,4.233462646484375,0.37015700340270996,-0.027212446555495262,0.14550340175628662
1772536716916511700,4.24351171875,0.3306894898414612,-0.08799749612808228,0.09702002257108688
1772536716926560800,4.253560791015625,0.2903625965118408,-0.15564419329166412,0.035963062196969986
1772536716936608800,4.26360888671875,0.2740725576877594,-0.19352765381336212,-0.006969758775085211
1772536716946657500,4.273657470703125,0.28211984038352966,-0.16882683336734772,-0.0157062578946352
1772536716956706800,4.283706787109375,0.3110247254371643,-0.07544868439435959,0.013912353664636612
1772536716966755800,4.293755859375,0.34374403953552246,0.024512533098459244,0.06228361278772354
1772536716976804600,4.3038046875,0.3774245083332062,0.09951114654541016,0.11003835499286652
1772536716986854000,4.31385400390625,0.4113300144672394,0.15178313851356506,0.16452449560165405
1772536716996902700,4.323902587890625,0.44956955313682556,0.18770810961723328,0.21077507734298706
1772536717006951000,4.333950927734375,0.48093971610069275,0.23495206236839294,0.25680461525917053
1772536717016999700,4.343999755859375,0.4978313446044922,0.2583055794239044,0.2892294228076935
1772536717027048700,4.354048583984375,0.49812644720077515,0.24557940661907196,0.27933311462402344
1772536717037097700,4.36409765625,0.47254678606987,0.19608429074287415,0.22611649334430695
1772536717047146800,4.374146728515625,0.4156017303466797,0.08308076858520508,0.14357315003871918
1772536717057195800,4.38419580078125,0.3461422324180603,-0.023686686530709267,0.05399665609002113
1772536717067244800,4.394244873046875,0.2745806872844696,-0.08380462229251862,-0.01221618615090847
1772536717077293600,4.40429345703125,0.21583110094070435,-0.08905290812253952,-0.03917669877409935
1772536717087341800,4.414341796875,0.17180292308330536,-0.06961130350828171,-0.05354178696870804
1772536717097390600,4.424390625,0.14572817087173462,-0.05980634316802025,-0.06399016827344894
1772536717107439900,4.43443994140625,0.1393352597951889,-0.06412678956985474,-0.0727224051952362
1772536717117489000,4.444489013671875,0.14662165939807892,-0.05880472809076309,-0.08549226075410843
1772536717127537700,4.45453759765625,0.14467516541481018,-0.04633021354675293,-0.10607530176639557
1772536717137587000,4.4645869140625,0.13610057532787323,-0.05043627694249153,-0.14110678434371948
1772536717147634700,4.474634765625,0.10405077040195465,-0.07936593145132065,-0.18002143502235413
1772536717157684000,4.48468408203125,0.07016683369874954,-0.1186656653881073,-0.2119322270154953
1772536717167732700,4.494732666015625,0.03771328926086426,-0.13293194770812988,-0.23014585673809052
1772536717177781800,4.50478173828125,0.02274712361395359,-0.10024324804544449,-0.23113921284675598
1772536717187830800,4.514830810546875,0.021287977695465088,-0.021340975537896156,-0.22285811603069305
1772536717197879800,4.5248798828125,0.031126493588089943,0.0584728978574276,-0.21746733784675598
1772536717207928600,4.534928466796875,0.04808257520198822,0.13667342066764832,-0.22248047590255737
1772536717217976800,4.544976806640625,0.0701652392745018,0.22122105956077576,-0.2387007176876068
1772536717228025600,4.555025634765625,0.0876382365822792,0.2741655111312866,-0.26910629868507385
1772536717238075000,4.565074951171875,0.09906452894210815,0.2829715311527252,-0.31305643916130066
1772536717248123600,4.57512353515625,0.0936918705701828,0.2689337134361267,-0.3480895459651947
1772536717258172700,4.585172607421875,0.07443375140428543,0.24533678591251373,-0.36436542868614197
1772536717268222000,4.595221923828125,0.047923848032951355,0.21504385769367218,-0.3532062768936157
1772536717278270700,4.605270751953125,0.02118677832186222,0.19706246256828308,-0.3132050633430481
1772536717288318700,4.615318603515625,-0.0014948323369026184,0.186308354139328,-0.2562709152698517
1772536717298367700,4.62536767578125,-0.020483968779444695,0.15527081489562988,-0.21319802105426788
1772536717308416800,4.635416748046875,-0.044320326298475266,0.09855986386537552,-0.18242840468883514
1772536717318465800,4.6454658203125,-0.06349775195121765,0.04240631312131882,-0.17322798073291779
1772536717328514800,4.655514892578125,-0.07581433653831482,-0.001614940818399191,-0.16523635387420654
1772536717338563600,4.6655634765625,-0.08684754371643066,-0.023034745827317238,-0.15821120142936707
1772536717348612900,4.67561279296875,-0.08045436441898346,-0.03621739149093628,-0.13505235314369202
1772536717358660600,4.68566064453125,-0.08031588047742844,-0.06034430116415024,-0.10285580903291702
1772536717368710000,4.6957099609375,-0.06065189465880394,-0.06985551118850708,-0.057798583060503006
1772536717378758700,4.705758544921875,-0.052442170679569244,-0.040890175849199295,-0.0020442423410713673
1772536717388807700,4.7158076171875,-0.047316648066043854,0.005995041690766811,0.04731318727135658
1772536717398856700,4.725856689453125,-0.03147882968187332,0.05061444267630577,0.10127335786819458
1772536717408905700,4.73590576171875,-0.03425677493214607,0.10729876160621643,0.14742887020111084
1772536717418951400,4.745951416015625,-0.055021706968545914,0.13204751908779144,0.17659634351730347
1772536717428999400,4.75599951171875,-0.07516638934612274,0.12099938839673996,0.19199687242507935
1772536717439048400,4.76604833984375,-0.10091649740934372,0.08011161535978317,0.18906286358833313
1772536717449097500,4.776097412109375,-0.1275092214345932,0.011871040798723698,0.1771332323551178
1772536717459146500,4.786146484375,-0.16273832321166992,-0.043185021728277206,0.15441566705703735
1772536717469195300,4.7961953125,-0.19595353305339813,-0.08134971559047699,0.12228570133447647
1772536717479244500,4.80624462890625,-0.22732849419116974,-0.0961528941988945,0.0881117507815361
1772536717489293300,4.816293212890625,-0.2518841624259949,-0.10447926819324493,0.06011020764708519
1772536717499341600,4.826341552734375,-0.2649720013141632,-0.09630896151065826,0.04951375722885132
1772536717509390300,4.836390380859375,-0.2737726867198944,-0.054071225225925446,0.07327208667993546
1772536717519439400,4.846439453125,-0.27154016494750977,0.0030567762441933155,0.11421392112970352
1772536717529488400,4.85648828125,-0.25860652327537537,0.04188033938407898,0.15827246010303497
1772536717539537400,4.866537353515625,-0.23699310421943665,0.05511891096830368,0.20083563029766083
1772536717549586400,4.87658642578125,-0.20432597398757935,0.02556501515209675,0.2533361315727234
1772536717559635500,4.886635498046875,-0.17449164390563965,-0.0179305300116539,0.31331875920295715
1772536717569683200,4.89668310546875,-0.14672686159610748,-0.06396486610174179,0.36362001299858093
1772536717579732500,4.906732421875,-0.1303204596042633,-0.10175565630197525,0.39163967967033386
1772536717589781500,4.916781494140625,-0.12470198422670364,-0.11382590234279633,0.3976943790912628
1772536717599830300,4.926830322265625,-0.13361717760562897,-0.11987287551164627,0.37095463275909424
1772536717609879600,4.936879638671875,-0.15544764697551727,-0.09796863794326782,0.32062196731567383
1772536717619928300,4.94692822265625,-0.17625226080417633,-0.0454375222325325,0.248154416680336
1772536717629977300,4.956977294921875,-0.20615476369857788,-0.019544405862689018,0.144987553358078
1772536717640025300,4.967025390625,-0.2569391131401062,-0.0020812603179365396,0.020020313560962677
1772536717650074400,4.977074462890625,-0.3090582489967346,0.038411304354667664,-0.09214644134044647
1772536717660123400,4.987123291015625,-0.35998454689979553,0.09291635453701019,-0.18285156786441803
1772536717670172400,4.99717236328125,-0.39103540778160095,0.1667679399251938,-0.2283463478088379
1772536717680221400,5.007221435546875,-0.406313955783844,0.23292726278305054,-0.24330346286296844
1772536717690270500,5.0172705078125,-0.4070548415184021,0.2531987130641937,-0.22822491824626923
1772536717700319500,5.027319580078125,-0.3978496193885803,0.22566881775856018,-0.19049698114395142
1772536717710367500,5.037367431640625,-0.3753078281879425,0.17513079941272736,-0.1072915717959404
1772536717720416300,5.047416259765625,-0.34945014119148254,0.15482980012893677,-0.003385410411283374
1772536717730465500,5.057465576171875,-0.3222621977329254,0.16403155028820038,0.1056329533457756
1772536717740514600,5.0675146484375,-0.29006218910217285,0.15964852273464203,0.19117288291454315
1772536717750563300,5.077563232421875,-0.25147324800491333,0.12772120535373688,0.25042927265167236
1772536717760612600,5.087612548828125,-0.21546012163162231,0.0650051012635231,0.2631746530532837
1772536717770661400,5.097661376953125,-0.1978299915790558,-0.024338096380233765,0.23752786219120026
1772536717780709600,5.107709716796875,-0.19106502830982208,-0.0789685845375061,0.19053904712200165
1772536717790758400,5.11775830078125,-0.198541060090065,-0.08652876317501068,0.13453730940818787
1772536717800807400,5.127807373046875,-0.22465787827968597,-0.04368675872683525,0.06662216782569885
1772536717810856400,5.1378564453125,-0.2662559151649475,0.02797197923064232,-0.0037260286044329405
1772536717820905500,5.147905517578125,-0.3125419318675995,0.08758950233459473,-0.09200689196586609
1772536717830954200,5.157954345703125,-0.34840619564056396,0.12775130569934845,-0.17438112199306488
1772536717841003500,5.16800341796875,-0.36051905155181885,0.16039633750915527,-0.23823973536491394
1772536717851051300,5.17805126953125,-0.35177695751190186,0.18355758488178253,-0.28062260150909424
1772536717861100500,5.1881005859375,-0.32369178533554077,0.17078106105327606,-0.28183886408805847
1772536717871149300,5.1981494140625,-0.2807016968727112,0.14455877244472504,-0.2578107714653015
1772536717881198300,5.2081982421875,-0.23466497659683228,0.11390313506126404,-0.21273569762706757
1772536717891247600,5.21824755859375,-0.20729991793632507,0.08670347183942795,-0.1666792631149292
1772536717901296400,5.22829638671875,-0.18511126935482025,0.05440811440348625,-0.13099530339241028
1772536717911345400,5.238345458984375,-0.17192701995372772,0.02191062457859516,-0.10955925285816193
1772536717921393400,5.248393310546875,-0.16165494918823242,0.0010327738709747791,-0.1141795665025711
1772536717931442400,5.2584423828125,-0.1540348380804062,-0.02022191509604454,-0.13151168823242188
1772536717941491500,5.268491455078125,-0.14230228960514069,-0.030134201049804688,-0.1486392766237259
1772536717951540500,5.27854052734375,-0.12618030607700348,-0.040766071528196335,-0.174519345164299
1772536717961589200,5.28858935546875,-0.09878463298082352,-0.04041746258735657,-0.18732061982154846
1772536717971638500,5.298638427734375,-0.06715080887079239,-0.033420007675886154,-0.2046695202589035
1772536717981687300,5.308687255859375,-0.0359787717461586,-0.04420660808682442,-0.22610104084014893
1772536717991735600,5.318735595703125,-0.004403803031891584,-0.05312340706586838,-0.24067039787769318
1772536718001784300,5.328784423828125,0.016319850459694862,-0.08129485696554184,-0.233773872256279
1772536718011833300,5.338833251953125,0.0318484753370285,-0.12357386946678162,-0.21770861744880676
1772536718021882600,5.348882568359375,0.03817135468125343,-0.15559864044189453,-0.19688989222049713
1772536718031930400,5.358930419921875,0.03913328796625137,-0.1805463433265686,-0.17718569934368134
1772536718041979400,5.3689794921875,0.034932415932416916,-0.18407955765724182,-0.17315660417079926
1772536718052028400,5.3790283203125,0.02906707115471363,-0.15896116197109222,-0.17208920419216156
1772536718062077400,5.389077392578125,0.021265873685479164,-0.12437361478805542,-0.17951543629169464
1772536718072126500,5.39912646484375,0.02558072656393051,-0.09188385307788849,-0.17474517226219177
1772536718082175500,5.409175537109375,0.05583024397492409,-0.04602208733558655,-0.14569248259067535
1772536718092224300,5.419224365234375,0.10294076055288315,0.01306147314608097,-0.08378784358501434
1772536718102272500,5.4292724609375,0.14136084914207458,0.06925363838672638,0.0011406318517401814
1772536718112321300,5.4393212890625,0.17141063511371613,0.10741513967514038,0.06802938133478165
1772536718122370600,5.44937060546875,0.19409357011318207,0.12184973806142807,0.11382830142974854
1772536718132419300,5.45941943359375,0.20483064651489258,0.11138804256916046,0.1433931142091751
1772536718142468400,5.46946826171875,0.20589511096477509,0.07265609502792358,0.16196440160274506
1772536718152517400,5.479517333984375,0.21252956986427307,0.015970444306731224,0.18841545283794403
1772536718162566400,5.48956640625,0.21081316471099854,-0.058405254036188126,0.22922572493553162
1772536718172614400,5.499614501953125,0.20625729858875275,-0.130550816655159,0.2675342261791229
1772536718182663400,5.509663330078125,0.19436176121234894,-0.17729142308235168,0.29788362979888916
1772536718192712200,5.519712158203125,0.17975325882434845,-0.18239004909992218,0.30697324872016907
1772536718202761500,5.529761474609375,0.16981033980846405,-0.15358316898345947,0.3000570237636566
1772536718212810500,5.539810546875,0.17013019323349,-0.07736456394195557,0.2798316478729248
1772536718222859300,5.549859375,0.1886921525001526,0.02726118266582489,0.24935470521450043
1772536718232908500,5.559908447265625,0.21346648037433624,0.11236116290092468,0.19783905148506165
1772536718242956300,5.569956298828125,0.22641529142856598,0.09115547686815262,0.11920735239982605
1772536718253005600,5.580005615234375,0.21857628226280212,-0.02466673031449318,0.030309969559311867
1772536718263054300,5.590054443359375,0.18594670295715332,-0.15992522239685059,-0.0405743233859539
1772536718273103400,5.600103271484375,0.14118322730064392,-0.2600962817668915,-0.07911159843206406
1772536718283152400,5.61015234375,0.094957135617733,-0.3021097779273987,-0.06500616669654846
1772536718293201400,5.620201416015625,0.06543546169996262,-0.29363349080085754,-0.012643090449273586
1772536718303250400,5.63025048828125,0.04488944262266159,-0.25051185488700867,0.049799513071775436
1772536718313298400,5.64029833984375,0.06303542107343674,-0.14172357320785522,0.12238183617591858
1772536718323347500,5.650347412109375,0.11265198141336441,0.04007125273346901,0.18875792622566223
1772536718333396500,5.660396484375,0.1552199423313141,0.2201954871416092,0.22493138909339905
1772536718343445200,5.6704453125,0.1882372796535492,0.294867604970932,0.20156188309192657
1772536718353494500,5.68049462890625,0.21426355838775635,0.2684093415737152,0.13645318150520325
1772536718363543600,5.69054345703125,0.20320957899093628,0.17791487276554108,0.07271494716405869
1772536718373592300,5.70059228515625,0.17080077528953552,0.059606604278087616,0.030897995457053185
1772536718383640600,5.710640625,0.14300881326198578,-0.02593892253935337,0.027938423678278923
1772536718393689300,5.720689453125,0.1305265873670578,-0.05408880114555359,0.0679825097322464
1772536718403738600,5.730738525390625,0.1357775330543518,-0.05302220582962036,0.12817101180553436
1772536718413787400,5.740787353515625,0.16310715675354004,-0.03937723487615585,0.18875207006931305
1772536718423840000,5.750840087890625,0.19254522025585175,-0.02575835958123207,0.23237252235412598
1772536718433889000,5.760888916015625,0.20551267266273499,-0.015858592465519905,0.25059494376182556
1772536718443938000,5.77093798828125,0.20234458148479462,-0.004120975267142057,0.2349501997232437
1772536718453986000,5.780986083984375,0.18522684276103973,0.001603489276021719,0.19793517887592316
1772536718464035000,5.79103515625,0.15534831583499908,0.010626278817653656,0.1419115960597992
1772536718474084000,5.801083984375,0.1241198182106018,0.030161097645759583,0.06782112270593643
1772536718484133000,5.811133056640625,0.10472854226827621,0.06786719709634781,-0.00830613262951374
1772536718494182100,5.82118212890625,0.09717714786529541,0.118082694709301,-0.07187099754810333
1772536718504231000,5.83123095703125,0.10238362848758698,0.12764877080917358,-0.11891120672225952
1772536718514280200,5.8412802734375,0.11287275701761246,0.0745333582162857,-0.14495426416397095
1772536718524328000,5.851327880859375,0.12111763656139374,0.008711732923984528,-0.1393246054649353
1772536718534377200,5.861377197265625,0.13002297282218933,-0.04151202365756035,-0.11096406728029251
1772536718544426000,5.871426025390625,0.12966638803482056,-0.061472147703170776,-0.06955963373184204
1772536718554475000,5.88147509765625,0.12193256616592407,-0.06424876302480698,-0.03039492294192314
1772536718564524000,5.89152392578125,0.12250727415084839,-0.04464629665017128,0.0013363742036744952
1772536718574573000,5.901572998046875,0.12511025369167328,0.00014807176194153726,0.02514476701617241
1772536718584622000,5.9116220703125,0.1281883269548416,0.06598514318466187,0.018548917025327682
1772536718594670000,5.921670166015625,0.13378310203552246,0.12721067667007446,-0.016096411272883415
1772536718604718800,5.93171875,0.1394636183977127,0.18265344202518463,-0.06370653957128525
1772536718614768000,5.94176806640625,0.13766545057296753,0.22652262449264526,-0.11341018229722977
1772536718624817200,5.951817138671875,0.12803545594215393,0.24573200941085815,-0.1518782079219818
1772536718634866000,5.961865966796875,0.11361045390367508,0.22569358348846436,-0.17893193662166595
1772536718644915200,5.971915283203125,0.0930580347776413,0.18347901105880737,-0.1920836865901947
1772536718654964000,5.9819638671875,0.07568331062793732,0.14441630244255066,-0.18705298006534576
1772536718665013000,5.992012939453125,0.06024416536092758,0.11721503734588623,-0.17217496037483215
1772536718675062000,6.00206201171875,0.05170021206140518,0.07829107344150543,-0.1498563438653946
1772536718685110000,6.012110107421875,0.05264723300933838,0.04199405387043953,-0.12378532439470291
1772536718695159000,6.022158935546875,0.0630471408367157,0.01739576831459999,-0.0943073257803917
1772536718705208000,6.0322080078125,0.06863099336624146,0.004256263840943575,-0.07347368448972702
1772536718715256800,6.0422568359375,0.07361190021038055,0.011126686818897724,-0.058342933654785156
1772536718725306000,6.05230615234375,0.06521495431661606,0.01660507544875145,-0.04897606372833252
1772536718735355100,6.062355224609375,0.05489493906497955,0.02598845772445202,-0.040874727070331573
1772536718745404000,6.07240380859375,0.03996499255299568,0.03375237062573433,-0.02574903890490532
1772536718755452200,6.0824521484375,0.023923175409436226,0.03987604379653931,-0.010073939338326454
1772536718765501000,6.0925009765625,0.009522931650280952,0.02754933573305607,0.011872904375195503
1772536718775550200,6.10255029296875,0.0024567660875618458,0.00487198680639267,0.04200683906674385
1772536718785599000,6.112598876953125,-0.003992078360170126,-0.006809968966990709,0.07241135090589523
1772536718795648000,6.12264794921875,-0.012739497236907482,-0.008243548683822155,0.09730231761932373
1772536718805697000,6.132697021484375,-0.017110543325543404,0.010261159390211105,0.11087964475154877
1772536718815746000,6.14274609375,-0.02617940679192543,0.0492413155734539,0.10913234949111938
1772536718825794000,6.1527939453125,-0.043895021080970764,0.08563634008169174,0.0942617878317833
1772536718835843000,6.162843017578125,-0.06833751499652863,0.07901892066001892,0.07040252536535263
1772536718845891800,6.172891845703125,-0.0873735174536705,0.04680052772164345,0.06304607540369034
1772536718855941000,6.182941162109375,-0.10296792536973953,0.027783161029219627,0.07973477244377136
1772536718865990000,6.192989990234375,-0.11393429338932037,0.028491295874118805,0.10237883776426315
1772536718876039000,6.203038818359375,-0.13200171291828156,0.025840384885668755,0.104771688580513
1772536718886087000,6.2130869140625,-0.14097310602664948,0.021458953619003296,0.0916375070810318
1772536718896136000,6.223135986328125,-0.14521685242652893,0.03159334510564804,0.06755853444337845
1772536718906185200,6.233185302734375,-0.1410825550556183,0.04645085707306862,0.04854809492826462
1772536718916234000,6.24323388671875,-0.12181245535612106,0.04740479961037636,0.031990423798561096
1772536718926283000,6.253282958984375,-0.09515447914600372,0.02532213367521763,0.03211985155940056
1772536718936332000,6.26333203125,-0.06524664908647537,0.0004223773430567235,0.05213111266493797
1772536718946381000,6.273381103515625,-0.031247934326529503,-0.031144870445132256,0.08771360665559769
1772536718956429000,6.283428955078125,-0.0023459785152226686,-0.046665240079164505,0.1358017772436142
1772536718966478000,6.29347802734375,0.017436247318983078,-0.014363226480782032,0.18536800146102905
1772536718976526800,6.30352685546875,0.04927034303545952,0.009444368071854115,0.2390434741973877
1772536718986576100,6.313576171875,0.07175887376070023,0.021587317809462547,0.2804356515407562
1772536718996625000,6.323625,0.09195948392152786,0.013802630826830864,0.2975675165653229
1772536719006674200,6.333674072265625,0.10759543627500534,-0.01477468479424715,0.290459007024765
1772536719016723200,6.34372314453125,0.10726173967123032,-0.08739269524812698,0.24180783331394196
1772536719026771000,6.35377099609375,0.08090310543775558,-0.16478389501571655,0.1677147001028061
1772536719036820000,6.363820068359375,0.0340740792453289,-0.2044024020433426,0.07844474166631699
1772536719046869000,6.373868896484375,-0.026800455525517464,-0.21528860926628113,-0.00863476749509573
1772536719056918300,6.383918212890625,-0.08500251173973083,-0.1872100979089737,-0.07447290420532227
1772536719066967000,6.393967041015625,-0.12052295356988907,-0.11531540751457214,-0.11442644149065018
1772536719077016000,6.40401611328125,-0.12756621837615967,-0.010860370472073555,-0.12280581146478653
1772536719087065000,6.414065185546875,-0.11414627730846405,0.09215708822011948,-0.11164024472236633
1772536719097113000,6.424113037109375,-0.08956583589315414,0.15880349278450012,-0.09234457463026047
1772536719107162000,6.434162109375,-0.05955147743225098,0.1793212890625,-0.06329002231359482
1772536719117211100,6.444211181640625,-0.035767585039138794,0.17014802992343903,-0.020490894094109535
1772536719127260000,6.454260009765625,-0.025415610522031784,0.13698342442512512,0.0302047748118639
1772536719137309200,6.46430908203125,-0.03443334251642227,0.08068446069955826,0.07941599935293198
1772536719147358000,6.47435791015625,-0.05096278339624405,0.006965497974306345,0.1302056759595871
1772536719157407000,6.484406982421875,-0.07397489249706268,-0.05840978026390076,0.1662672758102417
1772536719167455000,6.494455078125,-0.097225621342659,-0.10410216450691223,0.18543671071529388
1772536719177504000,6.50450390625,-0.11268473416566849,-0.1375080645084381,0.17763923108577728
1772536719187553000,6.514552978515625,-0.13480228185653687,-0.1436503827571869,0.14784857630729675
1772536719197602000,6.52460205078125,-0.16020537912845612,-0.11110948026180267,0.09512332081794739
1772536719207651000,6.534651123046875,-0.18714885413646698,-0.05325043946504593,0.028508873656392097
1772536719217700000,6.5447001953125,-0.2232714295387268,0.005474393721669912,-0.050036534667015076
1772536719227749000,6.5547490234375,-0.26101961731910706,0.048888180404901505,-0.14159680902957916
1772536719237797000,6.564797119140625,-0.3008847236633301,0.07202599197626114,-0.23165853321552277
1772536719247846100,6.57484619140625,-0.331033319234848,0.07212559133768082,-0.2963906526565552
1772536719257895000,6.58489501953125,-0.34904614090919495,0.07593231648206711,-0.3249613046646118
1772536719267944200,6.594944091796875,-0.36013129353523254,0.07204329967498779,-0.3207170367240906
1772536719277993000,6.604992919921875,-0.3566734194755554,0.061471883207559586,-0.29410433769226074
1772536719288042000,6.6150419921875,-0.34002628922462463,0.05482569709420204,-0.24959012866020203
1772536719298091000,6.625091064453125,-0.3111962378025055,0.0555516742169857,-0.2128046751022339
1772536719308139000,6.635138916015625,-0.2791818380355835,0.054256048053503036,-0.1781521588563919
1772536719318188000,6.64518798828125,-0.25431564450263977,0.05062296241521835,-0.16148848831653595
1772536719328237000,6.655237060546875,-0.22947420179843903,0.02527180127799511,-0.15181855857372284
1772536719338285800,6.665285888671875,-0.2166699916124344,0.005554288625717163,-0.14328205585479736
1772536719348335000,6.675335205078125,-0.21188774704933167,-0.015122493728995323,-0.13234631717205048
1772536719358384000,6.685384033203125,-0.22221069037914276,-0.0546824187040329,-0.12132829427719116
1772536719368433000,6.695432861328125,-0.23601706326007843,-0.10432800650596619,-0.11323974281549454
1772536719378481200,6.705481201171875,-0.24843484163284302,-0.15831907093524933,-0.1057429388165474
1772536719388530000,6.715530029296875,-0.25359871983528137,-0.1850321739912033,-0.09083696454763412
1772536719398579200,6.7255791015625,-0.2468222975730896,-0.18510806560516357,-0.08030495792627335
1772536719408628000,6.7356279296875,-0.23219221830368042,-0.1634315401315689,-0.07398927211761475
1772536719418673200,6.745673095703125,-0.21556690335273743,-0.13379508256912231,-0.07086565345525742
1772536719428722200,6.75572216796875,-0.19766007363796234,-0.10545159131288528,-0.08513140678405762
1772536719438770200,6.765770263671875,-0.18161480128765106,-0.07132530957460403,-0.11053796112537384
1772536719448819200,6.775819091796875,-0.17150384187698364,-0.029348567128181458,-0.13389840722084045
1772536719458868200,6.7858681640625,-0.15149284899234772,0.023070964962244034,-0.152570903301239
1772536719468917200,6.795917236328125,-0.13398310542106628,0.07131146639585495,-0.15452991425991058
1772536719478966300,6.80596630859375,-0.11345864832401276,0.11688880622386932,-0.13695065677165985
1772536719489015300,6.816015380859375,-0.1031159982085228,0.14369964599609375,-0.1023937463760376
1772536719499064300,6.826064208984375,-0.08520571142435074,0.14604802429676056,-0.05049379914999008
1772536719509112300,6.8361123046875,-0.07040625810623169,0.17301252484321594,0.0007097324123606086
1772536719519161300,6.846161376953125,-0.03604135662317276,0.14784857630729675,0.052616339176893234
1772536719529210400,6.85621044921875,-0.0026431872975081205,0.09539815783500671,0.10052554309368134
1772536719539259100,6.866259033203125,0.026703782379627228,0.04988819733262062,0.15373070538043976
1772536719549308400,6.876308349609375,0.06015468388795853,0.007510380353778601,0.18892277777194977
1772536719559357200,6.886357177734375,0.08036407828330994,-0.048505749553442,0.20705358684062958
1772536719569406200,6.89640625,0.09258479624986649,-0.10470856726169586,0.21038919687271118
1772536719579454200,6.9064541015625,0.10256552696228027,-0.14353133738040924,0.2024175524711609
1772536719589503200,6.916503173828125,0.0997505635023117,-0.16967132687568665,0.18725590407848358
1772536719599552300,6.92655224609375,0.09660962969064713,-0.1762019246816635,0.1500273197889328
1772536719609601300,6.936601318359375,0.10310188680887222,-0.13904044032096863,0.12311900407075882
1772536719619650300,6.946650390625,0.10624228417873383,-0.0805310606956482,0.09956840425729752
1772536719629699300,6.95669921875,0.14492416381835938,0.03519314154982567,0.10506916046142578
1772536719639747000,6.9667470703125,0.218662828207016,0.1875097155570984,0.13848358392715454
1772536719649796400,6.97679638671875,0.2742304801940918,0.34409505128860474,0.19929073750972748
1772536719659845400,6.986845458984375,0.3355276584625244,0.4330182671546936,0.25457078218460083
1772536719669894100,6.99689404296875,0.39666053652763367,0.39135923981666565,0.2667515277862549
1772536719679943400,7.006943359375,0.4280458986759186,0.24549205601215363,0.24392318725585938
1772536719689992200,7.0169921875,0.422115296125412,0.08501315861940384,0.21360309422016144
1772536719700041200,7.027041259765625,0.39910903573036194,-0.0519779808819294,0.18678879737854004
1772536719710089200,7.037089111328125,0.36669304966926575,-0.14904621243476868,0.14558622241020203
1772536719720138200,7.04713818359375,0.33644911646842957,-0.18271441757678986,0.09258852154016495
1772536719730187300,7.057187255859375,0.30333831906318665,-0.17620858550071716,0.03069373033940792
1772536719740236300,7.067236328125,0.2651331424713135,-0.1377735733985901,-0.03464533016085625
1772536719750285000,7.07728515625,0.22949044406414032,-0.0784388855099678,-0.09892924129962921
1772536719760334300,7.087334228515625,0.20967227220535278,-0.01926344260573387,-0.13313168287277222
1772536719770383400,7.09738330078125,0.2106214165687561,0.026317624375224113,-0.13540229201316833
1772536719780431400,7.107431396484375,0.22909604012966156,0.0569426454603672,-0.100531667470932
1772536719790480100,7.117480224609375,0.26252323389053345,0.06240611895918846,-0.05512131005525589
1772536719800529200,7.127529052734375,0.29550114274024963,0.05602332204580307,0.010850250720977783
1772536719810578400,7.137578369140625,0.31759873032569885,0.060617007315158844,0.0702480673789978
1772536719820627200,7.147627197265625,0.3186118006706238,0.0775989219546318,0.11408369243144989
1772536719830676200,7.15767626953125,0.30919405817985535,0.10985726118087769,0.1344805806875229
1772536719840725200,7.167725341796875,0.28851833939552307,0.12829352915287018,0.12106357514858246
1772536719850773200,7.177773193359375,0.26596856117248535,0.11300750821828842,0.08185891062021255
1772536719860822300,7.187822265625,0.23962511122226715,0.08501635491847992,0.037287451326847076
1772536719870871300,7.197871337890625,0.22352071106433868,0.05911258980631828,-0.0006013417732901871
1772536719880920000,7.207920166015625,0.22144903242588043,0.05053800716996193,-0.023481091484427452
1772536719890969300,7.21796923828125,0.23275043070316315,0.05614689365029335,-0.026314960792660713
1772536719901018000,7.22801806640625,0.2577529847621918,0.04797338321805,-0.010361826978623867
1772536719911066400,7.23806640625,0.28106388449668884,0.019355854019522667,0.016697220504283905
1772536719921115100,7.248115234375,0.2980455458164215,-0.013073990121483803,0.060206882655620575
1772536719931164200,7.2581640625,0.30775701999664307,-0.0516434870660305,0.10412533581256866
1772536719941213200,7.268213134765625,0.3000170886516571,-0.08876875042915344,0.1452043354511261
1772536719951262200,7.27826220703125,0.27895867824554443,-0.10442014783620834,0.16613464057445526
1772536719961311200,7.288311279296875,0.2561577558517456,-0.1197008341550827,0.15322710573673248
1772536719971360300,7.2983603515625,0.2234349548816681,-0.13790807127952576,0.10492934286594391
1772536719981408300,7.308408203125,0.19229353964328766,-0.15903306007385254,0.03509353846311569
1772536719991457300,7.318457275390625,0.16659830510616302,-0.14783233404159546,-0.03435105085372925
1772536720001506300,7.32850634765625,0.1411464661359787,-0.10384251177310944,-0.08708749711513519
1772536720011555000,7.33855517578125,0.1291835457086563,-0.04235411435365677,-0.12253124266862869
1772536720021604400,7.348604248046875,0.11146500706672668,0.01794091798365116,-0.13873738050460815
1772536720031653000,7.358653076171875,0.09139595925807953,0.04283374920487404,-0.14861956238746643
1772536720041702100,7.3687021484375,0.08795542269945145,0.06415581703186035,-0.14750289916992188
1772536720051750100,7.378750244140625,0.09308360517024994,0.11032197624444962,-0.14955540001392365
1772536720061799200,7.388799072265625,0.10583189129829407,0.16987186670303345,-0.14896151423454285
1772536720071848200,7.39884814453125,0.11966700851917267,0.2091316431760788,-0.15995052456855774
1772536720081897200,7.408897216796875,0.1293412148952484,0.2121165245771408,-0.16842736303806305
1772536720091946200,7.4189462890625,0.13231995701789856,0.1963585913181305,-0.1723874807357788
1772536720101995300,7.428995361328125,0.12420877069234848,0.16804972290992737,-0.1792358011007309
1772536720112043300,7.439043212890625,0.11641875654459,0.1394532322883606,-0.18063023686408997
1772536720122092300,7.44909228515625,0.09645543247461319,0.11610370129346848,-0.17577768862247467
1772536720132141300,7.459141357421875,0.08230765908956528,0.09290224313735962,-0.17376327514648438
1772536720142190300,7.4691904296875,0.06830395758152008,0.0703122466802597,-0.17542853951454163
1772536720152239400,7.4792392578125,0.06211157515645027,0.04971003159880638,-0.17441654205322266
1772536720162288000,7.4892880859375,0.06327537447214127,0.04163958877325058,-0.15778324007987976
1772536720172337400,7.49933740234375,0.06810635328292847,0.037215277552604675,-0.1325969249010086
1772536720182385200,7.50938525390625,0.06958147138357162,0.03340616077184677,-0.10716347396373749
1772536720192434400,7.519434326171875,0.06505116820335388,0.02268427424132824,-0.08215958625078201
1772536720202483200,7.529483154296875,0.05878395587205887,0.020237626507878304,-0.05812908336520195
1772536720212532200,7.5395322265625,0.04439569264650345,0.021632058545947075,-0.04218740016222
1772536720222581200,7.549581298828125,0.025548502802848816,0.004933239426463842,-0.03425011411309242
1772536720232630300,7.55963037109375,-0.0006580671179108322,-0.02430613897740841,-0.02207787148654461
1772536720242679300,7.56967919921875,-0.020621655508875847,-0.0645371824502945,-0.004220045171678066
1772536720252727300,7.579727294921875,-0.0336194783449173,-0.08220432698726654,0.022787338122725487
1772536720262776000,7.589776123046875,-0.044988248497247696,-0.07877524197101593,0.05379505455493927
1772536720272825300,7.599825439453125,-0.060979731380939484,-0.06638354808092117,0.08570744842290878
1772536720282874400,7.609874267578125,-0.0720779225230217,-0.048276983201503754,0.12162204086780548
1772536720292923100,7.619923095703125,-0.0877719298005104,-0.01278530340641737,0.14258404076099396
1772536720302972400,7.629972412109375,-0.10542415827512741,-0.014662565663456917,0.13879889249801636
1772536720313020200,7.640020263671875,-0.12752707302570343,-0.017180318012833595,0.10937575995922089
1772536720323069400,7.6500693359375,-0.1560114324092865,-0.041135452687740326,0.0635715201497078
1772536720333118200,7.6601181640625,-0.18953850865364075,-0.056233976036310196,0.02027118392288685
1772536720343167200,7.670167236328125,-0.21937710046768188,-0.0768447145819664,-0.026621490716934204
1772536720353216300,7.68021630859375,-0.24570350348949432,-0.09067557752132416,-0.047025300562381744
1772536720363265300,7.690265380859375,-0.26140522956848145,-0.08550664782524109,-0.03569674491882324
1772536720373314000,7.70031396484375,-0.2665584683418274,-0.034563302993774414,-0.005061337724328041
1772536720383362300,7.7103623046875,-0.25148069858551025,0.013467605225741863,0.04089709743857384
1772536720393411000,7.7204111328125,-0.24285711348056793,0.005907690152525902,0.07789745926856995
1772536720403460400,7.73046044921875,-0.21474824845790863,-0.03346634656190872,0.10888653248548508
1772536720413509000,7.740509033203125,-0.20112618803977966,-0.11662834882736206,0.1092953309416771
1772536720423558400,7.750558349609375,-0.21547822654247284,-0.22896234691143036,0.0861082524061203
1772536720433607400,7.760607421875,-0.24101607501506805,-0.31083935499191284,0.0538397952914238
1772536720443656400,7.770656494140625,-0.2729327380657196,-0.32514721155166626,0.006910370197147131
1772536720453704400,7.780704345703125,-0.31080955266952515,-0.2922196090221405,-0.059065718203783035
1772536720463753500,7.79075341796875,-0.34627220034599304,-0.2478441596031189,-0.12210273742675781
1772536720473802200,7.80080224609375,-0.3523721694946289,-0.1472584307193756,-0.17745095491409302
1772536720483851500,7.8108515625,-0.31724318861961365,0.030049245804548264,-0.1971287876367569
1772536720493900300,7.820900390625,-0.27227041125297546,0.2526748776435852,-0.17925763130187988
1772536720503949300,7.83094921875,-0.23516884446144104,0.42023828625679016,-0.14791223406791687
1772536720513997300,7.840997314453125,-0.21258629858493805,0.4271034002304077,-0.11375878751277924
1772536720524046300,7.85104638671875,-0.19093453884124756,0.32015031576156616,-0.07912997156381607
1772536720534095400,7.861095458984375,-0.17728503048419952,0.18825459480285645,-0.01739683374762535
1772536720544144400,7.871144287109375,-0.17406047880649567,0.07864367961883545,0.07167737931013107
1772536720554193200,7.881193115234375,-0.18595574796199799,-0.020716464146971703,0.16467364132404327
1772536720564242400,7.891242431640625,-0.1861075609922409,-0.10126110911369324,0.22427783906459808
1772536720574291500,7.90129150390625,-0.17952954769134521,-0.16330450773239136,0.24601030349731445
1772536720584339500,7.91133935546875,-0.17100930213928223,-0.19607283174991608,0.23042148351669312
1772536720594388500,7.921388427734375,-0.16116757690906525,-0.17876149713993073,0.19258169829845428
1772536720604437200,7.931437255859375,-0.15307369828224182,-0.09828609228134155,0.13428616523742676
1772536720614486500,7.941486572265625,-0.15979285538196564,0.00561101408675313,0.06736093014478683
1772536720624535300,7.951535400390625,-0.1719837486743927,0.07694485038518906,-0.015564844943583012
1772536720634584300,7.961584228515625,-0.19415801763534546,0.1018344834446907,-0.08557402342557907
1772536720644633300,7.97163330078125,-0.21841782331466675,0.0910838395357132,-0.1363418698310852
1772536720654681300,7.981681396484375,-0.22104796767234802,0.0986701175570488,-0.15052372217178345
1772536720664730400,7.99173046875,-0.20610736310482025,0.13215617835521698,-0.12892283499240875
1772536720674779400,8.001779296875,-0.18487903475761414,0.1507604867219925,-0.08108898997306824
1772536720684828200,8.011828125,-0.152683287858963,0.1719784140586853,-0.03993703052401543
1772536720694877400,8.02187744140625,-0.11350419372320175,0.16555461287498474,-0.00929283443838358
1772536720704926500,8.031926513671875,-0.08884278684854507,0.14988350868225098,-0.000395745737478137
1772536720714974500,8.041974365234376,-0.06573427468538284,0.14258377254009247,-0.002237055217847228
1772536720725023200,8.052023193359375,-0.048160336911678314,0.15029709041118622,-0.013089437037706375
1772536720735072300,8.062072265625,-0.03379764407873154,0.1502145379781723,-0.022824356332421303
1772536720745121500,8.07212158203125,-0.021944712847471237,0.13259851932525635,-0.02683587558567524
1772536720755170300,8.08217041015625,-0.004920722916722298,0.13948945701122284,-0.014487596228718758
1772536720765219300,8.09221923828125,-0.009471531957387924,0.09842750430107117,-0.009096026420593262
1772536720775268400,8.102268310546876,-0.00881905760616064,-0.012431635521352291,-0.008731439709663391
1772536720785316400,8.11231640625,-0.009098157286643982,-0.12741228938102722,-0.005571332760155201
1772536720795365400,8.122365478515626,-0.01750628836452961,-0.21068799495697021,0.014986139722168446
1772536720805414400,8.132414306640625,-0.03205806761980057,-0.24324114620685577,0.03687386214733124
1772536720815463400,8.14246337890625,-0.043722979724407196,-0.23105745017528534,0.04188726097345352
1772536720825512400,8.152512451171875,-0.056241702288389206,-0.1879398077726364,0.030286533758044243
1772536720835561200,8.162561279296876,-0.06160717085003853,-0.10817653685808182,-0.007109308615326881
1772536720845609500,8.172609375,-0.058823902159929276,-0.029161613434553146,-0.05985614284873009
1772536720855658200,8.182658203125,-0.04824183136224747,0.041490983217954636,-0.113093800842762
1772536720865707500,8.19270751953125,-0.03791888803243637,0.11135262250900269,-0.16069459915161133
1772536720875756300,8.20275634765625,-0.011487012729048729,0.138393834233284,-0.19057181477546692
1772536720885805300,8.212805419921875,0.011681689880788326,0.14215047657489777,-0.20183564722537994
1772536720895854600,8.2228544921875,0.03692259639501572,0.13378602266311646,-0.18036365509033203
1772536720905903400,8.2329033203125,0.050034403800964355,0.15693235397338867,-0.14730316400527954
1772536720915951600,8.24295166015625,0.07158417254686356,0.1359940469264984,-0.10759437084197998
1772536720926000400,8.25300048828125,0.08535297960042953,0.12389824539422989,-0.05156625434756279
1772536720936049400,8.26304931640625,0.10319749265909195,0.12175253033638,0.009951966814696789
1772536720946098400,8.273098388671874,0.14237844944000244,0.1348789930343628,0.07110080868005753
1772536720956147500,8.2831474609375,0.1859850436449051,0.1338225156068802,0.12351368367671967
1772536720966196200,8.2931962890625,0.22697189450263977,0.09743361175060272,0.17070835828781128
1772536720976244500,8.303244384765625,0.2603945732116699,0.038123682141304016,0.2149975299835205
1772536720986293200,8.313293212890626,0.28638648986816406,-0.0011166634503751993,0.2601380944252014
1772536720996342500,8.323342529296875,0.29387956857681274,-0.0308159701526165,0.2909974753856659
1772536721006391300,8.333391357421876,0.28207510709762573,-0.05848781019449234,0.2947024703025818
1772536721016440300,8.3434404296875,0.2691534459590912,-0.043664123862981796,0.28199175000190735
1772536721026489300,8.3534892578125,0.2469128519296646,0.0213572196662426,0.25585946440696716
1772536721036538400,8.363538330078125,0.2290893793106079,0.10020569711923599,0.21821701526641846
1772536721046586400,8.37358642578125,0.22117100656032562,0.17646370828151703,0.18733073770999908
1772536721056635400,8.383635498046875,0.23269769549369812,0.26284360885620117,0.18263691663742065
1772536721066684400,8.393684326171876,0.27647048234939575,0.3360741436481476,0.17875829339027405
1772536721076733400,8.4037333984375,0.31962379813194275,0.3082957863807678,0.15930630266666412
1772536721086782500,8.413782470703126,0.3283810615539551,0.1728396862745285,0.12026515603065491
1772536721096831200,8.423831298828125,0.3025449514389038,0.004874383565038443,0.07340577244758606
1772536721106880500,8.433880615234376,0.25115394592285156,-0.12412247806787491,0.03883181884884834
1772536721116928300,8.44392822265625,0.18727268278598785,-0.2026045024394989,0.016291888430714607
1772536721126977500,8.4539775390625,0.12531770765781403,-0.23223723471164703,0.012085691094398499
1772536721137026300,8.4640263671875,0.06891781836748123,-0.24055375158786774,0.007682420779019594
1772536721147075300,8.474075439453125,0.07002435624599457,-0.19687338173389435,0.029036445543169975
1772536721157124400,8.484124267578125,0.07887856662273407,-0.07729292660951614,0.09009340405464172
1772536721167173400,8.49417333984375,0.1033405065536499,0.04218340665102005,0.15249820053577423
1772536721177221400,8.504221435546874,0.15411579608917236,0.16414259374141693,0.1847914159297943
1772536721187270400,8.5142705078125,0.22514604032039642,0.26473498344421387,0.17386579513549805
1772536721197319200,8.524319091796874,0.27741163969039917,0.32082197070121765,0.14411082863807678
1772536721207368400,8.534368408203125,0.30888301134109497,0.29599490761756897,0.10912755131721497
1772536721217417500,8.54441748046875,0.312953382730484,0.2037198394536972,0.09515474736690521
1772536721227466200,8.55446630859375,0.30407440662384033,0.11560249328613281,0.10701353847980499
1772536721237514200,8.56451416015625,0.2729255259037018,0.0630551353096962,0.14800091087818146
1772536721247563300,8.574563232421875,0.23229235410690308,0.036494094878435135,0.17783044278621674
1772536721257612500,8.584612548828124,0.1902698129415512,0.030706780031323433,0.17820942401885986
1772536721267661300,8.594661376953125,0.15025661885738373,0.07116259634494781,0.15642715990543365
1772536721277710300,8.60471044921875,0.1084178164601326,0.11884436011314392,0.12212484329938889
1772536721287759400,8.61475927734375,0.08381900191307068,0.12136877328157425,0.06211503595113754
1772536721297808400,8.624808349609374,0.09459761530160904,0.10478740185499191,-0.02472851611673832
1772536721307856400,8.6348564453125,0.1097312942147255,0.0960162803530693,-0.10686866194009781
1772536721317905400,8.644905517578126,0.12589241564273834,0.13183127343654633,-0.14873620867729187
1772536721327954200,8.6549541015625,0.13342410326004028,0.14243118464946747,-0.167310431599617
1772536721338003500,8.66500341796875,0.11269166320562363,0.09277068078517914,-0.15750546753406525
1772536721348052200,8.67505224609375,0.11202587187290192,0.0503007210791111,-0.10419750958681107
1772536721358101200,8.685101318359376,0.07178683578968048,-0.17893272638320923,-0.08882947266101837
1772536721368149200,8.695149169921875,0.048835981637239456,-0.41038432717323303,-0.10599008202552795
1772536721378198300,8.7051982421875,0.03927550092339516,-0.43395623564720154,-0.10652591288089752
1772536721388247600,8.71524755859375,0.023273097351193428,-0.3210078477859497,-0.1145193874835968
1772536721398296300,8.72529638671875,-0.0037348170299082994,-0.19431409239768982,-0.14652925729751587
1772536721408345300,8.735345458984375,-0.0294958408921957,-0.08711119741201401,-0.20460906624794006
1772536721418394000,8.74539404296875,-0.03791089728474617,-0.007220895029604435,-0.26263827085494995
1772536721428443000,8.75544287109375,-0.039257124066352844,0.07792036235332489,-0.3075106739997864
1772536721438491100,8.7654912109375,-0.02978719025850296,0.1507708728313446,-0.325323224067688
1772536721448540000,8.775539794921874,-0.018979016691446304,0.1958957314491272,-0.31405460834503174
