time,seconds_elapsed,z,y,x
1772571930538617000,0.1536171875,7.444071292877197,5.737390518188477,-0.2709871530532837
1772571930556458000,0.1714580078125,7.241877555847168,5.869594097137451,-0.30149564146995544
1772571930574294800,0.189294677734375,7.149754047393799,5.7511491775512695,-0.3409772217273712
1772571930592116200,0.2071162109375,6.742974281311035,5.836094379425049,-0.37148571014404297
1772571930609959000,0.224958984375,6.510870456695557,6.15254545211792,-0.3080759048461914
1772571930627793400,0.24279345703125,6.914061069488525,6.308078765869141,-0.18484555184841156
1772571930645628200,0.260628173828125,7.409973621368408,6.110072612762451,-0.11545369029045105
1772571930663463200,0.278463134765625,7.621140003204346,6.175875186920166,-0.05802594870328903
1772571930681297400,0.29629736328125,7.479365348815918,6.14835786819458,-0.2590230405330658
1772571930699131400,0.31413134765625,8.12662410736084,5.800201892852783,-0.4713860750198364
1772571930716967000,0.331966796875,8.495118141174316,5.484349727630615,-0.6711867451667786
1772571930734802000,0.349802001953125,9.301499366760254,5.348556995391846,-0.6993024349212646
1772571930752635100,0.36763525390625,9.620343208312988,5.12602424621582,-0.42711883783340454
1772571930770467000,0.385467041015625,11.23190975189209,5.424529075622559,-0.37028929591178894
1772571930788308000,0.403307861328125,12.335000991821289,5.61954402923584,-0.5437689423561096
1772571930806139600,0.4211396484375,11.391032218933105,5.788238048553467,-0.30149564146995544
1772571930823973600,0.4389736328125,9.963713645935059,5.9437713623046875,0.08853443711996078
1772571930841808600,0.45680859375,9.460023880004883,5.300102233886719,0.5880361795425415
1772571930859643000,0.474642822265625,10.50808048248291,3.603590965270996,0.7740781307220459
1772571930877473800,0.492473876953125,11.69432258605957,2.32761812210083,0.6269195079803467
1772571930895312000,0.510311767578125,11.879766464233398,1.9244276285171509,0.06520441919565201
1772571930913147000,0.52814697265625,9.859027862548828,2.423929452896118,-0.29730820655822754
1772571930930981600,0.545981689453125,8.291130065917969,3.3134610652923584,-0.3080759048461914
1772571930948816400,0.56381640625,7.423133850097656,3.81655216217041,-0.31824541091918945
1772571930966651000,0.58165087890625,7.28255558013916,4.012763500213623,-0.44745782017707825
1772571930984485400,0.5994853515625,7.587640762329102,3.8153557777404785,-0.6041877269744873
1772571931002320100,0.617320068359375,7.555337429046631,3.434896945953369,-0.5910272002220154
1772571931020135700,0.6351357421875,7.437490940093994,3.136990547180176,-0.4785645306110382
1772571931037988900,0.65298876953125,7.618149280548096,2.9904301166534424,-0.46002015471458435
1772571931055825400,0.670825439453125,7.625925540924072,3.1962127685546875,-0.3565305769443512
1772571931073658000,0.688658203125,7.57806921005249,3.5443685054779053,-0.28594231605529785
1772571931091485200,0.706485107421875,7.483552932739258,3.7399818897247314,-0.33080771565437317
1772571931109330000,0.724329833984375,7.350750923156738,3.7220356464385986,-0.4205385744571686
1772571931127162000,0.742162109375,7.380661487579346,3.59043025970459,-0.4737788736820221
1772571931144996900,0.759996826171875,7.628318786621094,3.6436707973480225,-0.2925225794315338
1772571931162831400,0.777831298828125,7.931010723114014,3.4947173595428467,-0.10887342691421509
1772571931180665600,0.79566552734375,8.134400367736816,3.3134610652923584,0.03888336941599846
1772571931198499600,0.81349951171875,8.431708335876465,3.2518460750579834,0.20039889216423035
1772571931216335600,0.831335693359375,8.410173416137695,3.3242287635803223,0.397208571434021
1772571931234171400,0.84917138671875,8.4502534866333,3.6329028606414795,0.6394818425178528
1772571931251998500,0.86699853515625,8.249256134033203,3.992424488067627,0.8344969153404236
1772571931269842700,0.8848427734375,7.867002487182617,4.374678134918213,0.9708877801895142
1772571931287670000,0.902669921875,7.63310432434082,4.4189453125,1.1012966632843018
1772571931305511000,0.920510986328125,7.981858253479004,4.539782524108887,1.2203395366668701
1772571931323341800,0.938341796875,9.113663673400879,4.397409915924072,1.532004714012146
1772571931341176800,0.9561767578125,9.673583984375,4.383052825927734,1.9357935190200806
1772571931359011300,0.97401123046875,9.919445991516113,4.441677093505859,2.035095691680908
1772571931376846300,0.991846435546875,10.262816429138184,4.978865623474121,1.2837493419647217
1772571931394680000,1.00968017578125,10.020543098449707,5.173880577087402,0.7363911867141724
1772571931412515300,1.027515380859375,9.735796928405762,4.95074987411499,1.0923235416412354
1772571931430349600,1.045349609375,9.80937671661377,4.637888431549072,1.1114661693572998
1772571931448184600,1.0631845703125,10.170692443847656,3.528217077255249,1.1066805124282837
1772571931466018800,1.081018798828125,10.587641716003418,2.4711875915527344,1.2077772617340088
1772571931483853800,1.098853759765625,11.297114372253418,1.6552350521087646,1.3537393808364868
1772571931501688300,1.116688232421875,12.421142578125,1.3878371715545654,1.4404792785644531
1772571931519522800,1.134522705078125,12.143574714660645,1.765903115272522,1.3232308626174927
1772571931537356800,1.152356689453125,10.53499984741211,2.224726915359497,0.9876375198364258
1772571931555192300,1.1701923828125,9.035298347473145,2.3808584213256836,0.9290133714675903
1772571931573025500,1.188025634765625,8.356932640075684,2.561516523361206,0.8333004713058472
1772571931590862600,1.205862548828125,8.066205024719238,2.7601208686828613,0.9672985672950745
1772571931608695300,1.2236953125,8.178069114685059,2.740978240966797,1.0683952569961548
1772571931626530600,1.241530517578125,8.060222625732422,2.9042885303497314,0.9302098155021667
1772571931644364800,1.25936474609375,7.588238716125488,3.170490026473999,0.9583254456520081
1772571931662199600,1.277199462890625,7.609176158905029,3.104687452316284,0.9038887619972229
1772571931680033800,1.29503369140625,8.23430061340332,2.575873613357544,0.28175488114356995
1772571931697868300,1.312868408203125,9.104690551757812,3.0963125228881836,0.25064817070961
1772571931715700500,1.330700439453125,8.904889106750488,3.3816566467285156,0.5198407173156738
1772571931733540400,1.348540283203125,7.7461652755737305,3.689134359359741,0.3320041298866272
1772571931751367700,1.36636767578125,6.893123626708984,3.8805601596832275,-0.022133609279990196
1772571931769211000,1.3842109375,6.8967132568359375,4.139583110809326,-0.2153540402650833
1772571931787041500,1.40204150390625,7.299305438995361,4.1383867263793945,-0.5132604837417603
1772571931804875800,1.419875732421875,7.941778182983398,3.9672999382019043,-0.8237292170524597
1772571931822710300,1.437710205078125,7.6977105140686035,3.82373046875,-1.00259268283844
1772571931840545000,1.455544921875,7.4877400398254395,4.113262176513672,-1.0235298871994019
1772571931858379500,1.473379638671875,7.761718273162842,4.284348964691162,-0.9044869542121887
1772571931876214300,1.49121435546875,8.178668022155762,4.003790378570557,-1.113858938217163
1772571931894048500,1.509048583984375,8.554939270019531,3.926621913909912,-1.4225330352783203
1772571931911883500,1.526883544921875,8.806185722351074,4.036093711853027,-1.5655041933059692
1772571931929718000,1.544718017578125,9.002995491027832,4.156930923461914,-1.5152549743652344
1772571931947540200,1.562540283203125,9.370293617248535,4.067200183868408,-1.215553879737854
1772571931965387300,1.58038720703125,9.946365356445312,3.7022948265075684,-1.0618150234222412
1772571931983222300,1.59822216796875,11.1978120803833,3.4953157901763916,-1.472184181213379
1772571932001056300,1.61605615234375,12.284751892089844,3.566502094268799,-1.8598214387893677
1772571932018891000,1.63389111328125,11.963515281677246,3.7806596755981445,-1.7270197868347168
1772571932036725200,1.651725341796875,11.074581146240234,4.268197536468506,-1.5272190570831299
1772571932054560500,1.669560546875,10.2418794631958,4.508078098297119,-1.179661512374878
1772571932072394500,1.68739453125,10.738987922668457,3.9571304321289062,-0.8422735929489136
1772571932090229500,1.7052294921875,11.161321640014648,2.954537868499756,-0.9002995491027832
1772571932108063500,1.7230634765625,10.990234375,2.087737798690796,-1.1288141012191772
1772571932125898200,1.740898193359375,10.280762672424316,1.7204394340515137,-1.3549357652664185
1772571932143733000,1.75873291015625,9.180662155151367,2.145763635635376,-1.5308083295822144
1772571932161567700,1.776567626953125,7.848458290100098,2.9862427711486816,-1.5990036725997925
1772571932179401700,1.794401611328125,6.6215386390686035,3.8632121086120605,-1.4249259233474731
1772571932197236500,1.812236572265625,6.246463298797607,4.3788652420043945,-1.2975081205368042
1772571932215071500,1.830071533203125,6.759125709533691,4.380660057067871,-1.3399807214736938
1772571932232906800,1.84790673828125,6.988836765289307,3.802793502807617,-1.4350954294204712
1772571932250740500,1.865740478515625,7.026523590087891,3.091526746749878,-1.5128620862960815
1772571932268575000,1.883574951171875,7.1856465339660645,2.569293260574341,-1.5439687967300415
1772571932286409700,1.90140966796875,7.375277519226074,2.630908489227295,-1.350150227546692
1772571932304244500,1.919244384765625,7.53559684753418,2.978466033935547,-0.8991031050682068
1772571932322076400,1.937076416015625,7.809575080871582,3.187838077545166,-0.6993024349212646
1772571932339913500,1.95491357421875,7.8819580078125,3.1034910678863525,-0.6442674994468689
1772571932357735200,1.972735107421875,8.525627136230469,3.095116138458252,-0.4462614357471466
1772571932375586800,1.9905869140625,8.654839515686035,3.092125177383423,-0.24406790733337402
1772571932393409300,2.0084091796875,8.134998321533203,3.257229804992676,-0.486939400434494
1772571932411252200,2.026252197265625,7.820342540740967,3.284747362136841,-0.5150550603866577
1772571932429086200,2.044086181640625,8.036294937133789,3.5228331089019775,-0.3242274820804596
1772571932446921500,2.06192138671875,8.076972961425781,3.716651678085327,-0.2267199456691742
1772571932464742000,2.079741943359375,7.880163192749023,3.9690945148468018,-0.26201409101486206
1772571932482579000,2.097578857421875,7.804789066314697,4.159922122955322,-0.31046873331069946
1772571932500412700,2.11541259765625,8.74636459350586,4.264608383178711,-0.1094716340303421
1772571932518262300,2.13326220703125,9.19561767578125,4.454239368438721,-0.03409772366285324
1772571932536093700,2.15109375,9.256035804748535,4.561916351318359,-0.005982056725770235
1772571932553926000,2.16892578125,9.670592308044434,4.587040901184082,0.048454657196998596
1772571932571765200,2.18676513671875,11.402398109436035,4.205984115600586,0.09511470049619675
1772571932589600300,2.204600341796875,11.767303466796875,3.625126361846924,-0.09092725813388824
1772571932607426800,2.2224267578125,11.647662162780762,3.390031576156616,-0.3840480446815491
1772571932625266700,2.2402666015625,11.781062126159668,3.9278182983398438,-0.8213363885879517
1772571932643098400,2.258098388671875,11.063814163208008,4.457230567932129,-0.7920243144035339
1772571932660939500,2.275939453125,10.36929702758789,4.680361270904541,-0.6406782865524292
1772571932678770200,2.293770263671875,9.55753231048584,4.654638290405273,-0.6137589812278748
1772571932696605000,2.31160498046875,9.45045280456543,3.751945972442627,-0.39960137009620667
1772571932714440200,2.329440185546875,10.022337913513184,2.5603201389312744,-0.22432711720466614
1772571932732275200,2.347275146484375,11.063814163208008,1.6995022296905518,-0.0729810893535614
1772571932750108700,2.365108642578125,11.661420822143555,1.1718848943710327,-0.1908276081085205
1772571932767943700,2.382943603515625,10.548758506774902,1.2496516704559326,-0.486939400434494
1772571932785778200,2.400778076171875,9.037691116333008,1.76051926612854,-0.5988038778305054
1772571932803615200,2.418615234375,8.324031829833984,2.2163519859313965,-0.4486542344093323
1772571932821440800,2.436440673828125,8.24566650390625,2.493321180343628,-0.2590230405330658
1772571932839282000,2.454281982421875,8.088338851928711,2.692523717880249,-0.07178468257188797
1772571932857104000,2.472103759765625,7.915457248687744,2.901895761489868,0.06340979784727097
1772571932874951400,2.489951416015625,7.932805061340332,2.991626501083374,0.1788634955883026
1772571932892773000,2.507773193359375,7.734200954437256,3.2650065422058105,0.18065811693668365
1772571932910611700,2.52561181640625,7.549953460693359,3.5234313011169434,0.10289137065410614
1772571932928455000,2.543454833984375,7.362715244293213,3.5228331089019775,-0.1782652884721756
1772571932946289700,2.56128955078125,7.272984504699707,3.6526436805725098,-0.44446679949760437
1772571932964124000,2.5791240234375,7.261618614196777,3.7848472595214844,-0.5479564070701599
1772571932981959000,2.596958984375,7.526025295257568,3.652045488357544,-0.6496513485908508
1772571932999790000,2.6147900390625,7.907082557678223,3.55214524269104,-0.7214360237121582
1772571933017628200,2.632628173828125,8.166105270385742,3.482753276824951,-0.9182456731796265
1772571933035464200,2.650464111328125,8.291728973388672,3.3619158267974854,-1.0534402132034302
1772571933053296400,2.66829638671875,8.500502586364746,3.559323787689209,-0.9308080077171326
1772571933071134000,2.686134033203125,8.502297401428223,3.9667017459869385,-0.7537391185760498
1772571933088967000,2.703966796875,8.197810173034668,3.9326040744781494,-1.0354939699172974
1772571933106800000,2.721800048828125,8.09850788116455,3.9044883251190186,-1.5122638940811157
1772571933124635400,2.739635498046875,8.129016876220703,4.235894203186035,-1.571486234664917
1772571933142470000,2.757469970703125,8.154739379882812,4.622933387756348,-1.3645070791244507
1772571933160305200,2.77530517578125,8.695517539978027,4.907081127166748,-0.9116654396057129
1772571933178139000,2.793138916015625,9.305088996887207,4.8436713218688965,-0.7920243144035339
1772571933195974000,2.810973876953125,9.732806205749512,4.390231132507324,-1.3094722032546997
1772571933213808600,2.82880859375,10.855039596557617,3.2859437465667725,-1.8867406845092773
1772571933231633000,2.8466328125,12.28834056854248,2.586641311645508,-2.3706889152526855
1772571933249477600,2.8644775390625,12.178869247436523,2.819343328475952,-2.428116798400879
1772571933267312400,2.8823125,11.169097900390625,3.273979663848877,-1.8221344947814941
1772571933285147100,2.900147216796875,10.695319175720215,3.76570463180542,-1.581655740737915
1772571933338649600,2.953649658203125,10.204790115356445,2.3401806354522705,-1.6504493951797485
1772571933356484000,2.971484130859375,9.881759643554688,1.7647067308425903,-1.5930216312408447
1772571933374319400,2.9893193359375,9.400203704833984,1.475175142288208,-1.674975872039795
1772571933392153300,3.0071533203125,8.669196128845215,1.6618152856826782,-1.848455548286438
1772571933409988000,3.024988037109375,7.766504287719727,2.063809633255005,-1.7413766384124756
1772571933427822600,3.042822509765625,7.244868755340576,2.630310297012329,-1.5326029062271118
1772571933445657900,3.060657958984375,6.986443996429443,2.916252613067627,-1.319043517112732
1772571933463491600,3.07849169921875,7.878966808319092,2.9694929122924805,-1.0019944906234741
1772571933481326600,3.09632666015625,8.5764741897583,2.9455647468566895,-0.646660327911377
1772571933499161000,3.1141611328125,8.86780071258545,2.8660032749176025,-0.49351966381073
1772571933516993300,3.1319931640625,8.959325790405273,2.6177480220794678,-0.45942193269729614
1772571933534834000,3.149833984375,8.954540252685547,2.579462766647339,-0.45942193269729614
1772571933552664000,3.1676640625,9.011369705200195,2.7044878005981445,-0.4498506486415863
1772571933570500400,3.185500244140625,8.901300430297852,2.9186453819274902,-0.5222335457801819
1772571933588334600,3.20333447265625,8.418548583984375,3.0544381141662598,-0.6664010882377625
1772571933606164200,3.221164306640625,8.346763610839844,3.1543383598327637,-0.7190431952476501
1772571933624007700,3.239007568359375,8.184051513671875,3.2925238609313965,-0.7435696125030518
1772571933641838300,3.25683837890625,8.14098072052002,3.3445677757263184,-0.6867401003837585
1772571933659672800,3.2746728515625,8.360522270202637,3.3511481285095215,-0.5904290080070496
1772571933677502000,3.292501953125,8.823533058166504,3.3583266735076904,-0.4462614357471466
1772571933695338000,3.310337890625,9.510871887207031,3.4677982330322266,-0.20159530639648438
1772571933713176600,3.328176513671875,9.887741088867188,3.5850465297698975,-0.02871387079358101
1772571933730998800,3.345998779296875,9.577272415161133,3.741178274154663,-0.04426721855998039
1772571933748831500,3.36383154296875,9.305088996887207,3.7058839797973633,-0.2069791555404663
1772571933766684000,3.381683837890625,9.31466007232666,3.638885021209717,-0.373878538608551
1772571933784515000,3.39951513671875,9.839286804199219,3.6849467754364014,-0.3439682424068451
1772571933802350300,3.417350341796875,9.734601020812988,3.6364922523498535,-0.3158525824546814
1772571933820184000,3.43518408203125,9.672985076904297,3.4683964252471924,-0.44446679949760437
1772571933838018800,3.453018798828125,9.68794059753418,3.1579277515411377,-0.35832518339157104
1772571933855841500,3.470841552734375,9.817750930786133,2.967100143432617,-0.31465616822242737
1772571933873688600,3.4886884765625,9.936196327209473,3.239881753921509,-0.6442674994468689
1772571933891521500,3.506521484375,9.457033157348633,3.8775691986083984,-0.875174880027771
1772571933909358600,3.524358642578125,9.57607650756836,4.022335052490234,-0.5647061467170715
1772571933927192000,3.542192138671875,9.327820777893066,4.231706619262695,-0.4127618968486786
1772571933945026800,3.56002685546875,8.86062240600586,4.043272018432617,-0.10767702013254166
1772571933962861000,3.577861083984375,9.167501449584961,3.3571300506591797,0.28534409403800964
1772571933980695800,3.59569580078125,9.77527904510498,2.720041036605835,0.5641079545021057
1772571933998530300,3.6135302734375,10.64507007598877,2.414358139038086,0.6759724020957947
1772571934016365600,3.631365478515625,10.917253494262695,2.2677977085113525,0.6526423692703247
1772571934034199800,3.64919970703125,10.191629409790039,2.3682961463928223,0.46002015471458435
1772571934052034800,3.667034912109375,9.011968612670898,2.59621262550354,0.2805584669113159
1772571934069868800,3.684868896484375,8.161917686462402,2.806182861328125,0.2069791555404663
1772571934087704000,3.7027041015625,7.712665557861328,3.08135724067688,0.19621145725250244
1772571934105537800,3.720537841796875,7.621738433837891,3.1094729900360107,0.267397940158844
1772571934123372800,3.738372802734375,7.612765312194824,3.0424740314483643,0.2913261651992798
1772571934141207300,3.756207275390625,7.76052188873291,3.0478577613830566,0.2584248483181
1772571934159029800,3.77402978515625,7.999206066131592,3.0969107151031494,0.22073788940906525
1772571934176876500,3.79187646484375,7.759923934936523,3.3062827587127686,0.15314064919948578
1772571934194712300,3.80971240234375,7.64028263092041,3.477369546890259,0.07597211748361588
1772571934212546300,3.82754638671875,7.768298625946045,3.6741790771484375,-0.02392822690308094
1772571934230380500,3.845380615234375,7.944769382476807,3.7130625247955322,-0.23389841616153717
1772571934248214800,3.86321484375,7.968697547912598,3.6263227462768555,-0.49172505736351013
1772571934266050000,3.881050048828125,8.102097511291504,3.6125640869140625,-0.5198407173156738
1772571934283884500,3.898884521484375,7.963912010192871,3.765106439590454,-0.30568310618400574
1772571934301719600,3.916719482421875,8.073383331298828,3.9290146827697754,-0.04247260093688965
1772571934319553500,3.934553466796875,8.473583221435547,4.214358806610107,0.31106695532798767
1772571934337391900,3.952391845703125,8.845666885375977,4.340580463409424,0.4504488706588745
1772571934355223000,3.97022314453125,8.831908226013184,4.1868414878845215,0.1543370634317398
1772571934373057000,3.98805712890625,8.502297401428223,4.036093711853027,-0.4097708761692047
1772571934390890000,4.005889892578125,8.545368194580078,3.9732820987701416,-0.7052844762802124
1772571934408729900,4.023729736328125,8.59322452545166,3.954139471054077,-0.7483552694320679
1772571934426561300,4.041561279296875,8.726624488830566,4.083950042724609,-0.786640465259552
1772571934444396300,4.059396240234375,8.970093727111816,4.061816215515137,-0.6855437159538269
1772571934462223600,4.0772236328125,9.767501831054688,3.865604877471924,-0.5066801905632019
1772571934480055000,4.095054931640625,10.41775131225586,3.43908429145813,-0.357128769159317
1772571934497890300,4.112890380859375,10.900503158569336,3.0975089073181152,-0.364905446767807
1772571934515734500,4.130734619140625,10.894521713256836,3.5222349166870117,-0.8099704384803772
1772571934533568800,4.14856884765625,10.03011417388916,3.8566319942474365,-0.9026923179626465
1772571934551404000,4.166404052734375,9.45164966583252,4.058825492858887,-0.9427721500396729
1772571934569238300,4.18423828125,9.260822296142578,4.22512674331665,-0.9002995491027832
1772571934587073300,4.2020732421875,9.8871431350708,3.775275945663452,-0.4875376224517822
1772571934604903200,4.219903076171875,11.029715538024902,2.964707374572754,-0.24047867953777313
1772571934622728400,4.237728515625,11.881561279296875,1.9980069398880005,-0.30927231907844543
1772571934640576800,4.25557666015625,11.587244033813477,1.3411771059036255,-0.5814558863639832
1772571934658412500,4.27341259765625,10.412965774536133,1.2430713176727295,-0.9176474809646606
1772571934676245800,4.291245849609375,9.251849174499512,1.6713865995407104,-1.083350419998169
1772571934694080500,4.30908056640625,8.391629219055176,2.1828525066375732,-1.2717852592468262
1772571934711915300,4.326915283203125,7.970492362976074,2.562713146209717,-1.4877375364303589
1772571934729750000,4.34475,7.9657063484191895,2.595614433288574,-1.6552350521087646
1772571934747584300,4.362584228515625,8.13798999786377,2.290529489517212,-1.6929219961166382
1772571934765419500,4.38041943359375,8.325227737426758,1.9573289155960083,-1.5583257675170898
1772571934783254000,4.39825390625,8.397610664367676,1.7330018281936646,-1.347757339477539
1772571934801088800,4.4160888671875,8.574081420898438,1.6534404754638672,-1.0654042959213257
1772571934818922500,4.433922607421875,8.879764556884766,1.6606189012527466,-0.7310073375701904
1772571934836755500,4.45175537109375,9.266205787658691,1.8783657550811768,-0.6011967062950134
1772571934854593800,4.46959375,9.041878700256348,1.8765711784362793,-0.7070791125297546
1772571934872428300,4.48742822265625,8.912666320800781,1.8179470300674438,-0.9314061999320984
1772571934890261200,4.50526123046875,8.888737678527832,1.812563180923462,-1.160519003868103
1772571934908096000,4.523095947265625,8.697312355041504,1.9166508913040161,-1.423729419708252
1772571934925930500,4.540930419921875,8.61595630645752,1.9824535846710205,-1.576870083808899
1772571934943765500,4.558765625,8.625527381896973,2.0207388401031494,-1.5672988891601562
1772571934961599700,4.576599853515625,8.983254432678223,2.17627215385437,-1.5236297845840454
1772571934979434200,4.594434326171875,9.159725189208984,2.321038007736206,-1.2083754539489746
1772571934997269000,4.61226904296875,9.77527904510498,2.3635106086730957,-0.8201399445533752
1772571935015104300,4.630104248046875,10.171889305114746,2.3228325843811035,-0.6574280261993408
1772571935032938000,4.64793798828125,10.091131210327148,2.3030917644500732,-0.7627122402191162
1772571935050773000,4.66577294921875,9.900303840637207,2.234896421432495,-0.844068169593811
1772571935068607700,4.683607666015625,10.009775161743164,2.163709878921509,-0.8009973764419556
1772571935086442800,4.70144287109375,10.386645317077637,2.2241287231445312,-0.5802595019340515
1772571935104276500,4.7192763671875,11.041081428527832,2.190030813217163,-0.2727817893028259
1772571935122099000,4.737098876953125,11.729018211364746,2.007578134536743,-0.03290131315588951
1772571935139946000,4.754946044921875,12.049057960510254,1.789831280708313,0.14476576447486877
1772571935157780700,4.77278076171875,11.939586639404297,1.8556339740753174,-0.02751746028661728
1772571935175615200,4.790615234375,11.312666893005371,2.3539392948150635,-0.3684946894645691
1772571935193450000,4.808449951171875,10.6295166015625,2.7900311946868896,-0.3320041298866272
1772571935211282700,4.82628271484375,10.117452621459961,3.256033420562744,-0.1333998590707779
1772571935229121500,4.84412158203125,9.783653259277344,3.2787652015686035,0.12382857501506805
1772571935246954000,4.8619541015625,9.818349838256836,2.748156785964966,0.2392822653055191
1772571935264788500,4.87978857421875,9.944570541381836,1.911865234375,0.1495514214038849
1772571935282623500,4.89762353515625,10.600204467773438,1.1072787046432495,-0.08195417374372482
1772571935300457700,4.915457763671875,10.968100547790527,0.7166503667831421,-0.3290131092071533
1772571935318289000,4.933288818359375,10.128219604492188,0.7740781307220459,-0.4169493317604065
1772571935336130000,4.951130126953125,8.9910306930542,1.184447169303894,-0.12861421704292297
1772571935353958100,4.968958251953125,8.307880401611328,1.6929219961166382,0.1178465187549591
1772571935371799600,4.986799560546875,8.106285095214844,2.002194404602051,0.08374879509210587
1772571935389630500,5.00463037109375,7.83410120010376,2.0865414142608643,-0.11306086927652359
1772571935407461600,5.022461669921875,7.600203037261963,2.1236300468444824,-0.13220344483852386
1772571935425299700,5.0402998046875,7.719245910644531,2.2821545600891113,0.07776673883199692
1772571935443134500,5.058134521484375,8.057829856872559,2.537588357925415,0.13998012244701385
1772571935460968700,5.07596875,8.243273735046387,2.7349963188171387,0.16390834748744965
1772571935478803700,5.0938037109375,8.458029747009277,2.9659037590026855,0.3074777126312256
1772571935496638200,5.11163818359375,8.767900466918945,3.1208388805389404,0.34636107087135315
1772571935514473200,5.12947314453125,8.720044136047363,2.991028308868408,0.11246266216039658
1772571935532307500,5.147307373046875,8.429315567016602,2.8594231605529785,-0.10767702013254166
1772571935550142500,5.165142578125,8.38684368133545,2.63449764251709,-0.21296121180057526
1772571935567977000,5.18297705078125,8.186444282531738,2.504088878631592,-0.3367897868156433
1772571935585812000,5.20081201171875,7.919046401977539,2.5980072021484375,-0.36191442608833313
1772571935603645700,5.218645751953125,7.9758758544921875,2.857030153274536,-0.09451649338006973
1772571935621481000,5.23648095703125,8.356932640075684,3.084946632385254,0.22612173855304718
1772571935639315200,5.254315185546875,8.523832321166992,3.2141590118408203,0.0687936544418335
1772571935657150500,5.272150390625,8.342576026916504,3.160320520401001,-0.28953152894973755
1772571935674984200,5.289984130859375,8.323433876037598,3.0927233695983887,-0.3086741268634796
1772571935692819200,5.307819091796875,8.251648902893066,3.2267212867736816,-0.29012975096702576
1772571935710641200,5.32564111328125,8.360522270202637,3.67657208442688,-0.2709871530532837
1772571935728488400,5.343488525390625,8.469395637512207,3.955335855484009,0.03888336941599846
1772571935746322400,5.361322509765625,8.96650505065918,3.882354736328125,0.32183465361595154
1772571935764157200,5.3791572265625,9.639486312866211,3.651447296142578,0.36191442608833313
1772571935781992000,5.396991943359375,10.318449020385742,3.315255880355835,0.21595224738121033
1772571935799826700,5.41482666015625,11.286944389343262,3.2715866565704346,-0.46480581164360046
1772571935817661000,5.432660888671875,10.871191024780273,3.4408788681030273,-0.6574280261993408
1772571935835496000,5.450495849609375,10.37348461151123,3.9116668701171875,-0.5204389095306396
1772571935853330700,5.46833056640625,9.748359680175781,4.148556232452393,-0.010767702013254166
1772571935871165400,5.48616552734375,10.222138404846191,3.678964853286743,0.4588237404823303
1772571935888999200,5.503999267578125,11.025528907775879,2.8893332481384277,0.3846462368965149
1772571935906834200,5.521834228515625,11.758928298950195,1.6061822175979614,0.06340979784727097
1772571935924660200,5.53966015625,12.041879653930664,0.6167500615119934,-0.5509474277496338
1772571935942503700,5.557503662109375,11.307283401489258,0.381655216217041,-1.1635099649429321
1772571935960325400,5.575325439453125,9.640084266662598,1.046859860420227,-1.334596872329712
1772571935978161400,5.593161376953125,8.26839828491211,1.9334007501602173,-1.2005987167358398
1772571935996002600,5.61100244140625,7.694719314575195,2.4526431560516357,-0.8679963946342468
1772571936013842400,5.628842529296875,7.775477409362793,2.620140790939331,-0.8105686902999878
1772571936031663900,5.646663818359375,8.320442199707031,2.1924238204956055,-0.9571290612220764
1772571936049511000,5.664510986328125,8.602795600891113,1.7736797332763672,-0.898504912853241
1772571936067343000,5.682343017578125,8.913862228393555,1.4219348430633545,-0.6777670383453369
1772571936085183700,5.700183837890625,9.167501449584961,1.404586911201477,-0.49591249227523804
1772571936103014000,5.718013916015625,9.043074607849121,1.5140584707260132,-0.4486542344093323
1772571936120850400,5.735850341796875,8.837292671203613,1.6271194219589233,-0.4875376224517822
1772571936138684200,5.75368408203125,8.80798053741455,1.8951154947280884,-0.4498506486415863
1772571936156516000,5.77151611328125,8.769695281982422,2.0572292804718018,-0.44027936458587646
1772571936174356500,5.7893564453125,8.817551612854004,2.053041934967041,-0.4737788736820221
1772571936192184800,5.807184814453125,8.960522651672363,2.0679969787597656,-0.43489551544189453
1772571936210025200,5.825025146484375,9.117850303649902,2.121835470199585,-0.32961133122444153
1772571936227857200,5.842857177734375,9.06999397277832,2.293520450592041,-0.2632105052471161
1772571936245691100,5.860691162109375,8.797810554504395,2.469393014907837,-0.09690931439399719
1772571936263526100,5.878526123046875,8.673383712768555,2.5986053943634033,0.15074782073497772
1772571936281360600,5.896360595703125,8.787641525268555,2.80977201461792,0.389431893825531
1772571936299195600,5.914195556640625,9.044869422912598,3.022135019302368,0.37088751792907715
1772571936317030100,5.932030029296875,9.068199157714844,3.0215368270874023,0.1657029688358307
1772571936334852900,5.949852783203125,9.173483848571777,3.0029923915863037,0.1178465187549591
1772571936352699100,5.96769921875,9.617352485656738,3.1345977783203125,0.30987054109573364
1772571936370534000,5.985533935546875,9.583852767944336,3.22552490234375,0.3523431420326233
1772571936388368000,6.003367919921875,9.583852767944336,3.2303106784820557,0.30508488416671753
1772571936406187500,6.0211875,10.175477981567383,3.205185890197754,0.5497509837150574
1772571936424026000,6.039026123046875,10.342975616455078,3.1148569583892822,0.4450650215148926
1772571936441872600,6.05687255859375,10.447063446044922,3.3445677757263184,-0.02751746028661728
1772571936459692500,6.074692626953125,9.89850902557373,3.284149169921875,0.14775680005550385
1772571936477528600,6.092528564453125,9.5264253616333,3.1345977783203125,0.3194418251514435
1772571936495378400,6.11037841796875,9.713065147399902,2.833700180053711,0.25304099917411804
1772571936513210600,6.128210693359375,10.077372550964355,2.347957134246826,0.2356930375099182
1772571936531045000,6.146045166015625,10.335797309875488,2.0099709033966064,0.24107688665390015
1772571936548879600,6.163879638671875,10.884950637817383,1.9369899034500122,0.37148571014404297
1772571936566714600,6.181714599609375,10.985448837280273,1.6462619304656982,0.5102694034576416
1772571936584549400,6.19954931640625,10.65224838256836,1.4434702396392822,0.6675975322723389
1772571936602383000,6.217383056640625,10.48534870147705,1.4578272104263306,0.9296116232872009
1772571936620215000,6.235215087890625,9.773484230041504,1.7024933099746704,1.0660024881362915
1772571936638055700,6.2530556640625,9.071788787841797,1.7563318014144897,1.1270195245742798
1772571936655878100,6.270878173828125,8.723034858703613,1.9938194751739502,1.1976077556610107
1772571936673724400,6.288724365234375,8.58903694152832,2.193620204925537,1.2448660135269165
1772571936691553800,6.3065537109375,8.197810173034668,2.1960129737854004,1.0719845294952393
1772571936709394000,6.324393798828125,7.839485168457031,2.131406784057617,0.8183453679084778
1772571936727226000,6.34222607421875,7.906484127044678,2.1122641563415527,0.584446907043457
1772571936745059600,6.3600595703125,7.910671710968018,2.1170499324798584,0.4408775866031647
1772571936762898000,6.37789794921875,7.877171993255615,2.197807550430298,0.40737804770469666
1772571936780729300,6.395729248046875,7.9244303703308105,2.3700907230377197,0.4408775866031647
1772571936798564400,6.413564453125,8.043473243713379,2.648256540298462,0.43130627274513245
1772571936816398300,6.4313984375,8.228917121887207,2.9174489974975586,0.550349235534668
1772571936834233000,6.449233154296875,8.214560508728027,3.0562326908111572,0.6125625967979431
1772571936852067800,6.46706787109375,8.557929992675781,3.081955671310425,0.6705885529518127
1772571936869902600,6.484902587890625,8.82951545715332,3.2129626274108887,0.7615157961845398
1772571936887736600,6.502736572265625,8.944969177246094,3.0269205570220947,0.7190431952476501
1772571936905571800,6.52057177734375,8.830113410949707,2.925823926925659,0.6472585201263428
1772571936923392800,6.538392822265625,8.663214683532715,2.9012975692749023,0.7758727669715881
1772571936941244200,6.556244140625,8.611170768737793,2.9006991386413574,0.8141579031944275
1772571936959078400,6.574078369140625,8.787641525268555,2.977867841720581,0.7429714202880859
1772571936976909800,6.591909912109375,8.854042053222656,2.9976086616516113,0.7668996453285217
1772571936994744300,6.609744384765625,8.921041488647461,2.9306094646453857,0.656829833984375
1772571937012579300,6.627579345703125,8.882756233215332,2.953939437866211,0.4707878530025482
1772571937030413300,6.645413330078125,9.001798629760742,2.954537868499756,0.33738797903060913
1772571937048248000,6.663248046875,9.240483283996582,2.974876642227173,0.3523431420326233
1772571937066083000,6.6810830078125,9.616754531860352,3.226123094558716,0.4001995921134949
1772571937083918000,6.69891796875,9.736394882202148,3.298506021499634,0.6442674994468689
1772571937101751800,6.716751708984375,9.855438232421875,3.352344512939453,0.7543373107910156
1772571937119583700,6.734583740234375,10.185050010681152,3.315854072570801,0.8787640929222107
1772571937137419800,6.752419677734375,10.49073314666748,3.2554352283477783,0.8368897438049316
1772571937155256600,6.770256591796875,10.962119102478027,3.538984775543213,0.24047867953777313
1772571937173087000,6.7880869140625,9.720842361450195,3.7088751792907715,0.08015955984592438
1772571937190928400,6.805928466796875,9.238688468933105,3.5910286903381348,-0.10229317098855972
1772571937208759300,6.82375927734375,8.947959899902344,3.507878065109253,-0.28893333673477173
1772571937226594300,6.84159423828125,9.264410972595215,2.7493531703948975,-0.08673982322216034
1772571937244428300,6.85942822265625,9.839286804199219,2.002194404602051,-0.0323031060397625
1772571937262263300,6.87726318359375,10.523036003112793,1.225723385810852,-0.3068794906139374
1772571937280097500,6.89509765625,10.839486122131348,0.6915257573127747,-0.5443671345710754
1772571937297920300,6.912920166015625,10.615159034729004,0.6759724020957947,-0.4588237404823303
1772571937315766500,6.9307666015625,9.893125534057617,1.179661512374878,-0.18843477964401245
1772571937333601800,6.948601806640625,9.17707347869873,1.5493526458740234,0.2105683982372284
1772571937351436300,6.966436279296875,9.09990406036377,1.92741858959198,0.6299105882644653
1772571937369271000,6.98427099609375,9.176474571228027,1.9046868085861206,0.9074779748916626
1772571937387105500,7.00210546875,9.392427444458008,1.4039887189865112,0.9942178130149841
1772571937404940000,7.01993994140625,9.765707015991211,1.0474581718444824,0.9954141974449158
1772571937422774800,7.03777490234375,10.052248001098633,0.9002995491027832,0.9535398483276367
1772571937440609300,7.055609375,9.937392234802246,1.0528420209884644,0.8715856671333313
1772571937458443300,7.073443359375,9.08255672454834,1.3160524368286133,0.8309076428413391
1772571937476278300,7.0912783203125,8.298907279968262,1.545763373374939,0.7148557901382446
1772571937494112800,7.10911279296875,7.6636128425598145,1.8239290714263916,0.5742774605751038
1772571937511947500,7.126947509765625,7.252645492553711,2.017747640609741,0.4731806814670563
1772571937529781500,7.144781494140625,7.171289443969727,2.0027925968170166,0.3487538993358612
1772571937547616300,7.1626162109375,7.2089762687683105,2.122433662414551,0.32961133122444153
1772571937565451000,7.180450927734375,7.637889862060547,2.4502503871917725,0.4737788736820221
1772571937583285500,7.198285400390625,8.129016876220703,2.840280532836914,0.6317051649093628
1772571937601120000,7.2161201171875,8.739784240722656,3.0065815448760986,0.6801598072052002
1772571937618954800,7.233954833984375,8.687142372131348,2.8863422870635986,0.6137589812278748
1772571937636789500,7.25178955078125,8.992825508117676,2.720639228820801,0.48095735907554626
1772571937654624500,7.26962451171875,9.751948356628418,2.6572296619415283,0.3487538993358612
1772571937672458200,7.287458251953125,10.124032974243164,2.6638097763061523,0.27816563844680786
1772571937690293200,7.305293212890625,10.596614837646484,2.6668007373809814,0.2835494875907898
1772571937708127700,7.323127685546875,10.721041679382324,2.51425838470459,0.31764721870422363
1772571937725966800,7.340966796875,10.448858261108398,2.5220351219177246,0.24047867953777313
1772571937743796500,7.35879638671875,10.721041679382324,2.5286152362823486,0.1740778535604477
1772571937761619000,7.376618896484375,10.37767219543457,2.3922245502471924,0.08793623000383377
1772571937779466000,7.394466064453125,10.39202880859375,2.349153518676758,0.001794616924598813
1772571937797288200,7.4122880859375,10.74437141418457,2.7768707275390625,-0.05503492057323456
1772571937815135200,7.43013525390625,10.4823579788208,2.5226333141326904,0.42711883783340454
1772571937832969000,7.447968994140625,10.841280937194824,2.204986095428467,0.6951149702072144
1772571937850805200,7.46580517578125,11.056634902954102,1.9914265871047974,0.7818548083305359
1772571937868639000,7.483638916015625,10.9573335647583,1.6414763927459717,0.7680960893630981
1772571937886473700,7.5014736328125,11.068000793457031,1.1928220987319946,0.8644071817398071
1772571937904308500,7.51930859375,11.10748291015625,0.763310432434082,1.1419745683670044
1772571937922142700,7.537142822265625,11.184053421020508,0.6251249313354492,1.2281162738800049
1772571937939977200,7.554977294921875,11.016555786132812,0.7292127013206482,1.017547845840454
1772571937957811700,7.572811767578125,10.329216957092285,0.9260223507881165,0.9822536706924438
1772571937975652000,7.590652099609375,9.708877563476562,0.9565308690071106,1.2149556875228882
1772571937993480700,7.608480712890625,9.078369140625,1.1635099649429321,1.2418749332427979
1772571938011314200,7.626314208984375,8.5100736618042,1.3423734903335571,1.3268201351165771
1772571938029151500,7.6441513671875,8.380861282348633,1.576271891593933,1.373480200767517
1772571938046984700,7.661984619140625,8.46580696105957,1.8305093050003052,1.5409778356552124
1772571938064819000,7.67981884765625,8.408378601074219,1.9878374338150024,1.6313068866729736
1772571938082654200,7.697654296875,8.469993591308594,2.193620204925537,1.3824533224105835
1772571938100488000,7.715488037109375,8.045268058776855,2.0757737159729004,1.0666006803512573
1772571938118323000,7.733322998046875,7.715656757354736,2.059023857116699,0.7130611538887024
1772571938136157700,7.75115771484375,7.758727550506592,2.0297117233276367,0.40737804770469666
1772571938153992200,7.7689921875,7.982456207275391,2.1403799057006836,0.21655045449733734
1772571938171826700,7.78682666015625,7.910671710968018,2.1397817134857178,0.1256231814622879
1772571938189661200,7.8046611328125,8.058428764343262,2.2031915187835693,0.12622138857841492
1772571938207490600,7.822490478515625,8.592626571655273,2.306680917739868,0.18903298676013947
1772571938225318400,7.840318359375,8.82652473449707,2.3461625576019287,0.17527425289154053
1772571938243164700,7.85816455078125,8.668598175048828,2.4502503871917725,0.07956135272979736
1772571938260986600,7.875986572265625,8.425128936767578,2.630310297012329,0.059820566326379776
1772571938278834000,7.893833984375,8.510671615600586,2.8319056034088135,0.1501496136188507
1772571938296674000,7.911674072265625,8.8109712600708,2.9964120388031006,0.25064817070961
1772571938314503000,7.9295029296875,8.696115493774414,3.029313564300537,0.20757736265659332
1772571938332338200,7.947338134765625,8.676973342895508,3.0861430168151855,0.10707881301641464
1772571938350172200,7.965172119140625,9.049057006835938,3.0448668003082275,-0.01136590726673603
1772571938368007200,7.983007080078125,9.43609619140625,2.9276185035705566,0.023330021649599075
1772571938385841400,8.00084130859375,9.3457670211792,2.8414769172668457,0.3762713670730591
1772571938403676200,8.01867626953125,9.208179473876953,2.8905298709869385,1.2400803565979004
1772571938421511000,8.036510986328125,9.618548393249512,3.119044303894043,1.8855443000793457
1772571938439345700,8.054345703125,10.515857696533203,3.0137600898742676,1.8729819059371948
1772571938457176800,8.0721767578125,11.274381637573242,3.016152858734131,1.0103694200515747
1772571938475006700,8.0900068359375,10.186245918273926,2.7559335231781006,0.5593222975730896
1772571938492837400,8.10783740234375,9.674779891967773,3.0975089073181152,0.5629115104675293
1772571938510679800,8.1256796875,9.631111145019531,3.4277184009552,0.8871390223503113
1772571938528518000,8.143517822265625,10.076175689697266,3.273979663848877,1.5756736993789673
1772571938546352400,8.161352294921874,10.687541961669922,2.9766714572906494,1.8735800981521606
1772571938564187000,8.179186767578125,11.404790878295898,2.454437732696533,1.852044701576233
1772571938582022100,8.197022216796874,11.645269393920898,1.5798611640930176,1.4620146751403809
1772571938599855900,8.21485595703125,11.383255958557129,1.0839486122131348,0.6933203339576721
1772571938617691000,8.23269091796875,10.49970531463623,1.241276741027832,0.39960137009620667
1772571938635525400,8.250525390625,9.606584548950195,1.657029628753662,0.43549370765686035
1772571938653360600,8.268360595703125,8.923434257507324,1.9932212829589844,0.47676992416381836
1772571938671194600,8.286194580078124,8.569893836975098,2.015354871749878,0.5144568681716919
1772571938689029000,8.304029052734375,8.800203323364258,1.6199408769607544,0.6059823632240295
1772571938706863900,8.32186376953125,7.372286796569824,1.812563180923462,0.5880361795425415
1772571938724698600,8.33969873046875,7.578667640686035,1.4315061569213867,0.5796613097190857
1772571938742533000,8.357533203125,8.313861846923828,1.5798611640930176,1.0821540355682373
1772571938760367600,8.37536767578125,9.038887977600098,1.6660027503967285,1.4991034269332886
1772571938778201900,8.393201904296875,9.545567512512207,1.5780665874481201,1.5960127115249634
1772571938796036900,8.411036865234376,9.125627517700195,1.5032907724380493,1.332203984260559
1772571938813871000,8.42887109375,9.078369140625,1.2346965074539185,1.1030912399291992
