time,seconds_elapsed,z,y,x
1772571930529699800,0.144699951171875,0.294437050819397,0.060475658625364304,-0.14966198801994324
1772571930547528200,0.162528076171875,0.28069257736206055,0.0630718395113945,-0.040622539818286896
1772571930565375700,0.180375732421875,0.2519819140434265,0.032528575509786606,0.02367102913558483
1772571930583207400,0.19820751953125,0.2594650089740753,0.06215553730726242,0.046273041516542435
1772571930601042000,0.2160419921875,0.28466320037841797,0.03833179548382759,0.023365596309304237
1772571930618876200,0.233876220703125,0.24923302233219147,-0.040164388716220856,-0.033597588539123535
1772571930636711200,0.251711181640625,0.18325957655906677,-0.07376197725534439,-0.08338310569524765
1772571930654545700,0.269545654296875,0.14508049190044403,0.052381694316864014,-0.12110403180122375
1772571930672380000,0.2873798828125,0.11545353382825851,0.19654589891433716,-0.20372356474399567
1772571930690214400,0.30521435546875,0.11255192011594772,0.22021691501140594,-0.32788193225860596
1772571930708049200,0.323049072265625,0.22342395782470703,0.29397889971733093,-0.43905940651893616
1772571930725884000,0.3408837890625,0.3643811047077179,0.2926044464111328,-0.5792529582977295
1772571930743718700,0.35871875,0.4726569950580597,0.2681698501110077,-0.6534730792045593
1772571930761553000,0.376552978515625,0.5522221922874451,0.1771509200334549,-0.6989825367927551
1772571930779387400,0.394387451171875,0.5884159207344055,0.2996293902397156,-0.6142250299453735
1772571930797222000,0.412221923828125,0.612850546836853,0.5499314665794373,-0.33139440417289734
1772571930815057200,0.43005712890625,0.5427537560462952,0.4040873646736145,-0.055283304303884506
1772571930832891400,0.447891357421875,0.3397938013076782,-0.16340644657611847,0.003817907767370343
1772571930850726000,0.465725830078125,0.0757472887635231,-0.7808384895324707,-0.10980302840471268
1772571930868560400,0.483560302734375,-0.019394971430301666,-0.9101892113685608,-0.16065755486488342
1772571930886395400,0.5013955078125,0.07498370856046677,-0.41828998923301697,-0.04444044828414917
1772571930904229400,0.5192294921875,0.3260493278503418,0.40194934606552124,0.16783522069454193
1772571930922064100,0.537064208984375,0.5426010489463806,0.7357872128486633,0.2900082767009735
1772571930939898600,0.554898681640625,0.5789475440979004,0.6918048858642578,0.29504790902137756
1772571930957733400,0.5727333984375,0.5108360648155212,0.45463645458221436,0.23900102078914642
1772571930975568000,0.59056787109375,0.41263946890830994,0.20891591906547546,0.19104810059070587
1772571930993386500,0.608386474609375,0.3666718602180481,0.12858712673187256,0.154396191239357
1772571931011233500,0.626233642578125,0.38011088967323303,0.1189660057425499,0.08949175477027893
1772571931029075500,0.644075439453125,0.42470407485961914,0.10048733651638031,-0.005955935921519995
1772571931046906600,0.66190673828125,0.5105306506156921,0.13072516024112701,-0.0685696229338646
1772571931064741000,0.6797412109375,0.5653557777404785,0.17104226350784302,-0.10965031385421753
1772571931082575600,0.69757568359375,0.55069500207901,0.2272418737411499,-0.15393804013729095
1772571931100409900,0.715409912109375,0.5167919993400574,0.26450464129447937,-0.20570887625217438
1772571931118244600,0.73324462890625,0.5035057067871094,0.23365595936775208,-0.26832255721092224
1772571931136079400,0.751079345703125,0.5268712639808655,0.12996158003807068,-0.28909197449684143
1772571931153913600,0.76891357421875,0.5201517343521118,0.03680463135242462,-0.2811507284641266
1772571931171748600,0.78674853515625,0.5094616413116455,0.045204028487205505,-0.2695443034172058
1772571931189582600,0.80458251953125,0.527634859085083,0.10567969083786011,-0.2721404731273651
1772571931207413800,0.822413818359375,0.555429220199585,0.16600263118743896,-0.22189679741859436
1772571931225251800,0.840251953125,0.5493205785751343,0.13057245314121246,-0.10461067408323288
1772571931243084500,0.85808447265625,0.4787656366825104,0.07681630551815033,0.046731192618608475
1772571931260923400,0.87592333984375,0.35552358627319336,-0.02168571576476097,0.17302757501602173
1772571931278755600,0.893755615234375,0.21609358489513397,-0.20815233886241913,0.21395555138587952
1772571931296590600,0.911590576171875,0.11453723162412643,-0.4259257912635803,0.16294831037521362
1772571931314425000,0.929425048828125,0.05100724846124649,-0.5490151643753052,0.04352414980530739
1772571931332260000,0.947260009765625,0.003512475173920393,-0.37491855025291443,-0.06459899991750717
1772571931350094000,0.965093994140625,-0.10751228034496307,-0.12950342893600464,-0.1866193264722824
1772571931367928800,0.9829287109375,-0.29077184200286865,0.07223481684923172,-0.28069257736206055
1772571931385763600,1.000763671875,-0.42241331934928894,0.23197607696056366,-0.33246341347694397
1772571931403597600,1.01859765625,-0.43539419770240784,0.12232576310634613,-0.3911064863204956
1772571931421432600,1.0364326171875,-0.5476406812667847,-0.12629638612270355,-0.489608496427536
1772571931439249700,1.054249755859375,-0.6795876026153564,-0.3246748745441437,-0.6798930168151855
1772571931457089500,1.072089599609375,-0.665232241153717,-0.41890084743499756,-0.9098837971687317
1772571931474941400,1.08994140625,-0.560468852519989,-0.44806966185569763,-1.0419833660125732
1772571931492771600,1.107771484375,-0.38576140999794006,-0.39477166533470154,-0.9590584635734558
1772571931510605600,1.12560546875,-0.20265454053878784,-0.01542434748262167,-0.6088799238204956
1772571931528440000,1.143440185546875,-0.10430523753166199,0.34147366881370544,-0.1293507218360901
1772571931546274800,1.16127490234375,-0.05650503560900688,0.3439171314239502,0.2629774808883667
1772571931564109600,1.179109619140625,-0.020463986322283745,0.1771509200334549,0.42042800784111023
1772571931581944000,1.196944091796875,0.02626720629632473,0.07009678333997726,0.394618958234787
1772571931599778000,1.214778076171875,0.02932153269648552,0.03130684420466423,0.2793181240558624
1772571931617612500,1.232612548828125,0.005650503560900688,0.08918632566928864,0.2028072625398636
1772571931635447800,1.25044775390625,-0.01542434748262167,0.1736384481191635,0.15241087973117828
1772571931653281800,1.26828173828125,-0.0835358202457428,0.1408044397830963,0.10399980843067169
1772571931671117800,1.286117919921875,-0.1267545372247696,0.10949759185314178,0.09957103431224823
1772571931688950800,1.30395068359375,0.04566217586398125,0.3666718602180481,0.12308934330940247
1772571931706785800,1.321785888671875,0.10064005106687546,0.9491318464279175,0.14095716178417206
1772571931724620000,1.3396201171875,0.11010845750570297,1.4262176752090454,0.2154827117919922
1772571931742454800,1.357454833984375,0.019394971430301666,1.397354245185852,0.22449298202991486
1772571931760289300,1.375289306640625,-0.10506882518529892,1.018923282623291,0.20372356474399567
1772571931778124000,1.3931240234375,-0.21074850857257843,0.6259841322898865,0.18127426505088806
1772571931795958500,1.41095849609375,-0.27351492643356323,0.370947927236557,0.14385876059532166
1772571931813793800,1.428793701171875,-0.2600758671760559,0.3150537610054016,0.1488984078168869
1772571931831628300,1.446628173828125,-0.1892155110836029,0.2249511331319809,0.17592918872833252
1772571931849462300,1.464462158203125,-0.13927727937698364,0.08628471940755844,0.15577064454555511
1772571931867297000,1.482297119140625,-0.14019356667995453,0.01114829070866108,0.11560624837875366
1772571931885131800,1.5001318359375,-0.09758572280406952,0.011301007121801376,0.08659014850854874
1772571931902970400,1.517970458984375,-0.012217304669320583,0.03573561832308769,0.07742717117071152
1772571931920806100,1.53580615234375,0.0555887371301651,0.027947084978222847,0.06918048858642578
1772571931938635300,1.55363525390625,0.09743300825357437,-0.036651913076639175,-0.01572977937757969
1772571931956457200,1.571457275390625,0.0887281745672226,-0.11209376901388168,-0.1647808998823166
1772571931974304800,1.5893046875,0.09575312584638596,-0.16584990918636322,-0.26771169900894165
1772571931992126500,1.60712646484375,0.21807889640331268,0.039706241339445114,-0.20143280923366547
1772571932009973500,1.624973388671875,0.43447789549827576,0.4259257912635803,0.027947084978222847
1772571932027808000,1.64280810546875,0.5723807215690613,0.6432411074638367,0.19318613409996033
1772571932045643000,1.66064306640625,0.585667073726654,0.5462662577629089,0.18814650177955627
1772571932063477800,1.678477783203125,0.4392121136188507,0.1569923609495163,0.05711590126156807
1772571932081312000,1.69631201171875,0.2539672255516052,-0.050243668258190155,-0.002138028386980295
1772571932099144000,1.71414404296875,0.20570887625217438,0.011301007121801376,0.044287730008363724
1772571932116981000,1.73198095703125,0.327271044254303,0.2200642079114914,0.19226983189582825
1772571932134816800,1.749816650390625,0.5551238059997559,0.4668537676334381,0.3877467215061188
1772571932152648400,1.7676484375,0.7761042714118958,0.6285803318023682,0.5668829679489136
1772571932170488800,1.78548876953125,0.8959866166114807,0.5748242139816284,0.6513350605964661
1772571932188319200,1.8033193359375,0.8223773241043091,0.28267788887023926,0.5910121202468872
1772571932206153500,1.821153564453125,0.6122397184371948,-0.03298672288656235,0.4398229718208313
1772571932223988700,1.83898876953125,0.41752639412879944,-0.1713477075099945,0.2906191349029541
1772571932241823000,1.856822998046875,0.33337971568107605,-0.20051652193069458,0.13011430203914642
1772571932259657700,1.87465771484375,0.37110063433647156,-0.17318029701709747,-0.06261368840932846
1772571932277487400,1.8924873046875,0.5180137157440186,-0.12629638612270355,-0.24892759323120117
1772571932295326700,1.91032666015625,0.6418666839599609,-0.10903944820165634,-0.39706242084503174
1772571932313161700,1.92816162109375,0.6354525685310364,-0.11575896292924881,-0.48915034532546997
1772571932330996500,1.94599658203125,0.574976921081543,-0.08994990587234497,-0.5351179838180542
1772571932348830500,1.96383056640625,0.5529857873916626,-0.027641652151942253,-0.5623014569282532
1772571932366665700,1.981665771484375,0.5387831330299377,0.1443169116973877,-0.5019785165786743
1772571932384500000,1.9995,0.47571131587028503,0.26633724570274353,-0.347276896238327
1772571932402335000,2.0173349609375,0.4384485185146332,0.1794416606426239,-0.21349740028381348
1772571932420168700,2.035168701171875,0.43768495321273804,0.057879481464624405,-0.14355333149433136
1772571932438003700,2.053003662109375,0.40072759985923767,0.03145955875515938,-0.11010845750570297
1772571932455822800,2.07082275390625,0.33857205510139465,0.07208210229873657,-0.09728029370307922
1772571932473661200,2.0886611328125,0.2678644061088562,0.07116580009460449,-0.14553864300251007
1772571932491497200,2.106497314453125,0.20005837082862854,0.013591751456260681,-0.22617286443710327
1772571932509345300,2.12434521484375,0.09773843735456467,0.019547687843441963,-0.2021963894367218
1772571932527177000,2.142177001953125,-0.04703662544488907,-0.029626963660120964,-0.1241583600640297
1772571932545011500,2.160011474609375,-0.19333885610103607,-0.15531249344348907,-0.0933096632361412
1772571932562845700,2.177845703125,-0.32818734645843506,-0.21563543379306793,-0.15134187042713165
1772571932580680700,2.1956806640625,-0.40133845806121826,0.04734205827116966,-0.13209961354732513
1772571932598514700,2.2135146484375,-0.394008070230484,0.275958389043808,-0.0858265683054924
1772571932616346600,2.2313466796875,-0.3280346393585205,0.385303258895874,-0.024129176512360573
1772571932634187000,2.24918701171875,-0.25366178154945374,0.517861008644104,0.04398229718208313
1772571932652015900,2.267015869140625,-0.2695443034172058,0.4712825417518616,0.015882495790719986
1772571932669856000,2.28485595703125,-0.37430769205093384,0.2837468981742859,-0.10293079167604446
1772571932687688000,2.30268798828125,-0.5103778839111328,-0.1186605766415596,-0.30222558975219727
1772571932705522400,2.3205224609375,-0.6055201888084412,-0.5195409059524536,-0.508698046207428
1772571932723357000,2.33835693359375,-0.5855143666267395,-0.7255551815032959,-0.598953366279602
1772571932741191700,2.356191650390625,-0.4917465150356293,-0.508087158203125,-0.49785518646240234
1772571932759026200,2.374026123046875,-0.30482175946235657,0.05375614017248154,-0.235030397772789
1772571932776860700,2.391860595703125,-0.08720101416110992,0.3927863538265228,-0.0029016099870204926
1772571932794683400,2.409683349609375,0.04596760869026184,0.31352660059928894,0.15683965384960175
1772571932812530400,2.427530517578125,0.08475755155086517,0.06765332818031311,0.28848111629486084
1772571932830365200,2.445365234375,0.0682641938328743,-0.13607023656368256,0.42271876335144043
1772571932848199400,2.463199462890625,0.01160643994808197,-0.28557950258255005,0.521984338760376
1772571932866034000,2.481033935546875,-0.07040221989154816,-0.3309362530708313,0.5232060551643372
1772571932883868700,2.49886865234375,-0.14492778480052948,-0.24236078560352325,0.44196099042892456
1772571932901703400,2.516703369140625,-0.24098633229732513,-0.12064588814973831,0.3019201457500458
1772571932919537700,2.53453759765625,-0.35216382145881653,0.014508049935102463,0.13271047174930573
1772571932937372700,2.55237255859375,-0.4050036668777466,0.11499538272619247,-0.03298672288656235
1772571932955207200,2.570207275390625,-0.42500948905944824,0.16814066469669342,-0.17837265133857727
1772571932973040400,2.588040283203125,-0.44684791564941406,0.1365283876657486,-0.2919935882091522
1772571932990877400,2.60587744140625,-0.43050727248191833,0.0887281745672226,-0.34116822481155396
1772571933008710700,2.623710693359375,-0.4066835343837738,0.07162395119667053,-0.32330042123794556
1772571933026545400,2.64154541015625,-0.3423899710178375,0.08017606288194656,-0.2541199326515198
1772571933044379600,2.659379638671875,-0.20051652193069458,0.07223481684923172,-0.16600263118743896
1772571933062214400,2.67721435546875,-0.1014036312699318,0.10216721147298813,-0.05345070734620094
1772571933080049200,2.695049072265625,-0.12034045159816742,0.14996741712093353,0.04596760869026184
1772571933097883600,2.712883544921875,-0.09682214260101318,0.13179416954517365,0.11026117950677872
1772571933115718100,2.73071826171875,0.05497787147760391,0.06612616032361984,0.1569923609495163
1772571933133553200,2.74855322265625,0.19456058740615845,0.01160643994808197,0.1742493063211441
1772571933151387600,2.7663876953125,0.2347249686717987,-0.03848451003432274,0.1310305893421173
1772571933169222000,2.784221923828125,0.16951510310173035,-0.03787364438176155,0.038026362657547
1772571933187057200,2.80205712890625,0.033597588539123535,-0.03878994286060333,-0.07635815441608429
1772571933204891000,2.819890869140625,-0.045204028487205505,-0.19868391752243042,-0.19074267148971558
1772571933222719000,2.837718994140625,0.07742717117071152,-0.21960605680942535,-0.20586158335208893
1772571933240560400,2.855560302734375,0.3761402666568756,0.08216137439012527,-0.08124507963657379
1772571933258382800,2.8733828125,0.6433938145637512,0.2817615866661072,0.07956519722938538
1772571933276219100,2.89121923828125,0.6953173875808716,0.15347988903522491,0.17592918872833252
1772571933294050000,2.909050048828125,0.5983424782752991,-0.0455094613134861,0.20906862616539001
1772571933316358100,2.931358154296875,0.485027015209198,-0.2301434874534607,0.20143280923366547
1772571933334191900,2.94919189453125,0.48808133602142334,-0.28237244486808777,0.22403483092784882
1772571933352028000,2.96702783203125,0.532369077205658,-0.29474249482154846,0.3061962127685547
1772571933369861400,2.984861328125,0.6133087277412415,-0.22082778811454773,0.40362921357154846
1772571933387697000,3.00269677734375,0.7367035150527954,-0.05650503560900688,0.4622722864151001
1772571933405530600,3.020530517578125,0.8668177723884583,0.10399980843067169,0.40362921357154846
1772571933423366100,3.0383662109375,0.9301950335502625,0.16752979159355164,0.18814650177955627
1772571933441199900,3.056199951171875,0.9166033267974854,0.14324790239334106,-0.10720685124397278
1772571933459035400,3.074035400390625,0.8910996913909912,0.01771509274840355,-0.3927863538265228
1772571933476868900,3.091868896484375,0.8422304391860962,0.008246680721640587,-0.5111414790153503
1772571933494704400,3.109704345703125,0.7467827796936035,0.02122756652534008,-0.5091561675071716
1772571933512538400,3.127538330078125,0.66584312915802,0.05619960278272629,-0.4694499373435974
1772571933530374000,3.145373779296875,0.6397286057472229,0.09666942805051804,-0.432034432888031
1772571933548207000,3.16320703125,0.6342308521270752,0.17348572611808777,-0.3929390609264374
1772571933566043400,3.18104345703125,0.6136141419410706,0.2816088795661926,-0.33368512988090515
1772571933583877000,3.198877197265625,0.5864306092262268,0.3484986126422882,-0.2557998299598694
1772571933601712600,3.216712646484375,0.5763513445854187,0.3165809214115143,-0.20693060755729675
1772571933619545600,3.234545654296875,0.5845980644226074,0.2906191349029541,-0.17516560852527618
1772571933637382100,3.252382080078125,0.5949827432632446,0.19853121042251587,-0.18387043476104736
1772571933655215400,3.27021533203125,0.5965099334716797,0.06322455406188965,-0.19425514340400696
1772571933673049600,3.288049560546875,0.5849034786224365,-0.11560624837875366,-0.1492038369178772
1772571933690884600,3.305884521484375,0.5571091175079346,-0.23090706765651703,-0.03176499158143997
1772571933708720600,3.323720703125,0.49144110083580017,-0.17012597620487213,0.1371392458677292
1772571933726550500,3.341550537109375,0.39324450492858887,-0.06276640295982361,0.28695395588874817
1772571933744377300,3.35937744140625,0.28237244486808777,-0.06658431142568588,0.35124751925468445
1772571933762226000,3.377225830078125,0.19746218621730804,-0.12858712673187256,0.36560285091400146
1772571933780054300,3.39505419921875,0.1488984078168869,-0.15347988903522491,0.3550654351711273
1772571933797892000,3.41289208984375,0.10048733651638031,-0.09529497474431992,0.3520110845565796
1772571933815727600,3.4307275390625,0.054825156927108765,-0.09666942805051804,0.30711251497268677
1772571933833561300,3.448561279296875,0.05390885844826698,-0.10797043144702911,0.24007004499435425
1772571933851394300,3.466394287109375,0.07192938029766083,-0.10842858254909515,0.22403483092784882
1772571933869233400,3.4842333984375,0.10766500234603882,-0.0936150997877121,0.28069257736206055
1772571933887066400,3.50206640625,0.18219055235385895,-0.017562376335263252,0.3465133011341095
1772571933904899600,3.519899658203125,0.22968533635139465,-0.04092797264456749,0.29535335302352905
1772571933922735400,3.5377353515625,0.2255619913339615,0.007635815534740686,0.19975294172763824
1772571933940566500,3.55556640625,0.17898350954055786,-0.048105638474226,0.038179077208042145
1772571933958405600,3.573405517578125,0.10277807712554932,-0.21273382008075714,-0.1895209401845932
1772571933976238600,3.591238525390625,0.078343465924263,-0.3274237811565399,-0.3442225754261017
1772571933994074000,3.60907421875,0.09407325088977814,-0.34177911281585693,-0.30802878737449646
1772571934011907800,3.626907958984375,0.1186605766415596,-0.19807305932044983,-0.06429356336593628
1772571934029743000,3.6447431640625,0.1569923609495163,0.03481931984424591,0.244804248213768
1772571934047573200,3.6625732421875,0.20311269164085388,0.18784105777740479,0.4193589985370636
1772571934065412600,3.68041259765625,0.24663683772087097,0.2272418737411499,0.42210787534713745
1772571934083246000,3.69824609375,0.26572638750076294,0.2041817009449005,0.31444287300109863
1772571934101081600,3.71608154296875,0.2551889419555664,0.16768251359462738,0.16310101747512817
1772571934118915000,3.7339150390625,0.2347249686717987,0.16004669666290283,0.03191770985722542
1772571934136751000,3.751751220703125,0.22479841113090515,0.1394299864768982,-0.06673702597618103
1772571934154581500,3.76958154296875,0.23319780826568604,0.16081027686595917,-0.11789698898792267
1772571934172423700,3.787423583984375,0.2373211532831192,0.21074850857257843,-0.1313360333442688
1772571934190253800,3.80525390625,0.24373523890972137,0.1918116807937622,-0.15027284622192383
1772571934208089000,3.823089111328125,0.25076019763946533,0.144622340798378,-0.15775595605373383
1772571934225922800,3.8409228515625,0.24755313992500305,0.13225232064723969,-0.14019356667995453
1772571934243758600,3.858758544921875,0.26740625500679016,0.13118331134319305,-0.12049316614866257
1772571934261592000,3.876592041015625,0.3481931984424591,0.154396191239357,-0.11911872029304504
1772571934279427800,3.894427734375,0.451123982667923,0.197004035115242,-0.14752395451068878
1772571934297261600,3.912261474609375,0.5057964324951172,0.13744467496871948,-0.16523905098438263
1772571934315097000,3.93009716796875,0.503963828086853,0.044287730008363724,-0.11056660860776901
1772571934332931800,3.947931884765625,0.4199698567390442,0.04138612002134323,-0.03298672288656235
1772571934350765600,3.965765625,0.32131510972976685,0.17348572611808777,0.020311269909143448
1772571934368600000,3.98360009765625,0.3065016269683838,0.3338378667831421,0.005650503560900688
1772571934386435800,4.001435791015625,0.38117989897727966,0.3816380500793457,-0.021380282938480377
1772571934404269300,4.019269287109375,0.47189339995384216,0.36942076683044434,-0.011759156361222267
1772571934422103600,4.037103515625,0.5441282391548157,0.3179553747177124,-0.012980886735022068
1772571934439938300,4.054938232421875,0.6018549799919128,0.2756529450416565,-0.08643743395805359
1772571934457761300,4.07276123046875,0.6418666839599609,0.24404066801071167,-0.19578230381011963
1772571934475594000,4.090593994140625,0.6925684809684753,0.29336804151535034,-0.23121249675750732
1772571934493434400,4.108434326171875,0.7623597979545593,0.34804046154022217,-0.15103642642498016
1772571934511279900,4.12627978515625,0.8600982427597046,0.4815145432949066,0.007635815534740686
1772571934529112800,4.14411279296875,0.9425650835037231,0.541532039642334,0.11575896292924881
1772571934546946300,4.1619462890625,0.9790642857551575,0.4456261992454529,0.11881329119205475
1772571934564781800,4.17978173828125,0.9970847964286804,0.20616702735424042,-0.006261368747800589
1772571934582615800,4.19761572265625,0.9775370955467224,-0.10934487730264664,-0.20143280923366547
1772571934600450000,4.215449951171875,0.8797986507415771,-0.2506074607372284,-0.34025195240974426
1772571934618282000,4.233281982421875,0.7980954647064209,-0.10659598559141159,-0.28008171916007996
1772571934636124000,4.2511240234375,0.8347473740577698,0.20799961686134338,-0.03436116874217987
1772571934653954300,4.268954345703125,0.9668469429016113,0.5065600275993347,0.21135938167572021
1772571934671772400,4.2867724609375,1.0787880420684814,0.6400340795516968,0.3295617997646332
1772571934689623000,4.304623046875,1.1217013597488403,0.6391177773475647,0.3274237811565399
1772571934707455000,4.322455078125,1.1006264686584473,0.5291619896888733,0.24205535650253296
1772571934725292300,4.340292236328125,1.0572550296783447,0.4108068645000458,0.10506882518529892
1772571934743128000,4.358128173828125,1.0406090021133423,0.33276882767677307,-0.03680463135242462
1772571934760961500,4.37596142578125,1.0636690855026245,0.318566232919693,-0.17256943881511688
1772571934778797000,4.393797119140625,1.1009318828582764,0.3280346393585205,-0.31780263781547546
1772571934796630500,4.411630615234375,1.1479685306549072,0.3223841190338135,-0.45631635189056396
1772571934814466800,4.429466796875,1.1482739448547363,0.2854267954826355,-0.5199990272521973
1772571934832300000,4.447300048828125,1.0998629331588745,0.30970868468284607,-0.5048801302909851
1772571934850135600,4.465135498046875,1.0447323322296143,0.44455718994140625,-0.4862487316131592
1772571934867969300,4.48296923828125,1.0134254693984985,0.49357911944389343,-0.4761694669723511
1772571934885805300,4.500805419921875,0.9964739084243774,0.5051855444908142,-0.4280638098716736
1772571934903638500,4.518638427734375,0.9892962574958801,0.5152648091316223,-0.3585779070854187
1772571934921474300,4.536474365234375,1.0059423446655273,0.48777589201927185,-0.3171917796134949
1772571934939307500,4.5543076171875,1.036027431488037,0.43936482071876526,-0.3149010241031647
1772571934957143600,4.5721435546875,1.0612256526947021,0.3634648323059082,-0.30925053358078003
1772571934974977300,4.589977294921875,1.0615310668945312,0.265573650598526,-0.2565633952617645
1772571934992812500,4.6078125,1.003804326057434,0.2096794992685318,-0.22800545394420624
1772571935010641200,4.62564111328125,0.9207266569137573,0.30573806166648865,-0.2255619913339615
1772571935028481800,4.643481689453125,0.8538368940353394,0.40851613879203796,-0.21670444309711456
1772571935046315500,4.6613154296875,0.8032878041267395,0.37339138984680176,-0.19196440279483795
1772571935064151300,4.6791513671875,0.7661777138710022,0.20906862616539001,-0.15592335164546967
1772571935081984800,4.69698486328125,0.7341073155403137,0.005650503560900688,-0.1186605766415596
1772571935099820300,4.7148203125,0.688903272151947,-0.12721268832683563,-0.0933096632361412
1772571935117650700,4.732650634765625,0.6476698517799377,-0.15317445993423462,-0.02015855349600315
1772571935135492900,4.750492919921875,0.622013509273529,-0.07162395119667053,0.1287398487329483
1772571935153323000,4.768322998046875,0.6073527932167053,0.030695978552103043,0.299476683139801
1772571935171158800,4.78615869140625,0.6345362663269043,0.13973543047904968,0.4488332271575928
1772571935188992300,4.8039921875,0.6754642724990845,0.13897185027599335,0.5015203952789307
1772571935206828000,4.821828125,0.6669121384620667,0.09773843735456467,0.42210787534713745
1772571935224661500,4.83966162109375,0.5786421298980713,0.08399397134780884,0.21807889640331268
1772571935242497300,4.857497314453125,0.44837507605552673,0.09300423413515091,-0.042760565876960754
1772571935260319700,4.87531982421875,0.3488040566444397,0.11972958594560623,-0.25182920694351196
1772571935278166500,4.89316650390625,0.3318525552749634,0.15225815773010254,-0.30253100395202637
1772571935295987500,4.910987548828125,0.44364088773727417,0.3280346393585205,-0.13011430203914642
1772571935313835800,4.928835693359375,0.6394231915473938,0.5789475440979004,0.168751522898674
1772571935331669200,4.946669189453125,0.8124507665634155,0.6404922008514404,0.4147774875164032
1772571935349504800,4.9645048828125,0.8695666790008545,0.5963571667671204,0.49984049797058105
1772571935367339000,4.982339111328125,0.8387179970741272,0.5473352670669556,0.4763221740722656
1772571935385174300,5.00017431640625,0.8028296232223511,0.5439754724502563,0.4132503271102905
1772571935403006700,5.0180068359375,0.8068002462387085,0.5297728776931763,0.30925053358078003
1772571935420844300,5.03584423828125,0.8182539939880371,0.48227810859680176,0.1621847152709961
1772571935438676700,5.0536767578125,0.7904596328735352,0.4034765064716339,0.0507018156349659
1772571935456512800,5.0715126953125,0.7519751191139221,0.31261029839515686,0.018325956538319588
1772571935474346200,5.08934619140625,0.7032586336135864,0.18707747757434845,0.0455094613134861
1772571935492182000,5.10718212890625,0.6204863786697388,0.12263119965791702,0.08704829961061478
1772571935510015200,5.12501513671875,0.5369505286216736,0.16065755486488342,0.11438451707363129
1772571935527851000,5.14285107421875,0.5125159621238708,0.20570887625217438,0.126143679022789
1772571935545684700,5.160684814453125,0.5204572081565857,0.2070833146572113,0.1238529309630394
1772571935563520300,5.178520263671875,0.5697845816612244,0.20906862616539001,0.1342376321554184
1772571935581354000,5.19635400390625,0.6557638645172119,0.15806138515472412,0.1371392458677292
1772571935599189200,5.214189208984375,0.737772524356842,0.07406741380691528,0.10491610318422318
1772571935617023200,5.232023193359375,0.7489207983016968,0.06459899991750717,0.05757404863834381
1772571935634858500,5.2498583984375,0.6998988389968872,0.13668109476566315,0.051312681287527084
1772571935652692500,5.2676923828125,0.684474527835846,0.20601430535316467,0.09605856239795685
1772571935670527700,5.28552783203125,0.7209737300872803,0.19746218621730804,0.15027284622192383
1772571935688361500,5.303361572265625,0.7727445363998413,0.16264286637306213,0.19792033731937408
1772571935706194000,5.32119384765625,0.8035932183265686,0.08048149943351746,0.21960605680942535
1772571935724033500,5.339033447265625,0.7903069257736206,0.020311269909143448,0.1872301995754242
1772571935741854000,5.35685400390625,0.708450973033905,-0.03848451003432274,0.07299839705228806
1772571935759685400,5.374685302734375,0.6108652353286743,-0.029932396486401558,-0.07116580009460449
1772571935777537300,5.392537353515625,0.547182559967041,0.0507018156349659,-0.19914206862449646
1772571935795369200,5.410369140625,0.5607742667198181,0.24373523890972137,-0.2324342280626297
1772571935813205200,5.428205322265625,0.6916521787643433,0.4691445231437683,-0.1212567538022995
1772571935831038200,5.4460380859375,0.7634288668632507,0.41263946890830994,-0.00427605677396059
1772571935848873700,5.463873779296875,0.7246388792991638,0.18814650177955627,-0.023518312722444534
1772571935866707700,5.481707763671875,0.5746715068817139,-0.12889257073402405,-0.22403483092784882
1772571935884543500,5.49954345703125,0.39935314655303955,-0.28756481409072876,-0.4283692538738251
1772571935902377000,5.517376953125,0.29596421122550964,-0.2646573781967163,-0.4662429094314575
1772571935920210200,5.535210205078125,0.3572034537792206,-0.027641652151942253,-0.3049744665622711
1772571935938047700,5.5530478515625,0.6065891981124878,0.3698789179325104,-0.03191770985722542
1772571935955878400,5.57087841796875,0.8964447379112244,0.6252205967903137,0.21670444309711456
1772571935973715500,5.588715576171875,1.0607675313949585,0.5659666657447815,0.3390302062034607
1772571935991552800,5.606552734375,1.045495867729187,0.3139847218990326,0.31581732630729675
1772571936009385200,5.62438525390625,0.8964447379112244,0.0029016099870204926,0.19624045491218567
1772571936027217000,5.642216796875,0.7443392872810364,-0.17898350954055786,0.07330382615327835
1772571936045056300,5.66005615234375,0.7037167549133301,-0.20372356474399567,-0.04459316283464432
1772571936062889200,5.67788916015625,0.7250970602035522,-0.1313360333442688,-0.16111570596694946
1772571936080722700,5.69572265625,0.7594582438468933,0.02474004216492176,-0.2454151064157486
1772571936098558200,5.71355810546875,0.7623597979545593,0.1999056488275528,-0.26374107599258423
1772571936116392000,5.731391845703125,0.7571674585342407,0.244804248213768,-0.2370157092809677
1772571936134227700,5.749227783203125,0.7535023093223572,0.20005837082862854,-0.18738290667533875
1772571936152061200,5.767061279296875,0.7124215960502625,0.14874568581581116,-0.12370020896196365
1772571936169896700,5.784896728515625,0.6682865619659424,0.08338310569524765,-0.052228979766368866
1772571936187730200,5.802730224609375,0.6534730792045593,0.03451388701796532,0.01863138936460018
1772571936205566200,5.820566162109375,0.6479753255844116,0.04764748737215996,0.06887505948543549
1772571936223403000,5.838403076171875,0.6369797587394714,0.11728613078594208,0.09728029370307922
1772571936241235200,5.856235107421875,0.6114761233329773,0.18020524084568024,0.10766500234603882
1772571936259068700,5.874068603515625,0.5647448897361755,0.17333301901817322,0.07101308554410934
1772571936276904400,5.891904541015625,0.4905247986316681,0.11667526513338089,0.03573561832308769
1772571936294738200,5.90973828125,0.3675881624221802,0.06673702597618103,0.021838432177901268
1772571936312573700,5.92757373046875,0.25076019763946533,0.08750644326210022,0.015882495790719986
1772571936330404000,5.945404052734375,0.1872301995754242,0.06459899991750717,-0.015882495790719986
1772571936348245500,5.96324560546875,0.14324790239334106,0.08552113175392151,-0.04932736977934837
1772571936366076200,5.981076171875,0.07941248267889023,0.2073887437582016,-0.07742717117071152
1772571936383912200,5.998912109375,-0.014966198243200779,0.23075434565544128,-0.10506882518529892
1772571936401742600,6.01674267578125,-0.10873401165008545,0.21991148591041565,-0.11438451707363129
1772571936419580400,6.034580322265625,-0.23136521875858307,0.2577851414680481,-0.07437284290790558
1772571936437414400,6.052414306640625,-0.30512720346450806,0.24373523890972137,-0.019853120669722557
1772571936455247400,6.070247314453125,-0.32039880752563477,0.21624629199504852,-0.008704829961061478
1772571936473071900,6.08807177734375,-0.37522396445274353,0.08460483700037003,-0.12965615093708038
1772571936490910700,6.10591064453125,-0.4334088861942291,-0.05864306539297104,-0.3376557528972626
1772571936508753000,6.1237529296875,-0.4340197443962097,-0.17119498550891876,-0.48579058051109314
1772571936526588700,6.141588623046875,-0.3660610020160675,-0.2955060601234436,-0.471129834651947
1772571936544422100,6.159422119140625,-0.2848159074783325,-0.42898011207580566,-0.28909197449684143
1772571936562258000,6.1772578125,-0.2301434874534607,-0.4291328489780426,-0.038179077208042145
1772571936580091400,6.19509130859375,-0.14004085958003998,-0.30970868468284607,0.14034628868103027
1772571936597927000,6.212927001953125,-0.03039054572582245,-0.16019940376281738,0.235030397772789
1772571936615752400,6.23075244140625,0.023976460099220276,0.01237002108246088,0.3214678466320038
1772571936633596200,6.24859619140625,0.02626720629632473,0.022602014243602753,0.39767327904701233
1772571936651428400,6.266428466796875,0.01191187184303999,-0.0685696229338646,0.44455718994140625
1772571936669267000,6.284266845703125,-0.0455094613134861,-0.10705413669347763,0.4314235746860504
1772571936687099400,6.302099365234375,-0.11316278576850891,-0.05772676691412926,0.3553708493709564
1772571936704934400,6.319934326171875,-0.15042556822299957,-0.03894266113638878,0.22831088304519653
1772571936722768400,6.337768310546875,-0.15271630883216858,-0.0503963828086853,0.09834930300712585
1772571936740603400,6.355603271484375,-0.11484266817569733,-0.0012217304902151227,-0.009926560334861279
1772571936758438100,6.373438232421875,-0.054825156927108765,0.03634648025035858,-0.09086620807647705
1772571936776272100,6.391272216796875,0.0009162978967651725,0.019547687843441963,-0.12690725922584534
1772571936794106400,6.4091064453125,0.041233405470848083,-0.011301007121801376,-0.13820825517177582
1772571936811942400,6.4269423828125,0.0633772686123848,-0.03039054572582245,-0.11270463466644287
1772571936829775600,6.444775634765625,0.03726277872920036,-0.06368270516395569,-0.07101308554410934
1772571936847611100,6.462611083984375,0.016035212203860283,-0.09178250283002853,-0.054367005825042725
1772571936865444900,6.48044482421875,-0.004886921960860491,-0.04688390716910362,-0.07116580009460449
1772571936883280400,6.4982802734375,-0.04581489413976669,0.050854530185461044,-0.10308351367712021
1772571936901113900,6.51611376953125,-0.04688390716910362,0.13271047174930573,-0.12400564551353455
1772571936918946000,6.533946044921875,-0.02535090781748295,0.15042556822299957,-0.1408044397830963
1772571936936788200,6.551788330078125,-0.036193765699863434,0.09376781433820724,-0.156686931848526
1772571936954607400,6.569607421875,-0.048716504126787186,0.047800205647945404,-0.15515977144241333
1772571936972452600,6.58745263671875,-0.048258353024721146,0.0708603709936142,-0.15057829022407532
1772571936990288000,6.605287841796875,-0.04795292019844055,0.13209961354732513,-0.17104226350784302
1772571937008121300,6.623121337890625,-0.017562376335263252,0.20799961686134338,-0.1817324161529541
1772571937025957000,6.64095703125,0.023365596309304237,0.21930062770843506,-0.17898350954055786
1772571937043790600,6.65879052734375,0.08261952549219131,0.19562959671020508,-0.15103642642498016
1772571937061614000,6.676614013671875,0.13057245314121246,0.12095131725072861,-0.08017606288194656
1772571937079459800,6.6944599609375,0.1336267739534378,0.03878994286060333,0.04505131021142006
1772571937097295400,6.71229541015625,0.09010262042284012,-0.08277224004268646,0.16111570596694946
1772571937115128800,6.73012890625,0.03649919852614403,-0.15454891324043274,0.21380282938480377
1772571937132963800,6.7479638671875,-0.019089538604021072,-0.10506882518529892,0.19196440279483795
1772571937150799400,6.76579931640625,-0.04841107130050659,0.10842858254909515,0.16600263118743896
1772571937168633600,6.783633544921875,-0.045204028487205505,0.3546072840690613,0.1511891484260559
1772571937186467300,6.80146728515625,-0.1010981947183609,0.3081815242767334,0.036193765699863434
1772571937204303000,6.81930322265625,-0.1612684279680252,0.154396191239357,-0.1388191282749176
1772571937222136800,6.83713671875,-0.21212296187877655,-0.07101308554410934,-0.35094207525253296
1772571937239972000,6.85497216796875,-0.24572055041790009,-0.21609358489513397,-0.5079344511032104
1772571937257805600,6.8728056640625,-0.20586158335208893,-0.2194533348083496,-0.5442809462547302
1772571937275641300,6.890641357421875,-0.019089538604021072,-0.14767667651176453,-0.42638394236564636
1772571937293471700,6.9084716796875,0.24984388053417206,-0.0806342139840126,-0.1788308024406433
1772571937311313700,6.926313720703125,0.42791110277175903,-0.11575896292924881,0.07360926270484924
1772571937329143800,6.944143798828125,0.489608496427536,-0.2070833146572113,0.2148718535900116
1772571937346979600,6.9619794921875,0.45555275678634644,-0.33246341347694397,0.1817324161529541
1772571937364813000,6.97981298828125,0.33246341347694397,-0.33429601788520813,0.04230241850018501
1772571937382648800,6.99764892578125,0.2070833146572113,-0.30146199464797974,-0.14523321390151978
1772571937400482000,7.01548193359375,0.1469130963087082,-0.2541199326515198,-0.26404649019241333
1772571937418317800,7.03331787109375,0.1417207419872284,-0.14065171778202057,-0.2574796974658966
1772571937436151600,7.051151611328125,0.17348572611808777,0.0455094613134861,-0.13454307615756989
1772571937453987300,7.0689873046875,0.19226983189582825,0.23197607696056366,0.035124752670526505
1772571937471808300,7.086808349609375,0.1837177276611328,0.33628132939338684,0.14294247329235077
1772571937489656300,7.10465625,0.1699732542037964,0.3908010423183441,0.14126259088516235
1772571937507485200,7.122485107421875,0.15286903083324432,0.4004221558570862,0.05497787147760391
1772571937525313000,7.14031298828125,0.1270599663257599,0.3127630054950714,-0.04214970022439957
1772571937543160300,7.158160400390625,0.12263119965791702,0.12965615093708038,-0.07849618047475815
1772571937560983300,7.1759833984375,0.11545353382825851,-0.09117163717746735,-0.08628471940755844
1772571937578827800,7.193827880859375,0.06612616032361984,-0.24129177629947662,-0.1014036312699318
1772571937596657200,7.2116572265625,-0.037110064178705215,-0.2880229651927948,-0.11682797968387604
1772571937614497300,7.229497314453125,-0.14614951610565186,-0.2474004179239273,-0.14477506279945374
1772571937632333000,7.2473330078125,-0.22189679741859436,-0.2638937830924988,-0.24617868661880493
1772571937650166300,7.265166259765625,-0.25366178154945374,-0.2681698501110077,-0.31184670329093933
1772571937668001800,7.283001708984375,-0.26862800121307373,-0.24266621470451355,-0.25763240456581116
1772571937685835800,7.300835693359375,-0.2987131178379059,-0.25931230187416077,-0.18387043476104736
1772571937703671300,7.31867138671875,-0.3010038435459137,-0.08307767659425735,-0.09544769674539566
1772571937721506000,7.336506103515625,-0.280539870262146,0.09957103431224823,-0.076052725315094
1772571937739339300,7.35433935546875,-0.29077184200286865,0.2612976133823395,-0.128434419631958
1772571937757171000,7.3721708984375,-0.294895201921463,0.42302417755126953,-0.1336267739534378
1772571937775012900,7.390012939453125,-0.28557950258255005,0.3602577745914459,-0.10293079167604446
1772571937792840000,7.40783984375,-0.2551889419555664,0.2562579810619354,-0.009468411095440388
1772571937810666500,7.42566650390625,-0.2970332205295563,0.04948008432984352,0.10461067408323288
1772571937828512000,7.443511962890625,-0.4075998365879059,-0.18219055235385895,0.1745547503232956
1772571937846347800,7.46134765625,-0.49556443095207214,-0.21807889640331268,0.11972958594560623
1772571937864181500,7.479181396484375,-0.5300782918930054,-0.12018773704767227,-0.038026362657547
1772571937882017000,7.49701708984375,-0.5077817440032959,-0.03756821155548096,-0.19868391752243042
1772571937899850200,7.514850341796875,-0.43768495321273804,0.05207626149058342,-0.27870726585388184
1772571937917686300,7.532686279296875,-0.36682456731796265,0.11636982858181,-0.275958389043808
1772571937935519700,7.550519775390625,-0.28848111629486084,0.20555615425109863,-0.1417207419872284
1772571937953355300,7.568355224609375,-0.2174680233001709,0.22113321721553802,0.08857546001672745
1772571937971190300,7.586190185546875,-0.18295414745807648,0.12247848510742188,0.3194825351238251
1772571937989023000,7.60402294921875,-0.1791362315416336,0.02229658141732216,0.48059824109077454
1772571938006858200,7.621858154296875,-0.17562375962734222,-0.1085812970995903,0.5453499555587769
1772571938024690200,7.639690185546875,-0.18616119027137756,-0.21838432550430298,0.5401576161384583
1772571938042527200,7.65752734375,-0.2249511331319809,-0.23884831368923187,0.5041165351867676
1772571938060366300,7.675366455078125,-0.2874121069908142,-0.1342376321554184,0.4021020531654358
1772571938078196000,7.693196044921875,-0.37339138984680176,0.00733038317412138,0.2646573781967163
1772571938096032000,7.711031982421875,-0.44486260414123535,0.18829920887947083,0.16035212576389313
1772571938113865500,7.728865478515625,-0.4735732674598694,0.22220222651958466,0.05742133408784866
1772571938131701200,7.746701171875,-0.46563202142715454,0.14004085958003998,-0.010231993161141872
1772571938149534500,7.764534423828125,-0.4311181604862213,0.05696318298578262,-0.018936822190880775
1772571938167370500,7.78237060546875,-0.39904773235321045,0.00427605677396059,0.00733038317412138
1772571938185203700,7.80020361328125,-0.36651915311813354,-0.12034045159816742,0.024892758578062057
1772571938203038200,7.8180380859375,-0.3338378667831421,-0.2249511331319809,0.058948494493961334
1772571938220871200,7.83587109375,-0.299476683139801,-0.1647808998823166,0.11942415684461594
1772571938238711300,7.853711181640625,-0.2422080636024475,-0.038026362657547,0.14019356667995453
1772571938256539000,7.871538818359375,-0.17516560852527618,0.07009678333997726,0.10659598559141159
1772571938274380800,7.889380859375,-0.1160643994808197,0.08109235763549805,0.03634648025035858
1772571938292212500,7.90721240234375,-0.08384125679731369,0.07284568250179291,0.012828170321881771
1772571938310045400,7.92504541015625,-0.08292495459318161,0.07849618047475815,0.036041051149368286
1772571938327880200,7.942880126953125,-0.07376197725534439,0.015577063895761967,0.043676864355802536
1772571938345715700,7.9607158203125,-0.04489859566092491,-0.04337143152952194,0.03436116874217987
1772571938363549200,7.978549072265625,0.03527746722102165,-0.047189339995384216,0.039706241339445114
1772571938381385200,7.99638525390625,0.16111570596694946,-0.07452555745840073,0.10048733651638031
1772571938399218400,8.014218505859375,0.256868839263916,-0.23640485107898712,0.17730364203453064
1772571938417054500,8.032054443359375,0.20983220636844635,-0.43157628178596497,0.15851953625679016
1772571938434887700,8.0498876953125,0.06123924255371094,-0.4355469346046448,0.06673702597618103
1772571938452723500,8.067723388671874,-0.053297992795705795,-0.1463022232055664,0.038179077208042145
1772571938470542600,8.08554248046875,0.008246680721640587,0.19914206862449646,0.1108720451593399
1772571938488383200,8.10338330078125,0.1033889427781105,0.08933904021978378,0.14798210561275482
1772571938506227500,8.1212275390625,0.11698069423437119,-0.14095716178417206,0.11774427443742752
1772571938524063500,8.1390634765625,0.04199698567390442,-0.42439863085746765,0.02168571576476097
1772571938541895200,8.156895263671874,-0.11667526513338089,-0.5398521423339844,-0.11133018881082535
1772571938559730700,8.174730712890625,-0.2964223623275757,-0.4537201523780823,-0.21884247660636902
1772571938577552400,8.192552490234375,-0.4072943925857544,-0.23640485107898712,-0.1774563491344452
1772571938595400000,8.21039990234375,-0.36590829491615295,-0.025656340643763542,0.016798794269561768
1772571938613233700,8.228233642578125,-0.19394971430301666,0.11468994617462158,0.23380866646766663
1772571938631069200,8.246069091796874,-0.09178250283002853,0.13148874044418335,0.37461310625076294
1772571938648902700,8.263902587890625,-0.08200865983963013,0.07513642311096191,0.39797869324684143
1772571938666738000,8.281738037109376,-0.1267545372247696,0.052839845418930054,0.25824329257011414
1772571938684571400,8.2995712890625,-0.1339322030544281,0.16844609379768372,0.008704829961061478
1772571938702407400,8.317407470703126,-0.19853121042251587,0.29535335302352905,-0.032070424407720566
1772571938720240600,8.33524072265625,-0.2719877362251282,-0.11591167747974396,-0.09926560521125793
1772571938738076200,8.353076171875,-0.2402227520942688,-0.4054618179798126,-0.24113905429840088
1772571938755910000,8.370909912109376,-0.2733621895313263,-0.41981714963912964,-0.37690386176109314
1772571938773745400,8.388745361328125,-0.35903605818748474,-0.21212296187877655,-0.45952337980270386
1772571938791579100,8.4065791015625,-0.45142942667007446,0.05650503560900688,-0.4813618063926697
1772571938809414700,8.42441455078125,-0.5196936130523682,0.13698652386665344,-0.4821254014968872
1772571938827244800,8.442244873046874,-0.5833762884140015,0.0656680166721344,-0.3669773042201996
