time,seconds_elapsed,z,y,x
1772571930540839200,0.155839111328125,0.28725937008857727,0.06688974797725677,-0.06185010448098183
1772571930558685700,0.173685791015625,0.2580905556678772,0.03726277872920036,0.0006108652451075613
1772571930576519000,0.191518798828125,0.2528982162475586,0.0503963828086853,0.04642575979232788
1772571930594354700,0.209354736328125,0.27488934993743896,0.05192354694008827,0.03634648025035858
1772571930612188400,0.2271884765625,0.27519479393959045,-0.00366519158706069,-0.005650503560900688
1772571930630022700,0.245022705078125,0.20143280923366547,-0.08460483700037003,-0.0705549344420433
1772571930647857400,0.262857421875,0.15806138515472412,0.0007635815418325365,-0.10247264802455902
1772571930665693000,0.28069287109375,0.12476922571659088,0.144622340798378,-0.16814066469669342
1772571930683526700,0.298526611328125,0.10781771689653397,0.22189679741859436,-0.2802344262599945
1772571930701361200,0.316361083984375,0.16371189057826996,0.25824329257011414,-0.394618958234787
1772571930719196000,0.33419580078125,0.32100969552993774,0.3072652220726013,-0.5198463201522827
1772571930737031400,0.352031494140625,0.4277583956718445,0.27458393573760986,-0.6354525685310364
1772571930754865000,0.369864990234375,0.5308418869972229,0.21838432550430298,-0.6861543655395508
1772571930772686800,0.387686767578125,0.5734497308731079,0.20402899384498596,-0.6731734871864319
1772571930790534100,0.4055341796875,0.6065891981124878,0.4853324294090271,-0.4535674452781677
1772571930808370000,0.423369873046875,0.5839871764183044,0.5093088746070862,-0.13897185027599335
1772571930826203100,0.441203125,0.4306600093841553,0.09376781433820724,0.013286318629980087
1772571930844038700,0.45903857421875,0.1612684279680252,-0.5983424782752991,-0.06459899991750717
1772571930861872600,0.47687255859375,-0.00809396430850029,-0.9298896193504333,-0.1569923609495163
1772571930879708400,0.49470849609375,0.01725694350898266,-0.6777549982070923,-0.10644327104091644
1772571930897541600,0.512541748046875,0.2174680233001709,0.11209376901388168,0.08796459436416626
1772571930915376400,0.53037646484375,0.48166725039482117,0.6736316680908203,0.26053401827812195
1772571930933211100,0.548211181640625,0.5838344693183899,0.7348709106445312,0.3016147017478943
1772571930951046400,0.56604638671875,0.5416847467422485,0.5540547966957092,0.2623666226863861
1772571930968880000,0.583880126953125,0.4495968222618103,0.28909197449684143,0.20463985204696655
1772571930986712600,0.601712646484375,0.3706424832344055,0.13805554807186127,0.16554448008537292
1772571931004551000,0.619551025390625,0.3727805018424988,0.12461651116609573,0.12018773704767227
1772571931022384600,0.637384521484375,0.40225476026535034,0.0981965884566307,0.02871066704392433
1772571931040218400,0.65521826171875,0.47448956966400146,0.11759155988693237,-0.05009094998240471
1772571931058052900,0.673052978515625,0.5537493228912354,0.1485929638147354,-0.09636399149894714
1772571931075887400,0.690887451171875,0.5603161454200745,0.20693060755729675,-0.13057245314121246
1772571931093710600,0.708710693359375,0.5285511612892151,0.25213462114334106,-0.18356500566005707
1772571931111556600,0.726556640625,0.5006040930747986,0.25702154636383057,-0.2496911734342575
1772571931129391600,0.7443916015625,0.5155702829360962,0.17043140530586243,-0.2848159074783325
1772571931147225600,0.7622255859375,0.5262604355812073,0.059406645596027374,-0.2874121069908142
1772571931165061600,0.7800615234375,0.5082398653030396,0.030237829312682152,-0.27259862422943115
1772571931182895000,0.79789501953125,0.5186246037483215,0.08216137439012527,-0.2710714638233185
1772571931200726800,0.815726806640625,0.5468770861625671,0.14782938361167908,-0.2509129047393799
1772571931218564600,0.833564697265625,0.5595525503158569,0.156686931848526,-0.15164729952812195
1772571931236404500,0.851404541015625,0.5120577812194824,0.09147707372903824,-0.013591751456260681
1772571931254216400,0.869216552734375,0.40072759985923767,0.027183502912521362,0.13927727937698364
1772571931272067800,0.88706787109375,0.26969701051712036,-0.13576480746269226,0.20922134816646576
1772571931289889800,0.904889892578125,0.14477506279945374,-0.34315356612205505,0.194713294506073
1772571931307737900,0.92273779296875,0.0685696229338646,-0.5283984541893005,0.09147707372903824
1772571931325571600,0.940571533203125,0.023976460099220276,-0.4743368625640869,-0.02382374368607998
1772571931343406300,0.95840625,-0.054825156927108765,-0.2165517359972,-0.1394299864768982
1772571931361240800,0.97624072265625,-0.21884247660636902,-0.0024434609804302454,-0.25045475363731384
1772571931379076600,0.99407666015625,-0.3926336467266083,0.1875356286764145,-0.31444287300109863
1772571931396909800,1.011909912109375,-0.4323398768901825,0.1950187236070633,-0.3672827184200287
1772571931414744600,1.02974462890625,-0.4879286289215088,-0.03741549700498581,-0.4427245855331421
1772571931432577000,1.047576904296875,-0.6446155309677124,-0.25503623485565186,-0.5960517525672913
1772571931450415600,1.06541552734375,-0.6849326491355896,-0.4034765064716339,-0.8310821652412415
1772571931468250400,1.08325048828125,-0.6091853380203247,-0.4366159439086914,-1.010829210281372
1772571931486082300,1.101082275390625,-0.45952337980270386,-0.4502076804637909,-1.0235047340393066
1772571931503917300,1.118917236328125,-0.26419922709465027,-0.18860463798046112,-0.7651087045669556
1772571931521752800,1.1367529296875,-0.13041973114013672,0.25014930963516235,-0.30802878737449646
1772571931539586300,1.15458642578125,-0.07437284290790558,0.3729332387447357,0.13561208546161652
1772571931557421000,1.172421142578125,-0.0377209298312664,0.2382374405860901,0.39156460762023926
1772571931575251200,1.190251220703125,0.009926560334861279,0.0988074541091919,0.42180246114730835
1772571931593091000,1.208091064453125,0.03298672288656235,0.03390302136540413,0.3240640163421631
1772571931610925300,1.22592529296875,0.012217304669320583,0.058795779943466187,0.22647829353809357
1772571931628760000,1.243760009765625,-0.005650503560900688,0.14477506279945374,0.1719585657119751
1772571931646593800,1.26159375,-0.048105638474226,0.16859880089759827,0.11652254313230515
1772571931664429800,1.279429931640625,-0.13775011897087097,0.09743300825357437,0.09758572280406952
1772571931682263300,1.29726318359375,-0.02321287989616394,0.22739458084106445,0.11010845750570297
1772571931700097800,1.315097900390625,0.0959058403968811,0.7247915863990784,0.13072516024112701
1772571931717923300,1.33292333984375,0.11102475970983505,1.2678507566452026,0.18738290667533875
1772571931735768000,1.35076806640625,0.06200282275676727,1.4743232727050781,0.2292271852493286
1772571931753583900,1.368583984375,-0.06017022579908371,1.1678216457366943,0.21090123057365417
1772571931771436300,1.386436279296875,-0.17516560852527618,0.7640396952629089,0.1927279829978943
1772571931789271000,1.40427099609375,-0.2580905556678772,0.44806966185569763,0.15806138515472412
1772571931807106300,1.422106201171875,-0.27580565214157104,0.3130684494972229,0.14095716178417206
1772571931824940000,1.43993994140625,-0.21960605680942535,0.2790127098560333,0.16859880089759827
1772571931842774500,1.4577744140625,-0.1511891484260559,0.13316862285137177,0.16630806028842926
1772571931860609000,1.475609130859375,-0.1394299864768982,0.02535090781748295,0.12996158003807068
1772571931878444500,1.493444580078125,-0.12247848510742188,0.006872233934700489,0.096211276948452
1772571931896278500,1.511278564453125,-0.0455094613134861,0.02321287989616394,0.07742717117071152
1772571931914113000,1.529113037109375,0.03145955875515938,0.036651913076639175,0.07971791177988052
1772571931931947000,1.546947021484375,0.08735372871160507,-0.010690141469240189,0.02580905705690384
1772571931949781200,1.56478125,0.0936150997877121,-0.0858265683054924,-0.10567969083786011
1772571931967618000,1.5826181640625,0.08597928285598755,-0.15592335164546967,-0.24205535650253296
1772571931985449500,1.600449462890625,0.1537853181362152,-0.08109235763549805,-0.25182920694351196
1772571932003287000,1.618287109375,0.3536909818649292,0.2941316068172455,-0.06261368840932846
1772571932021121000,1.63612109375,0.53328537940979,0.5868887901306152,0.14935655891895294
1772571932038954500,1.65395458984375,0.5974262356758118,0.6294966340065002,0.21700987219810486
1772571932056789200,1.671789306640625,0.5096143484115601,0.3039054572582245,0.10674870014190674
1772571932074623700,1.689623779296875,0.313373863697052,-0.01114829070866108,0.0074830991216003895
1772571932092459500,1.70745947265625,0.20295998454093933,-0.03497203439474106,0.015882495790719986
1772571932110293200,1.725293212890625,0.26313021779060364,0.12858712673187256,0.12980885803699493
1772571932128127500,1.74312744140625,0.46471574902534485,0.37537670135498047,0.3110831379890442
1772571932145962000,1.7609619140625,0.698677122592926,0.5873469114303589,0.5054910182952881
1772571932163798300,1.77879833984375,0.869719386100769,0.6288857460021973,0.6400340795516968
1772571932181631700,1.7966318359375,0.8721628785133362,0.40515637397766113,0.6281222105026245
1772571932199466200,1.81446630859375,0.6969972252845764,0.0705549344420433,0.4983133375644684
1772571932217300700,1.83230078125,0.48029279708862305,-0.14340060949325562,0.34315356612205505
1772571932235136500,1.850136474609375,0.35033121705055237,-0.19868391752243042,0.19456058740615845
1772571932252970200,1.86797021484375,0.34177911281585693,-0.18768835067749023,0.012675453908741474
1772571932270803700,1.8858037109375,0.45524731278419495,-0.15057829022407532,-0.1843285858631134
1772571932288639500,1.903639404296875,0.6090326309204102,-0.10674870014190674,-0.347276896238327
1772571932306474800,1.921474853515625,0.650418758392334,-0.11988230794668198,-0.45982882380485535
1772571932324308000,1.939307861328125,0.5958990454673767,-0.10873401165008545,-0.5215262174606323
1772571932342143000,1.95714306640625,0.5561928153038025,-0.04764748737215996,-0.5502368807792664
1772571932359977200,1.974977294921875,0.5470298528671265,0.051312681287527084,-0.5441282391548157
1772571932377812700,1.992812744140625,0.5028948187828064,0.251218318939209,-0.4063780903816223
1772571932395646500,2.010646484375,0.44425174593925476,0.22128593921661377,-0.2590068578720093
1772571932413481500,2.0284814453125,0.43829581141471863,0.10308351367712021,-0.16081027686595917
1772571932431315700,2.046315673828125,0.4173736870288849,0.01970040425658226,-0.12370020896196365
1772571932449150000,2.06414990234375,0.3654501438140869,0.0607810914516449,-0.09605856239795685
1772571932466979600,2.0819794921875,0.29245173931121826,0.07590000331401825,-0.12079860270023346
1772571932484809200,2.099809326171875,0.22510384023189545,0.03436116874217987,-0.20143280923366547
1772571932502644200,2.117644287109375,0.14263702929019928,0.016340645030140877,-0.22449298202991486
1772571932520489700,2.13548974609375,0.005955935921519995,-0.002138028386980295,-0.15424346923828125
1772571932538323200,2.1533232421875,-0.13790282607078552,-0.10445795953273773,-0.09208793938159943
1772571932556145400,2.1711455078125,-0.28099802136421204,-0.22220222651958466,-0.1281289905309677
1772571932573988600,2.188988525390625,-0.3851505517959595,-0.07452555745840073,-0.14614951610565186
1772571932591833000,2.2068330078125,-0.4079052805900574,0.21288654208183289,-0.10399980843067169
1772571932609661700,2.22466162109375,-0.35842517018318176,0.33735033869743347,-0.0529925599694252
1772571932627496000,2.242495849609375,-0.27641651034355164,0.4867068827152252,0.027183502912521362
1772571932645318400,2.260318359375,-0.25045475363731384,0.4980078935623169,0.0354301854968071
1772571932663166700,2.278166748046875,-0.3312416672706604,0.37751471996307373,-0.04902193695306778
1772571932681000200,2.296000244140625,-0.4550946056842804,0.05253441259264946,-0.2154827117919922
1772571932698835000,2.3138349609375,-0.5858197808265686,-0.38927388191223145,-0.43768495321273804
1772571932716669200,2.331669189453125,-0.6039929986000061,-0.6835582256317139,-0.5830708742141724
1772571932734505000,2.3495048828125,-0.5386304259300232,-0.6537785530090332,-0.5601634383201599
1772571932752338200,2.367338134765625,-0.38408151268959045,-0.16340644657611847,-0.33948835730552673
1772571932770173200,2.385173095703125,-0.16569720208644867,0.32131510972976685,-0.07941248267889023
1772571932788006100,2.403006103515625,0.007177666760981083,0.37751471996307373,0.10216721147298813
1772571932805844500,2.420844482421875,0.07910704612731934,0.1609629988670349,0.24037547409534454
1772571932823676700,2.4386767578125,0.07727445662021637,-0.06918048858642578,0.3724750876426697
1772571932841511200,2.45651123046875,0.038179077208042145,-0.23716843128204346,0.4943426847457886
1772571932859345700,2.474345703125,-0.041233405470848083,-0.3396410644054413,0.5303837656974792
1772571932877181400,2.492181396484375,-0.11560624837875366,-0.2840523421764374,0.4824308156967163
1772571932895015200,2.51001513671875,-0.20128010213375092,-0.17104226350784302,0.3588833212852478
1772571932912850000,2.527849853515625,-0.3150537610054016,-0.037110064178705215,0.19837848842144012
1772571932930684700,2.5456845703125,-0.39416080713272095,0.07956519722938538,0.03039054572582245
1772571932948520000,2.56352001953125,-0.4184426963329315,0.15836681425571442,-0.12782354652881622
1772571932966353400,2.581353515625,-0.4421137273311615,0.15042556822299957,-0.2513710558414459
1772571932984188200,2.599188232421875,-0.44135013222694397,0.10965031385421753,-0.32940909266471863
1772571933002010000,2.617010009765625,-0.41691553592681885,0.06475171446800232,-0.33475416898727417
1772571933019846100,2.63484619140625,-0.375071257352829,0.08307767659425735,-0.2799290120601654
1772571933037687800,2.652687744140625,-0.2591595947742462,0.06979135423898697,-0.20097467303276062
1772571933055518000,2.67051806640625,-0.1235474944114685,0.09056077152490616,-0.09758572280406952
1772571933073361200,2.688361083984375,-0.10674870014190674,0.13087788224220276,0.012980886735022068
1772571933091198500,2.706198486328125,-0.12431107461452484,0.1511891484260559,0.08949175477027893
1772571933109030400,2.724030517578125,-0.009773843921720982,0.08857546001672745,0.14156801998615265
1772571933126865000,2.741864990234375,0.15012013912200928,0.02886338345706463,0.17302757501602173
1772571933144699600,2.75969970703125,0.23319780826568604,-0.018478672951459885,0.1589776873588562
1772571933162535400,2.777535400390625,0.2047925740480423,-0.05421429127454758,0.0731511116027832
1772571933180369000,2.795368896484375,0.08796459436416626,-0.01542434748262167,-0.030237829312682152
1772571933198203400,2.813203369140625,-0.03680463135242462,-0.13576480746269226,-0.15393804013729095
1772571933216036900,2.831036865234375,0.005497787147760391,-0.2515237629413605,-0.21594086289405823
1772571933233874400,2.84887451171875,0.2519819140434265,-0.06505715101957321,-0.14278975129127502
1772571933251705900,2.866705810546875,0.565203070640564,0.2664899528026581,0.028405234217643738
1772571933269542000,2.8845419921875,0.6991352438926697,0.21135938167572021,0.14248432219028473
1772571933287376400,2.90237646484375,0.6426302194595337,0.03145955875515938,0.20631973445415497
1772571933305195300,2.9201953125,0.5265658497810364,-0.1615738570690155,0.20372356474399567
1772571933316358100,2.931358154296875,0.4841107130050659,-0.23136521875858307,0.2018909603357315
1772571933334191900,2.94919189453125,0.48716503381729126,-0.28359419107437134,0.22449298202991486
1772571933352028000,2.96702783203125,0.5316054821014404,-0.29596421122550964,0.3066543638706207
1772571933369861400,2.984861328125,0.6125451326370239,-0.2220495194196701,0.4040873646736145
1772571933387697000,3.00269677734375,0.7357872128486633,-0.05772676691412926,0.46273043751716614
1772571933405530600,3.020530517578125,0.8659014701843262,0.10277807712554932,0.40393465757369995
1772571933423366100,3.0383662109375,0.9292787313461304,0.16630806028842926,0.18860463798046112
1772571933441199900,3.056199951171875,0.9156870245933533,0.1420261710882187,-0.10674870014190674
1772571933459035400,3.074035400390625,0.8901833891868591,0.016493361443281174,-0.3923282027244568
1772571933476868900,3.091868896484375,0.8413141369819641,0.007024950347840786,-0.5106833577156067
1772571933494704400,3.109704345703125,0.7458664774894714,0.020005837082862854,-0.508698046207428
1772571933512538400,3.127538330078125,0.6649268269538879,0.05497787147760391,-0.46899178624153137
1772571933530374000,3.145373779296875,0.6389650702476501,0.09544769674539566,-0.43157628178596497
1772571933548207000,3.16320703125,0.6334672570228577,0.1722639948129654,-0.39248090982437134
1772571933566043400,3.18104345703125,0.6126978397369385,0.28038713335990906,-0.3332269787788391
1772571933583877000,3.198877197265625,0.5855143666267395,0.347276896238327,-0.25534167885780334
1772571933601712600,3.216712646484375,0.5755877494812012,0.3153591752052307,-0.2064724564552307
1772571933619545600,3.234545654296875,0.5838344693183899,0.2893974184989929,-0.17470745742321014
1772571933637382100,3.252382080078125,0.5940664410591125,0.19746218621730804,-0.18341228365898132
1772571933655215400,3.27021533203125,0.5955936312675476,0.06200282275676727,-0.19379699230194092
1772571933673049600,3.288049560546875,0.584139883518219,-0.11682797968387604,-0.14874568581581116
1772571933690884600,3.305884521484375,0.5561928153038025,-0.2321287989616394,-0.03130684420466423
1772571933708720600,3.323720703125,0.49067750573158264,-0.1713477075099945,0.13759739696979523
1772571933726550500,3.341550537109375,0.3923282027244568,-0.06398813426494598,0.2874121069908142
1772571933744377300,3.35937744140625,0.2814561724662781,-0.06780604273080826,0.3517056703567505
1772571933762226000,3.377225830078125,0.19654589891433716,-0.12980885803699493,0.3660610020160675
1772571933780054300,3.39505419921875,0.14813482761383057,-0.15454891324043274,0.35552358627319336
1772571933797892000,3.41289208984375,0.09972374886274338,-0.09651670604944229,0.35246923565864563
1772571933815727600,3.4307275390625,0.05406157299876213,-0.09789115190505981,0.3075706362724304
1772571933833561300,3.448561279296875,0.0529925599694252,-0.10919216275215149,0.2405281960964203
1772571933851394300,3.466394287109375,0.07101308554410934,-0.10965031385421753,0.22449298202991486
1772571933869233400,3.4842333984375,0.10674870014190674,-0.09483683109283447,0.2811507284641266
1772571933887066400,3.50206640625,0.1814269721508026,-0.01878410577774048,0.34697145223617554
1772571933904899600,3.519899658203125,0.22876903414726257,-0.04214970022439957,0.2958115041255951
1772571933922735400,3.5377353515625,0.22479841113090515,0.0064140851609408855,0.2002110779285431
1772571933940566500,3.55556640625,0.17806722223758698,-0.04917465150356293,0.038637228310108185
1772571933958405600,3.573405517578125,0.10186178237199783,-0.21395555138587952,-0.18906278908252716
1772571933976238600,3.591238525390625,0.07742717117071152,-0.3286454975605011,-0.34376442432403564
1772571933994074000,3.60907421875,0.09315694868564606,-0.3430008292198181,-0.3075706362724304
1772571934011907800,3.626907958984375,0.11789698898792267,-0.1992947906255722,-0.06383541971445084
1772571934029743000,3.6447431640625,0.1560760736465454,0.033597588539123535,0.24526239931583405
1772571934047573200,3.6625732421875,0.20234911143779755,0.18677204847335815,0.41981714963912964
1772571934065412600,3.68041259765625,0.24572055041790009,0.22602014243602753,0.4225660264492035
1772571934083246000,3.69824609375,0.26481008529663086,0.20295998454093933,0.3149010241031647
1772571934101081600,3.71608154296875,0.2542726695537567,0.16661348938941956,0.16340644657611847
1772571934118915000,3.7339150390625,0.23396138846874237,0.15882496535778046,0.03237585723400116
1772571934136751000,3.751751220703125,0.22388210892677307,0.13820825517177582,-0.06627888232469559
1772571934154581500,3.76958154296875,0.2324342280626297,0.1595885455608368,-0.11759155988693237
1772571934172423700,3.787423583984375,0.23640485107898712,0.20952677726745605,-0.13087788224220276
1772571934190253800,3.80525390625,0.2428189367055893,0.19058994948863983,-0.1498146951198578
1772571934208089000,3.823089111328125,0.24984388053417206,0.14340060949325562,-0.15729780495166779
1772571934225922800,3.8409228515625,0.24678955972194672,0.13118331134319305,-0.13973543047904968
1772571934243758600,3.858758544921875,0.2664899528026581,0.13011430203914642,-0.12003502249717712
1772571934261592000,3.876592041015625,0.347276896238327,0.15317445993423462,-0.1186605766415596
1772571934279427800,3.894427734375,0.45036038756370544,0.19593502581119537,-0.14706580340862274
1772571934297261600,3.912261474609375,0.5050328373908997,0.13637566566467285,-0.1647808998823166
1772571934315097000,3.93009716796875,0.503047525882721,0.04306599870324135,-0.11010845750570297
1772571934332931800,3.947931884765625,0.4190535545349121,0.040164388716220856,-0.032528575509786606
1772571934350765600,3.965765625,0.3205515444278717,0.1722639948129654,0.02076941914856434
1772571934368600000,3.98360009765625,0.30573806166648865,0.3326161205768585,0.006108652334660292
1772571934386435800,4.001435791015625,0.3804163336753845,0.3804163336753845,-0.020922135561704636
1772571934404269300,4.019269287109375,0.471129834651947,0.36819902062416077,-0.011301007121801376
1772571934422103600,4.037103515625,0.5433646440505981,0.31673362851142883,-0.012522737495601177
1772571934439938300,4.054938232421875,0.6009386777877808,0.2744311988353729,-0.08597928285598755
1772571934457761300,4.07276123046875,0.6409503817558289,0.2428189367055893,-0.19532416760921478
1772571934475594000,4.090593994140625,0.6916521787643433,0.2921462953090668,-0.23075434565544128
1772571934493434400,4.108434326171875,0.7615962624549866,0.34697145223617554,-0.15057829022407532
1772571934511279900,4.12627978515625,0.8591819405555725,0.48029279708862305,0.00809396430850029
1772571934529112800,4.14411279296875,0.9416487812995911,0.5403103232383728,0.11621711403131485
1772571934546946300,4.1619462890625,0.9781479835510254,0.44455718994140625,0.11927144229412079
1772571934564781800,4.17978173828125,0.9963212013244629,0.20494529604911804,-0.005803219974040985
1772571934582615800,4.19761572265625,0.9767735004425049,-0.11056660860776901,-0.20097467303276062
1772571934600450000,4.215449951171875,0.8790351152420044,-0.25182920694351196,-0.3397938013076782
1772571934618282000,4.233281982421875,0.7971791625022888,-0.10781771689653397,-0.2796235680580139
1772571934636124000,4.2511240234375,0.8339837789535522,0.206777885556221,-0.03390302136540413
1772571934653954300,4.268954345703125,0.9659306406974792,0.5053382515907288,0.21181751787662506
1772571934671772400,4.2867724609375,1.0780243873596191,0.6388123035430908,0.32986724376678467
1772571934689623000,4.304623046875,1.1207849979400635,0.6378960609436035,0.32788193225860596
1772571934707455000,4.322455078125,1.0997101068496704,0.5279402732849121,0.242513507604599
1772571934725292300,4.340292236328125,1.0563386678695679,0.4095851480960846,0.10552696883678436
1772571934743128000,4.358128173828125,1.0396926403045654,0.3315471112728119,-0.03634648025035858
1772571934760961500,4.37596142578125,1.0627528429031372,0.3173444867134094,-0.17211128771305084
1772571934778797000,4.393797119140625,1.1001683473587036,0.32681289315223694,-0.3173444867134094
1772571934796630500,4.411630615234375,1.147204875946045,0.3211624026298523,-0.4558582007884979
1772571934814466800,4.429466796875,1.147357702255249,0.28435778617858887,-0.5195409059524536
1772571934832300000,4.447300048828125,1.0989465713500977,0.3084869384765625,-0.5044219493865967
1772571934850135600,4.465135498046875,1.0438159704208374,0.4433354437351227,-0.48579058051109314
1772571934867969300,4.48296923828125,1.0126618146896362,0.49235737323760986,-0.47571131587028503
1772571934885805300,4.500805419921875,0.9955576062202454,0.5041165351867676,-0.42760565876960754
1772571934903638500,4.518638427734375,0.988379955291748,0.5140430927276611,-0.35811975598335266
1772571934921474300,4.536474365234375,1.0051788091659546,0.48655417561531067,-0.31673362851142883
1772571934939307500,4.5543076171875,1.0352638959884644,0.43829581141471863,-0.31444287300109863
1772571934957143600,4.5721435546875,1.0603092908859253,0.36224308609962463,-0.308792382478714
1772571934974977300,4.589977294921875,1.0607675313949585,0.26450464129447937,-0.2561052441596985
1772571934992812500,4.6078125,1.0028879642486572,0.20861047506332397,-0.2275473028421402
1772571935010641200,4.62564111328125,0.9199630618095398,0.3045163154602051,-0.22510384023189545
1772571935028481800,4.643481689453125,0.8529205918312073,0.4072943925857544,-0.21624629199504852
1772571935046315500,4.6613154296875,0.8023715019226074,0.3721696436405182,-0.1915062516927719
1772571935064151300,4.6791513671875,0.7652614116668701,0.20784689486026764,-0.15546520054340363
1772571935081984800,4.69698486328125,0.7333437204360962,0.004581489134579897,-0.11820242553949356
1772571935099820300,4.7148203125,0.6881396770477295,-0.128434419631958,-0.09285151958465576
1772571935117650700,4.732650634765625,0.646906316280365,-0.154396191239357,-0.01970040425658226
1772571935135492900,4.750492919921875,0.6210972666740417,-0.07284568250179291,0.12919799983501434
1772571935153323000,4.768322998046875,0.6065891981124878,0.029474247246980667,0.29993483424186707
1772571935171158800,4.78615869140625,0.6336199641227722,0.1385136991739273,0.4492913782596588
1772571935188992300,4.8039921875,0.6747006773948669,0.13775011897087097,0.5019785165786743
1772571935206828000,4.821828125,0.6659958362579346,0.09651670604944229,0.4225660264492035
1772571935224661500,4.83966162109375,0.5777258276939392,0.08277224004268646,0.21853704750537872
1772571935242497300,4.857497314453125,0.44745880365371704,0.09178250283002853,-0.04230241850018501
1772571935260319700,4.87531982421875,0.3478877544403076,0.1186605766415596,-0.2513710558414459
1772571935278166500,4.89316650390625,0.33108896017074585,0.15103642642498016,-0.3020728528499603
1772571935295987500,4.910987548828125,0.4427245855331421,0.32681289315223694,-0.12965615093708038
1772571935313835800,4.928835693359375,0.6386595964431763,0.5777258276939392,0.1690569519996643
1772571935331669200,4.946669189453125,0.8115344643592834,0.6392704844474792,0.41523563861846924
1772571935349504800,4.9645048828125,0.868803083896637,0.5951354503631592,0.5002986192703247
1772571935367339000,4.982339111328125,0.8378016948699951,0.5461135506629944,0.47678032517433167
1772571935385174300,5.00017431640625,0.801913321018219,0.5427537560462952,0.41370847821235657
1772571935403006700,5.0180068359375,0.8060367107391357,0.5287038683891296,0.30970868468284607
1772571935420844300,5.03584423828125,0.8174903988838196,0.4810563921928406,0.16264286637306213
1772571935438676700,5.0536767578125,0.7895433306694031,0.40225476026535034,0.05115996301174164
1772571935456512800,5.0715126953125,0.75105881690979,0.3113885521888733,0.01878410577774048
1772571935474346200,5.08934619140625,0.7024950385093689,0.18585574626922607,0.04596760869026184
1772571935492182000,5.10718212890625,0.6197227835655212,0.12140946835279465,0.08750644326210022
1772571935510015200,5.12501513671875,0.5360342264175415,0.15943582355976105,0.11484266817569733
1772571935527851000,5.14285107421875,0.5115996599197388,0.204487144947052,0.12660181522369385
1772571935545684700,5.160684814453125,0.5195409059524536,0.20586158335208893,0.12431107461452484
1772571935563520300,5.178520263671875,0.5688682794570923,0.20799961686134338,0.13469578325748444
1772571935581354000,5.19635400390625,0.6548475623130798,0.15683965384960175,0.13744467496871948
1772571935599189200,5.214189208984375,0.7370089292526245,0.07284568250179291,0.10522153973579407
1772571935617023200,5.232023193359375,0.7480044960975647,0.0633772686123848,0.05803219974040985
1772571935634858500,5.2498583984375,0.6991352438926697,0.13545936346054077,0.051770828664302826
1772571935652692500,5.2676923828125,0.6835582256317139,0.2047925740480423,0.09651670604944229
1772571935670527700,5.28552783203125,0.7200574278831482,0.1963931769132614,0.15073099732398987
1772571935688361500,5.303361572265625,0.7718282341957092,0.16142113506793976,0.19837848842144012
1772571935706194000,5.32119384765625,0.8028296232223511,0.07925976812839508,0.2200642079114914
1772571935724033500,5.339033447265625,0.7895433306694031,0.019089538604021072,0.18768835067749023
1772571935741854000,5.35685400390625,0.707534670829773,-0.039706241339445114,0.0734565481543541
1772571935759685400,5.374685302734375,0.6099489331245422,-0.031154127791523933,-0.07070764899253845
1772571935777537300,5.392537353515625,0.5464189648628235,0.04948008432984352,-0.19868391752243042
1772571935795369200,5.410369140625,0.5598580241203308,0.242513507604599,-0.23197607696056366
1772571935813205200,5.428205322265625,0.6907358765602112,0.46792277693748474,-0.12079860270023346
1772571935831038200,5.4460380859375,0.7625125646591187,0.41141775250434875,-0.003817907767370343
1772571935848873700,5.463873779296875,0.7238753437995911,0.1869247704744339,-0.023060163483023643
1772571935866707700,5.481707763671875,0.5739079117774963,-0.13011430203914642,-0.22357667982578278
1772571935884543500,5.49954345703125,0.39843684434890747,-0.2886338233947754,-0.42791110277175903
1772571935902377000,5.517376953125,0.2952006161212921,-0.2658790946006775,-0.4657847583293915
1772571935920210200,5.535210205078125,0.35643985867500305,-0.02886338345706463,-0.3045163154602051
1772571935938047700,5.5530478515625,0.6056728959083557,0.3686571717262268,-0.03145955875515938
1772571935955878400,5.57087841796875,0.8955284357070923,0.6239988207817078,0.2171625941991806
1772571935973715500,5.588715576171875,1.0598511695861816,0.5647448897361755,0.33948835730552673
1772571935991552800,5.606552734375,1.0447323322296143,0.31291571259498596,0.3162754774093628
1772571936009385200,5.62438525390625,0.8956811428070068,0.001679879380390048,0.1966986060142517
1772571936027217000,5.642216796875,0.7435756921768188,-0.18020524084568024,0.07376197725534439
1772571936045056300,5.66005615234375,0.702800452709198,-0.20494529604911804,-0.044135015457868576
1772571936062889200,5.67788916015625,0.7243334650993347,-0.13255776464939117,-0.16065755486488342
1772571936080722700,5.69572265625,0.7585419416427612,0.023518312722444534,-0.24495697021484375
1772571936098558200,5.71355810546875,0.761443555355072,0.19868391752243042,-0.2632829248905182
1772571936116392000,5.731391845703125,0.7562511563301086,0.24358251690864563,-0.23655757308006287
1772571936134227700,5.749227783203125,0.7525860071182251,0.19898934662342072,-0.1869247704744339
1772571936152061200,5.767061279296875,0.7115052938461304,0.14752395451068878,-0.12324206531047821
1772571936169896700,5.784896728515625,0.6673702597618103,0.08216137439012527,-0.051770828664302826
1772571936187730200,5.802730224609375,0.6525567770004272,0.03329215571284294,0.019089538604021072
1772571936205566200,5.820566162109375,0.6472117304801941,0.04642575979232788,0.06933320313692093
1772571936223403000,5.838403076171875,0.6362161636352539,0.1160643994808197,0.09758572280406952
1772571936241235200,5.856235107421875,0.6107125282287598,0.17898350954055786,0.10812314599752426
1772571936259068700,5.874068603515625,0.5639813542366028,0.17211128771305084,0.07147123664617538
1772571936276904400,5.891904541015625,0.489608496427536,0.11545353382825851,0.036193765699863434
1772571936294738200,5.90973828125,0.3666718602180481,0.06551529467105865,0.02229658141732216
1772571936312573700,5.92757373046875,0.24984388053417206,0.08628471940755844,0.016340645030140877
1772571936330404000,5.945404052734375,0.18646661937236786,0.0633772686123848,-0.01542434748262167
1772571936348245500,5.96324560546875,0.14233160018920898,0.08429940044879913,-0.04886921867728233
1772571936366076200,5.981076171875,0.07864890247583389,0.20616702735424042,-0.07696902006864548
1772571936383912200,5.998912109375,-0.015882495790719986,0.22968533635139465,-0.10461067408323288
1772571936401742600,6.01674267578125,-0.10949759185314178,0.21868975460529327,-0.11392636597156525
1772571936419580400,6.034580322265625,-0.23228150606155396,0.2565633952617645,-0.07391469180583954
1772571936437414400,6.052414306640625,-0.30604347586631775,0.242513507604599,-0.019394971430301666
1772571936455247400,6.070247314453125,-0.32131510972976685,0.2151772826910019,-0.008246680721640587
1772571936473071900,6.08807177734375,-0.3761402666568756,0.08338310569524765,-0.1293507218360901
1772571936490910700,6.10591064453125,-0.4343251883983612,-0.059864792972803116,-0.33719760179519653
1772571936508753000,6.1237529296875,-0.4349360466003418,-0.17241671681404114,-0.4853324294090271
1772571936526588700,6.141588623046875,-0.36682456731796265,-0.2967278063297272,-0.470671683549881
1772571936544422100,6.159422119140625,-0.28557950258255005,-0.43020185828208923,-0.2886338233947754
1772571936562258000,6.1772578125,-0.23090706765651703,-0.43020185828208923,-0.0377209298312664
1772571936580091400,6.19509130859375,-0.1408044397830963,-0.31093040108680725,0.1408044397830963
1772571936597927000,6.212927001953125,-0.031154127791523933,-0.16142113506793976,0.23548854887485504
1772571936615752400,6.23075244140625,0.023060163483023643,0.01114829070866108,0.3219259977340698
1772571936633596200,6.24859619140625,0.025503624230623245,0.021380282938480377,0.39813143014907837
1772571936651428400,6.266428466796875,0.010995574295520782,-0.06979135423898697,0.4450153410434723
1772571936669267000,6.284266845703125,-0.046273041516542435,-0.1082758679986,0.43188172578811646
1772571936687099400,6.302099365234375,-0.11407908797264099,-0.058948494493961334,0.35582900047302246
1772571936704934400,6.319934326171875,-0.15134187042713165,-0.040164388716220856,0.22876903414726257
1772571936722768400,6.337768310546875,-0.15347988903522491,-0.05161811411380768,0.0988074541091919
1772571936740603400,6.355603271484375,-0.11575896292924881,-0.0024434609804302454,-0.009621127508580685
1772571936758438100,6.373438232421875,-0.055741455405950546,0.035124752670526505,-0.09040805697441101
1772571936776272100,6.391272216796875,0,0.018325956538319588,-0.1264491081237793
1772571936794106400,6.4091064453125,0.0403171069920063,-0.012522737495601177,-0.13775011897087097
1772571936811942400,6.4269423828125,0.062460970133543015,-0.031612277030944824,-0.11224649101495743
1772571936829775600,6.444775634765625,0.03634648025035858,-0.06490442901849747,-0.0705549344420433
1772571936847611100,6.462611083984375,0.015118914656341076,-0.09300423413515091,-0.05406157299876213
1772571936865444900,6.48044482421875,-0.005803219974040985,-0.048105638474226,-0.07070764899253845
1772571936883280400,6.4982802734375,-0.046731192618608475,0.04963280260562897,-0.10262536257505417
1772571936901113900,6.51611376953125,-0.04764748737215996,0.1316414624452591,-0.1235474944114685
1772571936918946000,6.533946044921875,-0.02626720629632473,0.1492038369178772,-0.14034628868103027
1772571936936788200,6.551788330078125,-0.03695734590291977,0.09269879758358002,-0.15622878074645996
1772571936954607400,6.569607421875,-0.04963280260562897,0.04657847434282303,-0.15485434234142303
1772571936972452600,6.58745263671875,-0.04902193695306778,0.06963863968849182,-0.15012013912200928
1772571936990288000,6.605287841796875,-0.04886921867728233,0.13087788224220276,-0.17058411240577698
1772571937008121300,6.623121337890625,-0.018478672951459885,0.206777885556221,-0.1814269721508026
1772571937025957000,6.64095703125,0.022602014243602753,0.21807889640331268,-0.17852537333965302
1772571937043790600,6.65879052734375,0.08185594528913498,0.1944078654050827,-0.15057829022407532
1772571937061614000,6.676614013671875,0.12980885803699493,0.11972958594560623,-0.07971791177988052
1772571937079459800,6.6944599609375,0.13286319375038147,0.03756821155548096,0.04535674303770065
1772571937097295400,6.71229541015625,0.08933904021978378,-0.08399397134780884,0.1615738570690155
1772571937115128800,6.73012890625,0.03573561832308769,-0.15577064454555511,0.2142609804868698
1772571937132963800,6.7479638671875,-0.020005837082862854,-0.1062905490398407,0.192422553896904
1772571937150799400,6.76579931640625,-0.04932736977934837,0.10735956579446793,0.16630806028842926
1772571937168633600,6.783633544921875,-0.04612032696604729,0.3533855378627777,0.15164729952812195
1772571937186467300,6.80146728515625,-0.10201449692249298,0.30695977807044983,0.036651913076639175
1772571937204303000,6.81930322265625,-0.16203200817108154,0.15317445993423462,-0.13836097717285156
1772571937222136800,6.83713671875,-0.21303924918174744,-0.07223481684923172,-0.3504839241504669
1772571937239972000,6.85497216796875,-0.24663683772087097,-0.21731531620025635,-0.5074763298034668
1772571937257805600,6.8728056640625,-0.206777885556221,-0.22067506611347198,-0.5438227653503418
1772571937275641300,6.890641357421875,-0.020005837082862854,-0.1488984078168869,-0.4259257912635803
1772571937293471700,6.9084716796875,0.24892759323120117,-0.08185594528913498,-0.17837265133857727
1772571937311313700,6.926313720703125,0.42699480056762695,-0.11698069423437119,0.07406741380691528
1772571937329143800,6.944143798828125,0.48869219422340393,-0.20830504596233368,0.21533000469207764
1772571937346979600,6.9619794921875,0.4547891616821289,-0.33368512988090515,0.18219055235385895
1772571937364813000,6.97981298828125,0.3315471112728119,-0.3355177342891693,0.042760565876960754
1772571937382648800,6.99764892578125,0.20616702735424042,-0.3026837408542633,-0.14477506279945374
1772571937400482000,7.01548193359375,0.14614951610565186,-0.2551889419555664,-0.2635883390903473
1772571937418317800,7.03331787109375,0.14095716178417206,-0.14187344908714294,-0.25702154636383057
1772571937436151600,7.051151611328125,0.17256943881511688,0.044287730008363724,-0.13408492505550385
1772571937453987300,7.0689873046875,0.19135354459285736,0.23075434565544128,0.035582900047302246
1772571937471808300,7.086808349609375,0.18295414745807648,0.33505958318710327,0.14324790239334106
1772571937489656300,7.10465625,0.16920967400074005,0.38957929611206055,0.1417207419872284
1772571937507485200,7.122485107421875,0.15195272862911224,0.399200439453125,0.05543602257966995
1772571937525313000,7.14031298828125,0.12629638612270355,0.31154128909111023,-0.041691552847623825
1772571937543160300,7.158160400390625,0.12186761945486069,0.128434419631958,-0.0780380368232727
1772571937560983300,7.1759833984375,0.11468994617462158,-0.09239336848258972,-0.0858265683054924
1772571937578827800,7.193827880859375,0.06536258012056351,-0.24236078560352325,-0.10094548016786575
1772571937596657200,7.2116572265625,-0.03787364438176155,-0.289244681596756,-0.11636982858181
1772571937614497300,7.229497314453125,-0.14706580340862274,-0.24862214922904968,-0.1443169116973877
1772571937632333000,7.2473330078125,-0.2226603776216507,-0.26511552929878235,-0.24572055041790009
1772571937650166300,7.265166259765625,-0.25442537665367126,-0.26939156651496887,-0.3113885521888733
1772571937668001800,7.283001708984375,-0.2695443034172058,-0.24388794600963593,-0.2571742534637451
1772571937685835800,7.300835693359375,-0.299476683139801,-0.2603813111782074,-0.18341228365898132
1772571937703671300,7.31867138671875,-0.3019201457500458,-0.08429940044879913,-0.09498954564332962
1772571937721506000,7.336506103515625,-0.28130343556404114,0.098502017557621,-0.07559457421302795
1772571937739339300,7.35433935546875,-0.29168814420700073,0.2600758671760559,-0.12797626852989197
1772571937757171000,7.3721708984375,-0.2958115041255951,0.42180246114730835,-0.13316862285137177
1772571937775012900,7.390012939453125,-0.2863430976867676,0.3591887652873993,-0.10247264802455902
1772571937792840000,7.40783984375,-0.2561052441596985,0.25503623485565186,-0.009010262787342072
1772571937810666500,7.42566650390625,-0.2977968156337738,0.048258353024721146,0.10506882518529892
1772571937828512000,7.443511962890625,-0.40851613879203796,-0.18325957655906677,0.17501288652420044
1772571937846347800,7.46134765625,-0.4963280260562897,-0.21930062770843506,0.12018773704767227
1772571937864181500,7.479181396484375,-0.5309945940971375,-0.12140946835279465,-0.03756821155548096
1772571937882017000,7.49701708984375,-0.5085453391075134,-0.03878994286060333,-0.19822576642036438
1772571937899850200,7.514850341796875,-0.4384485185146332,0.05100724846124649,-0.2782491147518158
1772571937917686300,7.532686279296875,-0.3675881624221802,0.11514809727668762,-0.27550023794174194
1772571937935519700,7.550519775390625,-0.289244681596756,0.20433442294597626,-0.14126259088516235
1772571937953355300,7.568355224609375,-0.21838432550430298,0.21991148591041565,0.08903361111879349
1772571937971190300,7.586190185546875,-0.1837177276611328,0.1212567538022995,0.3199406862258911
1772571937989023000,7.60402294921875,-0.17989981174468994,0.021074850112199783,0.4810563921928406
1772571938006858200,7.621858154296875,-0.1765400618314743,-0.10980302840471268,0.5458080768585205
1772571938024690200,7.639690185546875,-0.1869247704744339,-0.21960605680942535,0.5406157374382019
1772571938042527200,7.65752734375,-0.22586742043495178,-0.2399173229932785,0.504574716091156
1772571938060366300,7.675366455078125,-0.28817567229270935,-0.13545936346054077,0.40256020426750183
1772571938078196000,7.693196044921875,-0.3741549551486969,0.006108652334660292,0.26511552929878235
1772571938096032000,7.711031982421875,-0.44577890634536743,0.18707747757434845,0.16081027686595917
1772571938113865500,7.728865478515625,-0.47448956966400146,0.22098049521446228,0.057879481464624405
1772571938131701200,7.746701171875,-0.46639561653137207,0.1388191282749176,-0.009926560334861279
1772571938149534500,7.764534423828125,-0.432034432888031,0.055741455405950546,-0.018478672951459885
1772571938167370500,7.78237060546875,-0.3998112976551056,0.003054326167330146,0.007788531947880983
1772571938185203700,7.80020361328125,-0.3672827184200287,-0.1215621829032898,0.02535090781748295
1772571938203038200,7.8180380859375,-0.33475416898727417,-0.22617286443710327,0.059406645596027374
1772571938220871200,7.83587109375,-0.30024027824401855,-0.16584990918636322,0.11988230794668198
1772571938238711300,7.853711181640625,-0.24297164380550385,-0.039095375686883926,0.14065171778202057
1772571938256539000,7.871538818359375,-0.17592918872833252,0.06887505948543549,0.10705413669347763
1772571938274380800,7.889380859375,-0.11698069423437119,0.07987063378095627,0.03680463135242462
1772571938292212500,7.90721240234375,-0.08475755155086517,0.07177666574716568,0.013286318629980087
1772571938310045400,7.92504541015625,-0.08368854224681854,0.07727445662021637,0.03649919852614403
1772571938327880200,7.942880126953125,-0.07467827945947647,0.014508049935102463,0.044135015457868576
1772571938345715700,7.9607158203125,-0.04566217586398125,-0.04444044828414917,0.034666601568460464
1772571938363549200,7.978549072265625,0.03451388701796532,-0.04841107130050659,0.040164388716220856
1772571938381385200,7.99638525390625,0.16019940376281738,-0.0757472887635231,0.10094548016786575
1772571938399218400,8.014218505859375,0.25595253705978394,-0.2376265823841095,0.17776179313659668
1772571938417054500,8.032054443359375,0.20906862616539001,-0.43279802799224854,0.1589776873588562
1772571938434887700,8.0498876953125,0.060322944074869156,-0.43676865100860596,0.06719517707824707
1772571938452723500,8.067723388671874,-0.05421429127454758,-0.14752395451068878,0.038637228310108185
1772571938470542600,8.08554248046875,0.0074830991216003895,0.19792033731937408,0.11133018881082535
1772571938488383200,8.10338330078125,0.10262536257505417,0.08827003091573715,0.14844025671482086
1772571938506227500,8.1212275390625,0.11621711403131485,-0.14217889308929443,0.11820242553949356
1772571938524063500,8.1390634765625,0.04108068719506264,-0.42562034726142883,0.022143865004181862
1772571938541895200,8.156895263671874,-0.11743884533643723,-0.5410739183425903,-0.1108720451593399
1772571938559730700,8.174730712890625,-0.29733866453170776,-0.45494189858436584,-0.21853704750537872
1772571938577552400,8.192552490234375,-0.4082106947898865,-0.2376265823841095,-0.17699819803237915
1772571938595400000,8.21039990234375,-0.36682456731796265,-0.02687807008624077,0.01725694350898266
1772571938613233700,8.228233642578125,-0.19486601650714874,0.1134682223200798,0.23426681756973267
1772571938631069200,8.246069091796874,-0.09269879758358002,0.13041973114013672,0.375071257352829
1772571938648902700,8.263902587890625,-0.08292495459318161,0.07391469180583954,0.39843684434890747
1772571938666738000,8.281738037109376,-0.12751811742782593,0.05161811411380768,0.2587014436721802
1772571938684571400,8.2995712890625,-0.13484850525856018,0.16722436249256134,0.009010262787342072
1772571938702407400,8.317407470703126,-0.19944749772548676,0.2941316068172455,-0.031612277030944824
1772571938720240600,8.33524072265625,-0.27290403842926025,-0.11713340878486633,-0.0988074541091919
1772571938738076200,8.353076171875,-0.24098633229732513,-0.4066835343837738,-0.24068090319633484
1772571938755910000,8.370909912109376,-0.2742784917354584,-0.4210388660430908,-0.3764457106590271
1772571938773745400,8.388745361328125,-0.3597996234893799,-0.21319197118282318,-0.4590652287006378
1772571938791579100,8.4065791015625,-0.4521929919719696,0.055283304303884506,-0.48090365529060364
1772571938809414700,8.42441455078125,-0.5206099152565002,0.13576480746269226,-0.48166725039482117
1772571938827244800,8.442244873046874,-0.5842925906181335,0.06444628536701202,-0.36651915311813354
