time,seconds_elapsed,z,y,x
1772570922988015600,0.314015625,-0.048740386962890625,0.0011785514652729034,-0.002066493034362793
1772570923005850600,0.3318505859375,-0.04703521728515625,-0.0023911669850349426,0.0006616711616516113
1772570923023686100,0.34968603515625,-0.0438690185546875,0.0016437731683254242,-0.0026772618293762207
1772570923041520600,0.367520751953125,-0.04516792297363281,-0.0006075799465179443,-0.006280690431594849
1772570923059356200,0.385356201171875,-0.04244041442871094,-0.002759285271167755,-0.0009798407554626465
1772570923077177300,0.40317724609375,-0.036174774169921875,-0.002186402678489685,0.0015371441841125488
1772570923095014100,0.42101416015625,-0.04106616973876953,-0.00018167123198509216,0.0033726096153259277
1772570923112850400,0.438850341796875,-0.044089317321777344,-0.000430818647146225,0.0015407204627990723
1772570923130691300,0.45669140625,-0.0404815673828125,0.003154490143060684,-0.004680603742599487
1772570923148529000,0.47452880859375,-0.04755878448486328,-0.004465758800506592,-0.0029222965240478516
1772570923166370600,0.49237060546875,-0.03986549377441406,0.00011196359992027283,0.0022280216217041016
1772570923184202500,0.510202392578125,-0.04569435119628906,0.004385087639093399,-0.005647867918014526
1772570923202037800,0.528037841796875,-0.050637245178222656,0.0007721260190010071,-0.0009807944297790527
1772570923219872800,0.545872802734375,-0.048465728759765625,-0.002580266445875168,0.0020799636840820312
1772570923237707500,0.56370751953125,-0.05105400085449219,0.000456739217042923,-0.0039344727993011475
1772570923255543000,0.58154296875,-0.043804168701171875,-0.0064103566110134125,-0.0020302534103393555
1772570923273378300,0.59937841796875,-0.04221630096435547,-0.012761346995830536,0.0004760622978210449
1772570923291213300,0.61721337890625,-0.04197406768798828,0.00007631629705429077,-0.0003458857536315918
1772570923309048300,0.63504833984375,-0.041930198669433594,0.0031484775245189667,0.0063967108726501465
1772570923326881300,0.65288134765625,-0.04597663879394531,-0.003494948148727417,-0.005578577518463135
1772570923344722400,0.670722412109375,-0.049513816833496094,-0.0003308691084384918,-0.0015364885330200195
1772570923362554000,0.68855419921875,-0.045345306396484375,0.000018071383237838745,-0.0025705695152282715
1772570923380389000,0.70638916015625,-0.03773784637451172,-0.009073454886674881,0.0003669857978820801
1772570923398224400,0.724224365234375,-0.05233478546142578,0.0018625594675540924,-0.004597723484039307
1772570923416059400,0.742059326171875,-0.04578590393066406,-0.0004207007586956024,0.0007712244987487793
1772570923433894700,0.759894775390625,-0.046578407287597656,0.0021766051650047302,-0.006109744310379028
1772570923451730000,0.77772998046875,-0.04489612579345703,-0.005461480468511581,-0.003374934196472168
1772570923469565400,0.7955654296875,-0.044638633728027344,-0.006701987236738205,-0.0019082427024841309
1772570923487400400,0.813400390625,-0.043473243713378906,-0.0040135569870471954,-0.0037332773208618164
1772570923505235700,0.831235595703125,-0.041011810302734375,-0.00549677386879921,-0.0030624866485595703
1772570923523071000,0.849071044921875,-0.04291248321533203,-0.006841305643320084,-0.00234067440032959
1772570923540906000,0.866906005859375,-0.044327735900878906,-0.0047755055129528046,-0.0012987852096557617
1772570923558741000,0.884740966796875,-0.047461509704589844,-0.0055993422865867615,-0.00007832050323486328
1772570923576576300,0.902576171875,-0.04613494873046875,-0.0018793679773807526,0.0016419291496276855
1772570923594411300,0.920411376953125,-0.040726661682128906,-0.007088899612426758,-0.004117250442504883
1772570923612246500,0.93824658203125,-0.041052818298339844,-0.0032292865216732025,-0.004848659038543701
1772570923630082000,0.95608203125,-0.042885780334472656,-0.0015055648982524872,-0.0038901567459106445
1772570923647917000,0.9739169921875,-0.044943809509277344,0.0027652420103549957,0.002003192901611328
1772570923665752000,0.991751953125,-0.04639148712158203,-0.0023253299295902252,-0.004126787185668945
1772570923683587300,1.00958740234375,-0.040749549865722656,-0.004197988659143448,-0.006448835134506226
1772570923701422600,1.027422607421875,-0.0340576171875,-0.010383203625679016,-0.005461513996124268
1772570923719257900,1.0452578125,-0.04360771179199219,0.0026039183139801025,-0.004091441631317139
1772570923737089500,1.063089599609375,-0.04034614562988281,-0.0036524608731269836,-0.006067037582397461
1772570923754926800,1.0809267578125,-0.039859771728515625,-0.002911970019340515,0.005961000919342041
1772570923772767200,1.098767333984375,-0.04385185241699219,-0.002785414457321167,0.00022834539413452148
1772570923790595800,1.116595947265625,-0.03991222381591797,-0.0015810951590538025,-0.005745559930801392
1772570923808436200,1.134436279296875,-0.04385852813720703,-0.0054613687098026276,-0.002062082290649414
1772570923826266000,1.15226611328125,-0.04397392272949219,-0.0019377395510673523,-0.010151028633117676
1772570923844106500,1.1701064453125,-0.04335308074951172,0.0015101805329322815,-0.004191279411315918
1772570923861938700,1.187938720703125,-0.04261016845703125,0.00039881467819213867,-0.0014812946319580078
1772570923879774000,1.20577392578125,-0.03907489776611328,-0.00910712406039238,-0.0030785799026489258
1772570923897609000,1.22360888671875,-0.03969287872314453,-0.0025294050574302673,-0.004156768321990967
1772570923915444000,1.24144384765625,-0.04093456268310547,-0.001517314463853836,0.0011044740676879883
1772570923933279500,1.259279541015625,-0.045823097229003906,0.000365186482667923,-0.003497779369354248
1772570923951114800,1.27711474609375,-0.04364013671875,-0.00005326792597770691,-0.00010824203491210938
1772570923968949500,1.294949462890625,-0.04622650146484375,-0.008382625877857208,-0.0008402466773986816
1772570923986785000,1.312784912109375,-0.04370594024658203,-0.007884573191404343,-0.0007216930389404297
1772570924004620300,1.330620361328125,-0.04445457458496094,-0.0008056685328483582,-0.003767073154449463
1772570924022455300,1.348455322265625,-0.053330421447753906,-0.0016355551779270172,-0.011406183242797852
1772570924040290600,1.36629052734375,-0.04589653015136719,-0.008457649499177933,-0.00570341944694519
1772570924058125800,1.384125732421875,-0.036643028259277344,-0.0023826435208320618,-0.0008622407913208008
1772570924075960800,1.4019609375,-0.03816413879394531,-0.0024681761860847473,-0.00022023916244506836
1772570924093796000,1.419796142578125,-0.04245758056640625,-0.0013735294342041016,-0.00010699033737182617
1772570924111631400,1.43763134765625,-0.0460357666015625,-0.002349991351366043,-0.0029060840606689453
1772570924129465900,1.4554658203125,-0.040724754333496094,0.0008044056594371796,-0.00453495979309082
1772570924147301400,1.47330126953125,-0.043979644775390625,-0.0036919154226779938,-0.0019555091857910156
1772570924165136400,1.491136474609375,-0.043326377868652344,-0.0037621967494487762,-0.0017082691192626953
1772570924182972000,1.508971923828125,-0.04388236999511719,-0.0016012042760849,-0.002189338207244873
1772570924200807000,1.526806884765625,-0.033402442932128906,0.0003444664180278778,-0.0057942867279052734
1772570924218642000,1.544641845703125,-0.040596961975097656,0.0031235404312610626,-0.006810367107391357
1772570924236477200,1.562477294921875,-0.04281806945800781,-0.0017503276467323303,-0.005307018756866455
1772570924254309600,1.5803095703125,-0.039092063903808594,-0.002525247633457184,-0.005061686038970947
1772570924272151000,1.598151123046875,-0.040314674377441406,-0.0026877373456954956,-0.003237128257751465
1772570924289982500,1.615982421875,-0.035782814025878906,-0.004436437040567398,-0.0059896111488342285
1772570924307818200,1.633818359375,-0.03803062438964844,0.0004800334572792053,0.0007549524307250977
1772570924325653200,1.6516533203125,-0.04422283172607422,-0.003051888197660446,-0.00512540340423584
1772570924343488300,1.66948828125,-0.04288959503173828,-0.0017699487507343292,-0.0029997825622558594
1772570924361323300,1.6873232421875,-0.043182373046875,0.0012371763586997986,-0.0013967156410217285
1772570924379158300,1.705158203125,-0.044381141662597656,0.004685480147600174,-0.0067039430141448975
1772570924396981000,1.72298095703125,-0.04050922393798828,0.0024831295013427734,0.001428365707397461
1772570924414828800,1.740828857421875,-0.04641437530517578,-0.002706903964281082,0.002518296241760254
1772570924432663800,1.758663818359375,-0.04259204864501953,-0.001637771725654602,0.0037277936935424805
1772570924450499300,1.776499267578125,-0.039093017578125,-0.0015400350093841553,-0.007712036371231079
1772570924468334600,1.79433447265625,-0.041484832763671875,-0.0014158077538013458,-0.011773228645324707
1772570924486169900,1.812169921875,-0.035996437072753906,-0.004332263022661209,-0.004309415817260742
1772570924504004900,1.8300048828125,-0.034514427185058594,0.003992203623056412,-0.004360795021057129
1772570924521840400,1.84784033203125,-0.04599475860595703,0.0005374401807785034,-0.00014019012451171875
1772570924539675100,1.865675048828125,-0.04188251495361328,-0.00004176795482635498,-0.0006633996963500977
1772570924557510400,1.883510498046875,-0.04304981231689453,-0.003105655312538147,0.001584768295288086
1772570924575345700,1.901345703125,-0.03737354278564453,-0.001933414489030838,0.0007250308990478516
1772570924593180700,1.9191806640625,-0.04058837890625,-0.002932954579591751,-0.0021061301231384277
1772570924611015400,1.937015380859375,-0.032947540283203125,0.0010890886187553406,0.00030308961868286133
1772570924628850400,1.954850341796875,-0.04283905029296875,-0.004111189395189285,0.0035965442657470703
1772570924646686500,1.9726865234375,-0.036217689514160156,-0.0002527758479118347,-0.0027823448181152344
1772570924664521200,1.990521240234375,-0.03814697265625,-0.0003077797591686249,-0.0006802678108215332
1772570924682357000,2.00835693359375,-0.036665916442871094,0.004968907684087753,0.0028017759323120117
1772570924700191200,2.026191162109375,-0.031243324279785156,-0.0069606713950634,0.0026910901069641113
1772570924718026500,2.044026611328125,-0.04146385192871094,-0.005315471440553665,0.004342377185821533
1772570924735861800,2.06186181640625,-0.038962364196777344,-0.009056616574525833,0.0030861496925354004
1772570924753697300,2.079697265625,-0.039711952209472656,-0.007848426699638367,0.004479467868804932
1772570924771531800,2.09753173828125,-0.04160785675048828,-0.003602132201194763,-0.0005913376808166504
1772570924789367800,2.115367919921875,-0.036696434020996094,0.000150289386510849,-0.0008539557456970215
1772570924807203000,2.133203125,-0.041153907775878906,-0.0053802840411663055,-0.001328885555267334
1772570924825038000,2.1510380859375,-0.037772178649902344,-0.002035975456237793,0.000971376895904541
1772570924842866700,2.16886669921875,-0.03075122833251953,0.0006075203418731689,-0.0018336772918701172
1772570924860701700,2.18670166015625,-0.04318523406982422,-0.00807800143957138,-0.003148674964904785
1772570924878543400,2.20454345703125,-0.04913616180419922,-0.006475165486335754,-0.0032186508178710938
1772570924896362800,2.22236279296875,-0.04012489318847656,-0.002173304557800293,-0.0009788870811462402
1772570924914214000,2.2402138671875,-0.040561676025390625,0.0015035495162010193,-0.0015102028846740723
1772570924932037400,2.258037353515625,-0.03298377990722656,0.005123574286699295,-0.0040638744831085205
1772570924949884000,2.2758837890625,-0.037689208984375,-0.000041406601667404175,-0.007292807102203369
1772570924967719200,2.29371923828125,-0.03661155700683594,-0.0028059519827365875,0.004985153675079346
1772570924985554400,2.311554443359375,-0.041153907775878906,0.0032395683228969574,-0.0020269155502319336
1772570925003389400,2.329389404296875,-0.03485298156738281,-0.0035663992166519165,-0.006045103073120117
1772570925021224700,2.347224609375,-0.04380989074707031,-0.002794526517391205,-0.0037196874618530273
1772570925039059700,2.365059814453125,-0.0381927490234375,-0.0014279037714004517,-0.00017875432968139648
1772570925056895200,2.382895263671875,-0.03847694396972656,0.0017231255769729614,-0.0026584267616271973
1772570925074727400,2.4007275390625,-0.037872314453125,0.0003500916063785553,-0.0011858344078063965
1772570925092564700,2.418564697265625,-0.031444549560546875,-0.005800437182188034,-0.005678415298461914
1772570925110403800,2.43640380859375,-0.029311180114746094,-0.003733299672603607,-0.0039130449295043945
1772570925128234500,2.454234375,-0.03306007385253906,-0.0029498375952243805,-0.0034107565879821777
1772570925146071600,2.472071533203125,-0.03769397735595703,-0.0016707032918930054,-0.0055239200592041016
1772570925163905800,2.48990576171875,-0.03725624084472656,0.006737913936376572,-0.0013097524642944336
1772570925181741300,2.5077412109375,-0.03426933288574219,-0.0001278221607208252,0.0011655688285827637
1772570925199572200,2.525572265625,-0.037880897521972656,-0.0017086528241634369,-0.0006898641586303711
1772570925217415200,2.543415283203125,-0.04540824890136719,0.0005208030343055725,-0.004007130861282349
1772570925235246600,2.56124658203125,-0.03843498229980469,0.005877818912267685,-0.0013554692268371582
1772570925253081300,2.579081298828125,-0.03964805603027344,-0.0032019689679145813,-0.005799651145935059
1772570925270917000,2.596917236328125,-0.040480613708496094,-0.002346981316804886,-0.0023947954177856445
1772570925288739600,2.614739501953125,-0.03654003143310547,-0.003150627017021179,-0.0019859671592712402
1772570925306587600,2.632587646484375,-0.03937530517578125,0.00009997561573982239,-0.0015485286712646484
1772570925324419300,2.65041943359375,-0.04158592224121094,0.0048087723553180695,-0.0016037821769714355
1772570925342260700,2.6682607421875,-0.04193115234375,-0.003329109400510788,-0.001402437686920166
1772570925360092700,2.6860927734375,-0.03791618347167969,-0.006938192993402481,-0.0037413835525512695
1772570925377928200,2.70392822265625,-0.0325927734375,-0.006559751927852631,0.00099104642868042
1772570925395763000,2.721762939453125,-0.03876304626464844,-0.0011897124350070953,0.0004124641418457031
1772570925413598200,2.73959814453125,-0.04149055480957031,-0.001440923660993576,-0.003127455711364746
1772570925431433500,2.75743359375,-0.031975746154785156,-0.00024743005633354187,0.004755675792694092
1772570925449268500,2.7752685546875,-0.035241127014160156,0.0026286765933036804,0.002950608730316162
1772570925467103700,2.793103759765625,-0.038010597229003906,-0.003712151199579239,0.002189338207244873
1772570925484939000,2.81093896484375,-0.03550148010253906,-0.002855610102415085,-0.0016169548034667969
1772570925502774500,2.8287744140625,-0.03917503356933594,0.001368112862110138,-0.005268216133117676
1772570925520609500,2.846609619140625,-0.04737091064453125,-0.002224031835794449,-0.005049794912338257
1772570925538444300,2.8644443359375,-0.042118072509765625,-0.004479970782995224,-0.0026620030403137207
1772570925556275500,2.882275390625,-0.048956871032714844,-0.004832293838262558,-0.0005431771278381348
1772570925574119200,2.900119140625,-0.04413032531738281,-0.0007723122835159302,-0.0005022287368774414
1772570925591950000,2.9179501953125,-0.040465354919433594,-0.00022986531257629395,-0.005387008190155029
1772570925609785000,2.93578515625,-0.03992748260498047,-0.0007911361753940582,-0.009190559387207031
1772570925627620400,2.953620361328125,-0.041632652282714844,-0.0046387240290641785,-0.0016508102416992188
1772570925645455400,2.971455322265625,-0.04239177703857422,-0.002010684460401535,-0.003559410572052002
1772570925663290600,2.98929052734375,-0.03893852233886719,-0.00027436017990112305,0.003243863582611084
1772570925681126000,3.0071259765625,-0.04297637939453125,-0.0005672052502632141,-0.0006258487701416016
1772570925698961000,3.0249609375,-0.039681434631347656,0.00021848827600479126,-0.00028437376022338867
1772570925716796000,3.0427958984375,-0.03867912292480469,0.0005768463015556335,0.0009572505950927734
1772570925734631400,3.06063134765625,-0.03919696807861328,0.0006689280271530151,0.00040477514266967773
1772570925752467000,3.078467041015625,-0.041538238525390625,0.004026815295219421,-0.0028378963470458984
1772570925770301400,3.096301513671875,-0.037830352783203125,0.00341140478849411,0.001878201961517334
1772570925788137200,3.11413720703125,-0.04246807098388672,0.002183210104703903,0.0014389753341674805
1772570925805972200,3.13197216796875,-0.040233612060546875,-0.003903266042470932,0.000008702278137207031
1772570925823807200,3.14980712890625,-0.041680335998535156,-0.003090720623731613,0.002031266689300537
1772570925841642500,3.167642578125,-0.04369544982910156,-0.004908151924610138,-0.0008652210235595703
1772570925859477800,3.185477783203125,-0.04450702667236328,0.0007873326539993286,-0.002758920192718506
1772570925877313000,3.20331298828125,-0.03913688659667969,0.0008080676198005676,0.0008378028869628906
1772570925895148000,3.22114794921875,-0.043791770935058594,-0.008362624794244766,-0.005914807319641113
1772570925912976000,3.238975830078125,-0.04628181457519531,-0.0037899985909461975,-0.004027247428894043
1772570925930818000,3.256818115234375,-0.04486370086669922,-0.0019319653511047363,-0.0027664899826049805
1772570925948653800,3.27465380859375,-0.04351520538330078,-0.003504723310470581,-0.003644883632659912
1772570925966488300,3.29248828125,-0.03746223449707031,-0.0018381960690021515,-0.0037965476512908936
1772570925984323600,3.310323486328125,-0.04709911346435547,-0.0005151368677616119,0.003040909767150879
1772570926002158800,3.328158935546875,-0.046111106872558594,-0.005396418273448944,-0.004901528358459473
1772570926019993900,3.345993896484375,-0.04967212677001953,-0.002245016396045685,-0.005537271499633789
1772570926037828900,3.363828857421875,-0.04728221893310547,-0.001440729945898056,0.0005966424942016602
1772570926055649000,3.38164892578125,-0.037384033203125,-0.0010834485292434692,-0.0005866289138793945
1772570926073502700,3.399502685546875,-0.04057598114013672,-0.007910147309303284,-0.006643533706665039
1772570926091334700,3.417334716796875,-0.04171180725097656,-0.006617162376642227,-0.00161820650100708
1772570926109170000,3.435169921875,-0.04008293151855469,-0.002337951213121414,0.0029573440551757812
1772570926127005200,3.453005126953125,-0.04355144500732422,-0.008811265230178833,-0.0004450678825378418
1772570926144840400,3.47084033203125,-0.047354698181152344,-0.005768999457359314,0.0003313422203063965
1772570926162660600,3.48866064453125,-0.039816856384277344,-0.004020616412162781,-0.005218207836151123
1772570926180510500,3.506510498046875,-0.04274749755859375,-0.00199807807803154,-0.005883157253265381
1772570926198345500,3.524345458984375,-0.036853790283203125,0.001278892159461975,-0.0071059465408325195
1772570926216168400,3.54216845703125,-0.03823661804199219,-0.006302636116743088,-0.00032699108123779297
1772570926234018300,3.560018310546875,-0.05014228820800781,0.0036888904869556427,0.00474017858505249
1772570926251851300,3.577851318359375,-0.046581268310546875,-0.006623212248086929,-0.007383167743682861
1772570926269686500,3.5956865234375,-0.04847526550292969,-0.00345446914434433,-0.0034258365631103516
1772570926287521800,3.613521728515625,-0.051029205322265625,-0.006876494735479355,-0.005261838436126709
1772570926305357000,3.631357177734375,-0.04555702209472656,-0.0022223666310310364,0.000592350959777832
1772570926323192300,3.6491923828125,-0.04879283905029297,-0.0034658312797546387,0.00041216611862182617
1772570926341027300,3.66702734375,-0.045235633850097656,-0.00605430081486702,-0.00045418739318847656
1772570926358862600,3.684862548828125,-0.04761219024658203,-0.0024737752974033356,-0.0007530450820922852
1772570926376697900,3.70269775390625,-0.04211616516113281,-0.0007206648588180542,-0.005011916160583496
1772570926394532900,3.720532958984375,-0.04599189758300781,-0.00030636414885520935,-0.0034743547439575195
1772570926412368000,3.738367919921875,-0.04073524475097656,0.00151168555021286,-0.0013445019721984863
1772570926430203100,3.756203125,-0.04692649841308594,0.0017294883728027344,-0.0039185285568237305
1772570926448038100,3.7740380859375,-0.04785442352294922,0.0030087530612945557,-0.00334930419921875
1772570926465873200,3.791873046875,-0.056128501892089844,-0.005423702299594879,-0.006010293960571289
1772570926483708400,3.80970849609375,-0.04340362548828125,-0.00314943864941597,0.0011281371116638184
1772570926501543700,3.827543701171875,-0.044399261474609375,-0.0018286928534507751,-0.0025582313537597656
1772570926519379000,3.84537890625,-0.03935813903808594,-0.0017201080918312073,-0.0018213987350463867
1772570926537214000,3.8632138671875,-0.048503875732421875,-0.000657547265291214,-0.00174635648727417
1772570926555049200,3.88104931640625,-0.045833587646484375,0.0014110654592514038,-0.0009393095970153809
1772570926572884700,3.898884765625,-0.042511940002441406,0.0015992708504199982,0.00044149160385131836
1772570926590719700,3.9167197265625,-0.04833507537841797,-0.0011211633682250977,0.0004513859748840332
1772570926608554800,3.9345546875,-0.042891502380371094,-0.004483312368392944,0.0006763339042663574
1772570926626390000,3.95239013671875,-0.051326751708984375,-0.002993181347846985,-0.0033930540084838867
1772570926644228900,3.970228759765625,-0.044467926025390625,-0.005932405591011047,-0.003095090389251709
1772570926662051600,3.988051513671875,-0.046352386474609375,-0.0023876242339611053,0.0009742379188537598
1772570926679895600,4.0058955078125,-0.05135917663574219,-0.00243382528424263,-0.001612544059753418
1772570926697730600,4.02373046875,-0.04854583740234375,-0.007589500397443771,-0.004861354827880859
1772570926715565800,4.04156591796875,-0.04520702362060547,-0.003558862954378128,-0.0040277838706970215
1772570926733400800,4.05940087890625,-0.041118621826171875,-0.0015673786401748657,-0.006374478340148926
1772570926751236400,4.077236328125,-0.045212745666503906,-0.005410339683294296,-0.008496403694152832
1772570926769071000,4.095071044921875,-0.04941368103027344,-0.0018173493444919586,0.000586390495300293
1772570926786906600,4.11290673828125,-0.053444862365722656,-0.0013920031487941742,0.0016521811485290527
1772570926804741600,4.13074169921875,-0.05356788635253906,-0.005371946841478348,-0.0022186636924743652
1772570926822577000,4.148576904296875,-0.04480743408203125,-0.00013711676001548767,0.0058394670486450195
1772570926840412000,4.166411865234375,-0.04755878448486328,-0.003942061215639114,-0.0043620765209198
1772570926858247200,4.1842470703125,-0.047962188720703125,-0.0005342140793800354,-0.0014081001281738281
1772570926876082200,4.202082275390625,-0.04282855987548828,-0.002876129001379013,-0.0015453100204467773
1772570926893917700,4.219917724609375,-0.046619415283203125,-0.0014560557901859283,-0.00234907865524292
1772570926911752400,4.23775244140625,-0.050113677978515625,-0.0013005323708057404,0.0026535391807556152
1772570926929587500,4.25558740234375,-0.04544258117675781,-0.002348843961954117,-0.001799941062927246
1772570926947422700,4.273422607421875,-0.05058574676513672,-0.0015421584248542786,0.0011367201805114746
1772570926965258000,4.291258056640625,-0.04777240753173828,-0.006150797009468079,0.0017240643501281738
1772570926983093200,4.30909326171875,-0.041011810302734375,0.00020565465092658997,-0.00042247772216796875
1772570927000928300,4.32692822265625,-0.044712066650390625,-0.00387762114405632,-0.007513821125030518
1772570927018763300,4.34476318359375,-0.043480873107910156,0.0042967237532138824,0.0018569231033325195
1772570927036598500,4.3625986328125,-0.049622535705566406,-0.00043277814984321594,-0.0009427070617675781
1772570927054434000,4.38043408203125,-0.052336692810058594,-0.00004730746150016785,-0.000264585018157959
1772570927072268800,4.398268798828125,-0.044646263122558594,-0.0023592859506607056,-0.0021465420722961426
1772570927090103800,4.416103759765625,-0.045742034912109375,-0.0015057027339935303,-0.002711474895477295
1772570927107939600,4.433939697265625,-0.042975425720214844,-0.002411138266324997,-0.0034677982330322266
1772570927125774300,4.4517744140625,-0.04498577117919922,-0.00045444443821907043,-0.00030362606048583984
1772570927143609900,4.46960986328125,-0.046423912048339844,0.00002407655119895935,-0.0021852850914001465
1772570927161439700,4.487439697265625,-0.04842662811279297,-0.002201475203037262,-0.003158390522003174
1772570927179280000,4.50527978515625,-0.053284645080566406,-0.0013481713831424713,-0.0014095902442932129
1772570927197115400,4.523115478515625,-0.049480438232421875,-0.002304714173078537,-0.006144434213638306
1772570927214950400,4.540950439453125,-0.05704212188720703,-0.0012711696326732635,0.0023105740547180176
1772570927232785400,4.558785400390625,-0.04648113250732422,-0.0011259503662586212,-0.0009143352508544922
1772570927250620400,4.576620361328125,-0.04601573944091797,-0.002296052873134613,-0.0026322007179260254
1772570927268453000,4.594453125,-0.052926063537597656,-0.0024663135409355164,-0.00525665283203125
1772570927286293800,4.612293701171875,-0.051695823669433594,-0.004119958728551865,-0.008609414100646973
1772570927304126000,4.6301259765625,-0.05265331268310547,-0.004392851144075394,-0.0038052797317504883
1772570927321961200,4.647961181640625,-0.05458545684814453,-0.0015105083584785461,-0.00012475252151489258
1772570927339796200,4.665796142578125,-0.04903888702392578,-0.0008089542388916016,-0.002342402935028076
1772570927357630200,4.683630126953125,-0.052276611328125,-0.0031222887337207794,-0.005305171012878418
1772570927375468000,4.701468017578125,-0.052753448486328125,-0.006920505315065384,-0.0013098716735839844
1772570927393299500,4.719299560546875,-0.04876518249511719,-0.002743259072303772,0.0004566311836242676
1772570927411139000,4.73713916015625,-0.049309730529785156,-0.0027087032794952393,0.004984676837921143
1772570927428972000,4.754971923828125,-0.04939556121826172,-0.006059236824512482,0.0016744136810302734
1772570927446807000,4.77280712890625,-0.04827690124511719,-0.0015935078263282776,-0.0056648850440979
1772570927464642300,4.790642333984375,-0.048130035400390625,-0.0019662491977214813,-0.0034511685371398926
1772570927482477300,4.808477294921875,-0.05219078063964844,-0.0038677752017974854,-0.0027036070823669434
1772570927500312300,4.826312255859375,-0.04938507080078125,-0.002466771751642227,-0.004503190517425537
1772570927518147600,4.844147705078125,-0.050591468811035156,0.0009586028754711151,-0.0028772950172424316
1772570927535978500,4.861978515625,-0.05434131622314453,-0.006496470421552658,0.00535273551940918
1772570927553818000,4.879818115234375,-0.05018329620361328,-0.007688622921705246,0.004061102867126465
1772570927571653000,4.897653076171875,-0.04955863952636719,-0.0041805654764175415,0.0027927756309509277
1772570927589488400,4.91548828125,-0.04832744598388672,-0.0016075149178504944,-0.0025543570518493652
1772570927607323600,4.93332373046875,-0.0499267578125,-0.0013405941426753998,-0.00045424699783325195
1772570927625158700,4.95115869140625,-0.05358123779296875,-0.006358593702316284,-0.0019273161888122559
1772570927642994000,4.968993896484375,-0.05006217956542969,-0.00474892184138298,0.00205308198928833
1772570927660829000,4.986828857421875,-0.05066394805908203,-0.00441376119852066,0.0004417300224304199
1772570927678664400,5.00466455078125,-0.05140495300292969,-0.005300186574459076,-0.0009282231330871582
1772570927696499500,5.02249951171875,-0.04972553253173828,-0.0024909600615501404,-0.005949854850769043
1772570927714334200,5.040334228515625,-0.05419635772705078,-0.0056910887360572815,-0.0012344121932983398
1772570927732169500,5.05816943359375,-0.060072898864746094,-0.0070863813161849976,-0.005705088376998901
1772570927750005000,5.0760048828125,-0.05283546447753906,0.0007910989224910736,-0.0023857951164245605
1772570927767839500,5.093839599609375,-0.05287742614746094,-0.002952262759208679,-0.0030681490898132324
1772570927785674800,5.1116748046875,-0.049956321716308594,0.000664781779050827,0.0006936192512512207
1772570927803510000,5.129510009765625,-0.04838085174560547,-0.0009283535182476044,0.0003223419189453125
1772570927821344800,5.1473447265625,-0.05805778503417969,0.0000507161021232605,0.002910912036895752
1772570927839180000,5.165179931640625,-0.052536964416503906,0.0013125836849212646,-0.002145111560821533
1772570927857015600,5.183015625,-0.05462837219238281,0.0021926388144493103,0.0011876821517944336
1772570927874850600,5.2008505859375,-0.05429840087890625,0.0006335526704788208,0.0017278790473937988
1772570927892685600,5.218685546875,-0.04905509948730469,0.0032396428287029266,0.0008170008659362793
1772570927910520800,5.236520751953125,-0.05005645751953125,0.0008227154612541199,0.0019428133964538574
1772570927928356000,5.254356201171875,-0.052475929260253906,0.0004859045147895813,0.001465916633605957
1772570927946190800,5.27219091796875,-0.04878520965576172,0.004485011100769043,-0.0014118552207946777
1772570927964007700,5.290007568359375,-0.04351043701171875,-0.005735863000154495,0.00017511844635009766
1772570927981848800,5.307848876953125,-0.045632362365722656,-0.0014088526368141174,0.0033584237098693848
1772570927999696400,5.3256962890625,-0.04889392852783203,0.0013999901711940765,0.0007572174072265625
1772570928017532000,5.343531982421875,-0.054076194763183594,-0.0005496442317962646,-0.002983689308166504
1772570928035355100,5.361355224609375,-0.04901885986328125,0.003066662698984146,0.0018016695976257324
1772570928053202200,5.3792021484375,-0.055225372314453125,-0.0001016668975353241,0.0022319555282592773
1772570928071037200,5.397037109375,-0.050314903259277344,-0.0036650002002716064,-0.0053275227546691895
1772570928088860400,5.4148603515625,-0.052491188049316406,0.0038701891899108887,-0.003647923469543457
1772570928106707500,5.43270751953125,-0.049877166748046875,-0.0031586699187755585,0.00030225515365600586
1772570928124542500,5.45054248046875,-0.053055763244628906,0.0029188022017478943,0.0016654133796691895
1772570928142377500,5.46837744140625,-0.05467510223388672,0.0011404789984226227,0.0005935430526733398
1772570928160213000,5.486212890625,-0.05021476745605469,0.005638819187879562,-0.00238877534866333
1772570928178048000,5.504048095703125,-0.05426597595214844,0.007589522749185562,0.006217241287231445
1772570928195883000,5.521883056640625,-0.04610633850097656,0.006006523966789246,-0.0012503266334533691
1772570928213715500,5.539715576171875,-0.045520782470703125,0.0027951933443546295,-0.007581233978271484
1772570928231554800,5.557554931640625,-0.05175590515136719,0.0011254698038101196,0.003416717052459717
1772570928249389000,5.57538916015625,-0.04277610778808594,0.0010901466012001038,0.0029956698417663574
1772570928267223000,5.59322314453125,-0.05310630798339844,-0.0048397742211818695,0.0045920610427856445
1772570928285058000,5.61105810546875,-0.05467033386230469,0.006984509527683258,-0.003265678882598877
1772570928302893600,5.6288935546875,-0.051975250244140625,0.0014777891337871552,-0.0005065202713012695
1772570928320728600,5.646728515625,-0.056769371032714844,0.0005250237882137299,-0.00002664327621459961
1772570928338563600,5.6645634765625,-0.059288978576660156,-0.000900808721780777,-0.008566021919250488
1772570928356399000,5.682399169921875,-0.04975318908691406,0.0028001591563224792,-0.0012235045433044434
1772570928374234000,5.700234130859375,-0.04423809051513672,0.0006209611892700195,0.0026024580001831055
1772570928392069400,5.7180693359375,-0.051532745361328125,0.000421084463596344,-0.0025827884674072266
1772570928409904000,5.735904052734375,-0.04679679870605469,-0.005420185625553131,-0.0054877400398254395
1772570928427739400,5.753739501953125,-0.05015087127685547,-0.0034502260386943817,-0.004599928855895996
1772570928445574700,5.77157470703125,-0.05536842346191406,-0.0022287778556346893,0.0002581477165222168
1772570928463390700,5.789390625,-0.050314903259277344,-0.004168249666690826,-0.0036205649375915527
1772570928481245000,5.807244873046875,-0.052471160888671875,0.005513541400432587,-0.00022727251052856445
1772570928499080400,5.82508056640625,-0.05392646789550781,0.0011381246149539948,-0.0010164380073547363
1772570928516915000,5.8429150390625,-0.05188560485839844,0.0003453865647315979,-0.0055609941482543945
1772570928534750200,5.860750244140625,-0.05563068389892578,0.00021895766258239746,-0.0016981959342956543
1772570928552585500,5.87858544921875,-0.06026649475097656,-0.0027435310184955597,-0.0009512901306152344
1772570928570420000,5.896419921875,-0.05577373504638672,-0.0003904402256011963,-0.0018520951271057129
1772570928588255500,5.91425537109375,-0.05038738250732422,-0.00025398656725883484,-0.002565324306488037
1772570928606090500,5.932090576171875,-0.05541229248046875,0.0012297071516513824,-0.00804901123046875
1772570928623925800,5.94992578125,-0.056163787841796875,-0.001636940985918045,0.0020110011100769043
1772570928641760500,5.967760498046875,-0.04458332061767578,-0.005636692047119141,-0.0022467970848083496
1772570928659593200,5.98559326171875,-0.04575634002685547,-0.001192241907119751,-0.001072525978088379
1772570928677434000,6.00343408203125,-0.048851966857910156,0.002893637865781784,-0.0028060078620910645
1772570928695263000,6.021262939453125,-0.0459136962890625,-0.007820036262273788,0.0017473101615905762
1772570928713104600,6.039104736328125,-0.057648658752441406,-0.0013738609850406647,-0.006461203098297119
1772570928730933000,6.05693310546875,-0.04837608337402344,-0.0017169788479804993,-0.004769831895828247
1772570928748774100,6.074774169921875,-0.04631996154785156,-0.001608535647392273,0.0023987293243408203
1772570928766606300,6.0926064453125,-0.052987098693847656,0.0025232508778572083,-0.00252610445022583
1772570928784441300,6.11044140625,-0.059841156005859375,-0.0021924711763858795,-0.0026620030403137207
1772570928802276600,6.128276611328125,-0.056186676025390625,-0.001819375902414322,0.0028763413429260254
1772570928820111400,6.146111328125,-0.04930305480957031,0.0033049732446670532,-0.001986384391784668
1772570928837946600,6.163946533203125,-0.04875469207763672,0.0046099163591861725,0.0032327771186828613
1772570928855782000,6.181781982421875,-0.04590320587158203,-0.005742616951465607,0.0010053515434265137
1772570928873617200,6.1996171875,-0.05181407928466797,-0.0004054531455039978,-0.004421323537826538
1772570928891452200,6.2174521484375,-0.04976463317871094,-0.0007970891892910004,-0.005637705326080322
1772570928909287400,6.235287353515625,-0.048313140869140625,-0.0037337467074394226,-0.003606259822845459
1772570928927122700,6.253122802734375,-0.04924774169921875,-0.001336175948381424,-0.0041078925132751465
1772570928944957700,6.270957763671875,-0.05230998992919922,-0.003365039825439453,-0.00018596649169921875
1772570928962792700,6.288792724609375,-0.05457019805908203,-0.001349903643131256,-0.000530540943145752
1772570928980627700,6.306627685546875,-0.04727649688720703,-0.004092037677764893,-0.00008809566497802734
1772570928998462700,6.324462646484375,-0.05088329315185547,-0.0016404315829277039,0.000604093074798584
1772570929016298200,6.34229833984375,-0.04558563232421875,-0.00014293938875198364,-0.004389256238937378
1772570929034133000,6.360133056640625,-0.05176353454589844,-0.0013345517218112946,-0.0029504895210266113
1772570929051968000,6.377968017578125,-0.054497718811035156,-0.0016494356095790863,-0.0006861090660095215
1772570929069803300,6.39580322265625,-0.05083942413330078,-0.004556998610496521,0.003496706485748291
1772570929087638500,6.413638427734375,-0.04849433898925781,-0.002101592719554901,-0.0029445886611938477
1772570929105473000,6.43147314453125,-0.04001045227050781,-0.0036348290741443634,-0.0010970830917358398
1772570929123308500,6.44930859375,-0.04865074157714844,-0.003924455493688583,-0.0023297667503356934
1772570929141143300,6.467143310546875,-0.04818439483642578,0.00008710846304893494,0.0018068552017211914
1772570929158976000,6.48497607421875,-0.05281829833984375,-0.0015410073101520538,0.000042498111724853516
1772570929176817000,6.50281689453125,-0.040686607360839844,-0.004471484571695328,-0.003145962953567505
1772570929194648800,6.52064892578125,-0.04583454132080078,-0.001989617943763733,-0.0007706880569458008
1772570929212483800,6.53848388671875,-0.05245494842529297,-0.0006629973649978638,0.0006121993064880371
1772570929230319400,6.5563193359375,-0.04988384246826172,-0.0027319788932800293,-0.006148815155029297
1772570929248145400,6.5741455078125,-0.04380989074707031,-0.007113903760910034,-0.0019301772117614746
1772570929265992000,6.591991943359375,-0.042244911193847656,-0.0025908201932907104,0.0005786418914794922
1772570929283824000,6.60982421875,-0.0431365966796875,-0.0031160376965999603,-0.00036704540252685547
1772570929301640400,6.627640380859375,-0.04327678680419922,0.0002000071108341217,0.0007442831993103027
1772570929319494400,6.645494384765625,-0.04914665222167969,-0.002622012048959732,-0.004307806491851807
1772570929337329400,6.663329345703125,-0.051192283630371094,-0.0008691847324371338,0.0005385875701904297
1772570929355164700,6.68116455078125,-0.05264472961425781,-0.009963765740394592,0.0031872987747192383
1772570929372999700,6.698999755859375,-0.04945087432861328,-0.0020855702459812164,-0.00002950429916381836
1772570929390835200,6.716835205078125,-0.045395851135253906,-0.0062132179737091064,-0.002744615077972412
1772570929408670000,6.734669921875,-0.04769706726074219,-0.007970713078975677,-0.0015475749969482422
1772570929426505500,6.75250537109375,-0.04869270324707031,-0.007160566747188568,-0.00432509183883667
1772570929444340200,6.77034033203125,-0.04817962646484375,-0.0031423047184944153,-0.004521667957305908
1772570929462174000,6.788174072265625,-0.05216789245605469,-0.005450822412967682,-0.0008971095085144043
1772570929480011500,6.806011474609375,-0.04643058776855469,-0.0059111155569553375,-0.0033415555953979492
1772570929497845500,6.823845458984375,-0.04783344268798828,-0.0000864565372467041,0.0002900362014770508
1772570929515680500,6.841680419921875,-0.04285240173339844,-0.0032386519014835358,0.0009400248527526855
1772570929533515800,6.859515869140625,-0.050223350524902344,0.001613181084394455,-0.007748126983642578
1772570929551350500,6.8773505859375,-0.04143238067626953,-0.0011665932834148407,-0.004250943660736084
1772570929569185300,6.895185302734375,-0.05293750762939453,0.0018093548715114594,-0.002557516098022461
1772570929587020800,6.913020751953125,-0.044762611389160156,-0.003654681146144867,-0.004694908857345581
1772570929604855800,6.930855712890625,-0.04642963409423828,-0.004533778876066208,-0.004244893789291382
1772570929622690800,6.94869091796875,-0.047832489013671875,-0.006945155560970306,-0.0009949207305908203
1772570929640526000,6.966526123046875,-0.04920005798339844,-0.004453405737876892,-0.0019584298133850098
1772570929658361000,6.984361083984375,-0.04710960388183594,-0.006946846842765808,-0.00367814302444458
1772570929676196000,7.002196044921875,-0.0497283935546875,-0.0004787035286426544,0.0021079182624816895
1772570929694031600,7.020031494140625,-0.04540538787841797,-0.0035584867000579834,-0.003002166748046875
1772570929711866600,7.03786669921875,-0.045395851135253906,0.00017457827925682068,-0.0009540319442749023
1772570929729701400,7.055701416015625,-0.05172443389892578,-0.00011494755744934082,-0.0025302767753601074
1772570929747537200,7.073537109375,-0.0497589111328125,-0.0024811401963233948,-0.000977933406829834
1772570929765371600,7.09137158203125,-0.04136371612548828,-0.0018187537789344788,-0.0037879347801208496
1772570929783207000,7.10920703125,-0.04594898223876953,-0.0028530657291412354,-0.0005207061767578125
1772570929801027000,7.127027099609375,-0.05184173583984375,-0.005357224494218826,-0.005854308605194092
1772570929818877200,7.144877197265625,-0.048679351806640625,-0.002220872789621353,-0.00359344482421875
1772570929836712000,7.1627119140625,-0.04301166534423828,-0.005839843302965164,-0.008905410766601562
1772570929854547500,7.18054736328125,-0.0421600341796875,-0.0023942701518535614,-0.001958310604095459
1772570929872382200,7.19838232421875,-0.043168067932128906,-0.0028555691242218018,0.0013268589973449707
1772570929890217200,7.21621728515625,-0.039276123046875,-0.00717620924115181,-0.004790544509887695
1772570929908052700,7.234052734375,-0.04273414611816406,-0.007764976471662521,-0.00015145540237426758
1772570929925887700,7.2518876953125,-0.04844951629638672,-0.010732907801866531,0.00494837760925293
1772570929943722800,7.26972265625,-0.04476165771484375,-0.007143158465623856,0.0029108524322509766
1772570929961558000,7.28755810546875,-0.03998279571533203,-0.0030403807759284973,0.0031335949897766113
1772570929979389700,7.3053896484375,-0.03989124298095703,-0.0008756592869758606,-0.0005829930305480957
1772570929997231400,7.3232314453125,-0.04168224334716797,0.0001310408115386963,0.006184399127960205
1772570930015063300,7.341063232421875,-0.044877052307128906,-0.002555716782808304,0.0024857521057128906
1772570930032887000,7.358886962890625,-0.04357337951660156,-0.0018641501665115356,-0.0021509528160095215
1772570930050733600,7.376733642578125,-0.04517173767089844,-0.005893576890230179,0.00027179718017578125
1772570930068564700,7.394564697265625,-0.04653453826904297,0.0007825419306755066,-0.0015106797218322754
1772570930086406400,7.412406494140625,-0.0402374267578125,-0.003380097448825836,-0.004172086715698242
1772570930104238300,7.43023828125,-0.04578590393066406,-0.008853249251842499,-0.004503726959228516
1772570930122073000,7.448072998046875,-0.045479774475097656,-0.006380271166563034,0.00045937299728393555
1772570930139908400,7.465908447265625,-0.04771614074707031,-0.004290387034416199,0.0002415180206298828
1772570930157743900,7.483743896484375,-0.049180030822753906,0.0012549273669719696,-0.0018277168273925781
1772570930175579000,7.501578857421875,-0.04711627960205078,-0.0020465590059757233,-0.003468036651611328
1772570930193413600,7.51941357421875,-0.04274463653564453,-0.003479842096567154,0.004414021968841553
1772570930211248600,7.53724853515625,-0.04321861267089844,-0.010829046368598938,-0.0025238394737243652
1772570930229084200,7.555084228515625,-0.04620838165283203,-0.004894286394119263,-0.0019062161445617676
1772570930246919200,7.572919189453125,-0.0425872802734375,-0.005912136286497116,-0.0008862018585205078
1772570930264754200,7.590754150390625,-0.04139137268066406,-0.004277534782886505,-0.0018480420112609863
1772570930282589200,7.608589111328125,-0.0441436767578125,0.0012990571558475494,-0.002492964267730713
1772570930300424400,7.626424560546875,-0.04746723175048828,-0.0013172365725040436,-0.006997227668762207
1772570930318259700,7.644259765625,-0.04976177215576172,-0.00027982890605926514,-0.004660844802856445
1772570930336094700,7.6620947265625,-0.04133415222167969,-0.008741006255149841,-0.0025919675827026367
1772570930353929700,7.6799296875,-0.04397773742675781,-0.0083230659365654,-0.004065275192260742
1772570930371764500,7.697764404296875,-0.0427398681640625,-0.005984190851449966,0.002834618091583252
1772570930389600000,7.71560009765625,-0.047247886657714844,-0.002677459269762039,-0.00048679113388061523
1772570930407434800,7.733434814453125,-0.04708099365234375,-0.003870747983455658,-0.0038280487060546875
1772570930425270300,7.751270263671875,-0.04271507263183594,-0.01035003736615181,-0.00018924474716186523
1772570930443105000,7.76910498046875,-0.04205608367919922,-0.002640392631292343,-0.0036701560020446777
1772570930460939300,7.786939208984375,-0.04714679718017578,-0.0018372386693954468,-0.003237307071685791
1772570930478776300,7.8047763671875,-0.0409393310546875,-0.001489836722612381,-0.005320191383361816
1772570930496609800,7.82260986328125,-0.04841327667236328,-0.001341167837381363,-0.003226637840270996
1772570930514446000,7.840446044921875,-0.04483222961425781,-0.00012331455945968628,0.001756906509399414
1772570930532281600,7.858281494140625,-0.04758930206298828,0.006118863821029663,-0.003184676170349121
1772570930550114300,7.8761142578125,-0.04751396179199219,0.004016406834125519,0.0004610419273376465
1772570930567950600,7.89395068359375,-0.04150962829589844,-0.0021495893597602844,0.0027214884757995605
1772570930585785600,7.91178564453125,-0.04824256896972656,-0.0040699876844882965,0.004283130168914795
1772570930603620900,7.929620849609375,-0.0440673828125,-0.004352029412984848,-0.0023304224014282227
1772570930621455600,7.94745556640625,-0.044574737548828125,-0.003664553165435791,-0.0015274882316589355
1772570930639291000,7.965290771484375,-0.04643726348876953,-0.005318846553564072,0.0031125545501708984
1772570930657126100,7.983126220703125,-0.05189228057861328,-0.0027750805020332336,-0.002362966537475586
1772570930674961400,8.00096142578125,-0.047980308532714844,0.0059230513870716095,-0.0003091096878051758
1772570930692796700,8.018796630859375,-0.04689311981201172,0.004256721585988998,-0.0019214153289794922
1772570930710631400,8.03663134765625,-0.05293083190917969,-0.004131048917770386,0.0009323954582214355
1772570930728466700,8.054466796875,-0.051708221435546875,0.0017742179334163666,0.00013303756713867188
1772570930746289000,8.072288818359375,-0.050011634826660156,-0.004954434931278229,-0.0012907981872558594
1772570930764137000,8.090136962890625,-0.045416831970214844,-0.0001009814441204071,-0.0013878941535949707
1772570930781971700,8.1079716796875,-0.04537677764892578,-0.006374575197696686,0.0009987950325012207
1772570930799807000,8.125806884765625,-0.04764556884765625,-0.0014342553913593292,0.0031525492668151855
1772570930817642000,8.14364208984375,-0.04620361328125,-0.00784708559513092,-0.003468334674835205
1772570930835477000,8.16147705078125,-0.04777812957763672,-0.0019406415522098541,-0.004324853420257568
1772570930853312300,8.179312255859376,-0.05450153350830078,-0.0011040754616260529,-0.002056896686553955
1772570930871146800,8.197146728515625,-0.055237770080566406,-0.0029911622405052185,-0.006885349750518799
1772570930888982000,8.21498193359375,-0.04736900329589844,-0.00008856505155563354,-0.005788624286651611
1772570930906817000,8.232817138671875,-0.044892311096191406,-0.005917012691497803,-0.0016892552375793457
1772570930924652000,8.250652099609376,-0.04871368408203125,-0.004548653960227966,-0.003009021282196045
1772570930942487600,8.268487548828125,-0.059218406677246094,-0.0025678835809230804,-0.0010936260223388672
1772570930960322600,8.286322509765625,-0.05088615417480469,-0.007090907543897629,0.00010854005813598633
1772570930978157600,8.304157470703124,-0.04848289489746094,-0.0001994706690311432,-0.002078115940093994
1772570930995992800,8.321992919921875,-0.054589271545410156,-0.0009050555527210236,-0.0032117366790771484
1772570931013827800,8.339827880859374,-0.048241615295410156,0.0036069191992282867,-0.004556417465209961
1772570931031662800,8.357662841796875,-0.050477027893066406,-0.006220076233148575,-0.003836333751678467
1772570931049497600,8.37549755859375,-0.051944732666015625,-0.005781229585409164,-0.0061866044998168945
1772570931067314000,8.39331396484375,-0.04518413543701172,-0.00860922783613205,0.0005096197128295898
1772570931085167900,8.41116796875,-0.04566383361816406,-0.0020257197320461273,-0.002556443214416504
1772570931103003100,8.429003173828125,-0.040679931640625,-0.0010027401149272919,-0.00772973895072937
1772570931120834800,8.446834716796875,-0.04233837127685547,-0.0060700103640556335,-0.002728581428527832
1772570931138661000,8.4646611328125,-0.04830169677734375,0.00011712312698364258,-0.0007338523864746094
1772570931156508400,8.48250830078125,-0.04400157928466797,-0.0005925185978412628,-0.0022988319396972656
1772570931174343400,8.500343505859375,-0.05033683776855469,0.0022285468876361847,-0.0018911361694335938
1772570931192178700,8.5181787109375,-0.050637245178222656,-0.0000846274197101593,-0.0008667111396789551
1772570931210013700,8.536013671875,-0.058945655822753906,-0.002270832657814026,-0.0018913745880126953
1772570931227848700,8.5538486328125,-0.05209541320800781,-0.003754258155822754,-0.00578346848487854
1772570931245684000,8.57168408203125,-0.05511283874511719,-0.0039958469569683075,-0.005395829677581787
1772570931263519000,8.58951904296875,-0.05557441711425781,-0.0010760389268398285,0.0017489194869995117
1772570931281354000,8.60735400390625,-0.047379493713378906,-0.006605103611946106,-0.0012063384056091309
1772570931299189000,8.62518896484375,-0.04791831970214844,0.0013193152844905853,0.00043588876724243164
1772570931317024300,8.643024169921874,-0.050551414489746094,-0.004321839660406113,-0.006438106298446655
1772570931334859300,8.660859375,-0.04840278625488281,-0.001161828637123108,-0.005459249019622803
1772570931352685600,8.678685546875,-0.05214500427246094,-0.006003260612487793,-0.002919435501098633
1772570931370529300,8.696529296875,-0.050423622131347656,-0.00024618208408355713,0.003051459789276123
1772570931388361700,8.71436181640625,-0.2338390350341797,0.021875154227018356,-0.06806313991546631
1772570931406201600,8.73220166015625,-0.07889556884765625,0.003451164811849594,-0.009997010231018066
1772570931424034300,8.750034423828126,-0.024354934692382812,0.003575887531042099,0.008954763412475586
1772570931441869600,8.76786962890625,-0.049933433532714844,-0.008023746311664581,-0.00009882450103759766
1772570931459705000,8.785705078125,-0.045493125915527344,-0.005028635263442993,-0.0030606985092163086
