time,seconds_elapsed,z,y,x
1772570922836417800,0.162417724609375,0.0006108652451075613,0.0010690141934901476,0.0003054326225537807
1772570922854251300,0.180251220703125,0.0003054326225537807,0.0003054326225537807,0.0003054326225537807
1772570922872091000,0.1980908203125,0.0010690141934901476,-0.001527163083665073,-0.0009162978967651725
1772570922889920500,0.21592041015625,0.00045814894838258624,0.0007635815418325365,0.0006108652451075613
1772570922907759600,0.233759521484375,0.0007635815418325365,0.00045814894838258624,0.0006108652451075613
1772570922925592600,0.251592529296875,-0.0003054326225537807,-0.0013744467869400978,-0.0009162978967651725
1772570922943428000,0.269427978515625,0.0006108652451075613,-0.0006108652451075613,-0.00015271631127689034
1772570922961262600,0.2872626953125,-0.0003054326225537807,-0.0003054326225537807,-0.001832595793530345
1772570922979099000,0.305098876953125,0,0.00015271631127689034,0.00015271631127689034
1772570922996933000,0.32293310546875,0,-0.0003054326225537807,-0.0009162978967651725
1772570923014768600,0.3407685546875,-0.00045814894838258624,0.0013744467869400978,0.0009162978967651725
1772570923032603100,0.35860302734375,-0.0003054326225537807,-0.00045814894838258624,-0.00015271631127689034
1772570923050439400,0.376439453125,-0.00015271631127689034,-0.0003054326225537807,-0.0003054326225537807
1772570923068271000,0.39427099609375,-0.0003054326225537807,-0.00015271631127689034,-0.00045814894838258624
1772570923086113000,0.412113037109375,0.0003054326225537807,-0.0006108652451075613,0.0003054326225537807
1772570923103944700,0.42994482421875,-0.00015271631127689034,0.0012217304902151227,0.00045814894838258624
1772570923121780500,0.447780517578125,0.00045814894838258624,0.00045814894838258624,-0.0003054326225537807
1772570923139615200,0.465615234375,0.00015271631127689034,-0.0009162978967651725,0
1772570923157450500,0.483450439453125,-0.00045814894838258624,0.0006108652451075613,-0.0012217304902151227
1772570923175285000,0.501284912109375,0.0003054326225537807,0.00045814894838258624,-0.0006108652451075613
1772570923193121000,0.51912109375,-0.00045814894838258624,-0.0007635815418325365,0.0009162978967651725
1772570923210955300,0.536955322265625,-0.00045814894838258624,0.0007635815418325365,-0.0003054326225537807
1772570923228791300,0.554791259765625,0.00015271631127689034,0.0006108652451075613,0.00045814894838258624
1772570923246625800,0.572625732421875,0.00045814894838258624,-0.0003054326225537807,0.0012217304902151227
1772570923264462000,0.590462158203125,0.001679879380390048,-0.0006108652451075613,-0.0003054326225537807
1772570923282296300,0.60829638671875,0.0003054326225537807,0.0009162978967651725,0.0006108652451075613
1772570923300131600,0.626131591796875,0.00045814894838258624,0.00015271631127689034,0.0009162978967651725
1772570923317966000,0.643966064453125,-0.0012217304902151227,-0.0024434609804302454,0.0012217304902151227
1772570923335802600,0.661802734375,-0.00045814894838258624,-0.00015271631127689034,-0.0007635815418325365
1772570923353636900,0.679636962890625,-0.0003054326225537807,0.001527163083665073,-0.00015271631127689034
1772570923371472400,0.697472412109375,0.0003054326225537807,0.001679879380390048,-0.0019853119738399982
1772570923389307100,0.71530712890625,-0.00045814894838258624,-0.0006108652451075613,-0.001679879380390048
1772570923407143200,0.73314306640625,-0.0006108652451075613,0.0022907445672899485,-0.0003054326225537807
1772570923424978000,0.75097802734375,0.00015271631127689034,0,-0.00015271631127689034
1772570923442813200,0.768813232421875,0.0013744467869400978,-0.001832595793530345,-0.001527163083665073
1772570923460647400,0.7866474609375,-0.00045814894838258624,0,0.0003054326225537807
1772570923478483700,0.804483642578125,-0.0006108652451075613,0.0007635815418325365,0.0003054326225537807
1772570923496318000,0.82231787109375,-0.0006108652451075613,-0.001527163083665073,-0.00045814894838258624
1772570923514153700,0.84015380859375,0.00045814894838258624,-0.0007635815418325365,0.0007635815418325365
1772570923531989000,0.857989013671875,-0.0006108652451075613,-0.0010690141934901476,-0.0003054326225537807
1772570923549824800,0.87582470703125,-0.0006108652451075613,-0.001527163083665073,0.00015271631127689034
1772570923567659000,0.893658935546875,-0.00045814894838258624,-0.0007635815418325365,0.0010690141934901476
1772570923585494800,0.911494873046875,-0.0012217304902151227,-0.001527163083665073,-0.0006108652451075613
1772570923603329300,0.929329345703125,0.0003054326225537807,0.0009162978967651725,-0.00045814894838258624
1772570923621165300,0.947165283203125,-0.0006108652451075613,-0.00045814894838258624,0.0007635815418325365
1772570923638999800,0.964999755859375,0.00045814894838258624,-0.0007635815418325365,-0.00045814894838258624
1772570923656835300,0.98283544921875,0.0003054326225537807,-0.00045814894838258624,0.0003054326225537807
1772570923674669600,1.000669677734375,-0.0006108652451075613,0,-0.0007635815418325365
1772570923692506000,1.018506103515625,0.0009162978967651725,0.0003054326225537807,0.0003054326225537807
1772570923710340600,1.036340576171875,0.0006108652451075613,0.0027488935738801956,-0.00015271631127689034
1772570923728176000,1.054176025390625,0.00045814894838258624,0.0006108652451075613,0.00045814894838258624
1772570923746010000,1.072010009765625,-0.0006108652451075613,0.0012217304902151227,0.0025961773935705423
1772570923763846400,1.089846435546875,-0.0010690141934901476,-0.0003054326225537807,0.00015271631127689034
1772570923781681000,1.107680908203125,-0.00045814894838258624,0.0022907445672899485,-0.0006108652451075613
1772570923799516700,1.1255166015625,0.0009162978967651725,-0.001832595793530345,0.0003054326225537807
1772570923817350700,1.1433505859375,-0.00015271631127689034,0.001527163083665073,-0.0006108652451075613
1772570923835187000,1.16118701171875,-0.0003054326225537807,0.002138028386980295,0
1772570923853021700,1.179021728515625,-0.00045814894838258624,0.00045814894838258624,-0.001527163083665073
1772570923870857500,1.196857421875,-0.0003054326225537807,-0.0013744467869400978,0.001527163083665073
1772570923888691700,1.214691650390625,-0.0009162978967651725,0.00015271631127689034,0.0003054326225537807
1772570923906528300,1.2325283203125,0.0012217304902151227,0.002138028386980295,0.0006108652451075613
1772570923924366800,1.250366943359375,-0.0006108652451075613,-0.00015271631127689034,0.00015271631127689034
1772570923942197500,1.268197509765625,-0.001527163083665073,0.0010690141934901476,-0.00015271631127689034
1772570923960028700,1.286028564453125,0.0007635815418325365,0.0007635815418325365,0.0007635815418325365
1772570923977868800,1.303868896484375,0.0003054326225537807,0.0007635815418325365,0.00045814894838258624
1772570923995690500,1.3216904296875,0.001527163083665073,0.00015271631127689034,0.0003054326225537807
1772570924013538800,1.339538818359375,-0.0003054326225537807,-0.0024434609804302454,0.00045814894838258624
1772570924031368700,1.35736865234375,0.00015271631127689034,-0.0010690141934901476,-0.0007635815418325365
1772570924049209000,1.375208984375,0.0006108652451075613,-0.0010690141934901476,-0.0013744467869400978
1772570924067043800,1.3930439453125,-0.00045814894838258624,0.0007635815418325365,-0.0012217304902151227
1772570924084879600,1.410879638671875,-0.0006108652451075613,-0.0010690141934901476,-0.0007635815418325365
1772570924102713900,1.4287138671875,-0.00015271631127689034,0.0006108652451075613,0
1772570924120550100,1.446550048828125,0.0003054326225537807,0,0.0010690141934901476
1772570924138384400,1.46438427734375,-0.0003054326225537807,-0.0006108652451075613,-0.001679879380390048
1772570924156219600,1.4822197265625,-0.0006108652451075613,0.0003054326225537807,0.00045814894838258624
1772570924174055000,1.500054931640625,0,0.00015271631127689034,0.00015271631127689034
1772570924191891000,1.517890869140625,0.0003054326225537807,0.00045814894838258624,-0.0006108652451075613
1772570924209725000,1.535724853515625,0.00015271631127689034,0.0006108652451075613,0.0007635815418325365
1772570924227560000,1.553559814453125,0.00015271631127689034,-0.0007635815418325365,0.0003054326225537807
1772570924245395700,1.571395751953125,-0.00045814894838258624,0.00015271631127689034,0.0012217304902151227
1772570924263231000,1.58923095703125,0.0010690141934901476,-0.00045814894838258624,0.0010690141934901476
1772570924281065500,1.6070654296875,0.00045814894838258624,-0.0007635815418325365,-0.001527163083665073
1772570924298901000,1.62490087890625,-0.0010690141934901476,0.0003054326225537807,0.0010690141934901476
1772570924316735700,1.64273583984375,0.00015271631127689034,0.0013744467869400978,0.0019853119738399982
1772570924334571500,1.660571533203125,0.00015271631127689034,-0.00015271631127689034,0.0007635815418325365
1772570924352405800,1.67840576171875,-0.0006108652451075613,0.0009162978967651725,-0.00045814894838258624
1772570924370241800,1.69624169921875,0.0003054326225537807,0.002138028386980295,-0.0006108652451075613
1772570924388076300,1.714076171875,-0.00015271631127689034,0.0009162978967651725,0
1772570924405912600,1.73191259765625,0.00015271631127689034,-0.001527163083665073,-0.0003054326225537807
1772570924423747000,1.7497470703125,-0.0007635815418325365,0.0003054326225537807,0.00015271631127689034
1772570924441582800,1.767582763671875,-0.00045814894838258624,-0.0003054326225537807,-0.00045814894838258624
1772570924459413500,1.78541357421875,-0.00015271631127689034,0.0007635815418325365,-0.0007635815418325365
1772570924477253400,1.80325341796875,0.0003054326225537807,0.00045814894838258624,0.0006108652451075613
1772570924495078000,1.821077880859375,-0.00045814894838258624,-0.0009162978967651725,0.0012217304902151227
1772570924512907000,1.838906982421875,0.0003054326225537807,0.001832595793530345,-0.0006108652451075613
1772570924530757400,1.85675732421875,-0.0003054326225537807,-0.0019853119738399982,0.0007635815418325365
1772570924548591000,1.874591064453125,-0.0006108652451075613,-0.0006108652451075613,-0.00045814894838258624
1772570924566431200,1.89243115234375,0,-0.0003054326225537807,0.0006108652451075613
1772570924584264200,1.91026416015625,-0.00045814894838258624,0.0003054326225537807,0.0012217304902151227
1772570924602098400,1.928098388671875,0,-0.001679879380390048,0
1772570924619934700,1.945934814453125,-0.0003054326225537807,-0.0013744467869400978,0.00015271631127689034
1772570924637768400,1.9637685546875,0.0003054326225537807,0.0010690141934901476,0.0006108652451075613
1772570924655600400,1.981600341796875,0.00045814894838258624,0.0010690141934901476,0
1772570924673443300,1.999443359375,-0.0003054326225537807,0.00045814894838258624,-0.0012217304902151227
1772570924691274800,2.017274658203125,-0.00015271631127689034,0.0003054326225537807,0.0010690141934901476
1772570924709110300,2.0351103515625,0,-0.0006108652451075613,0.001527163083665073
1772570924726942200,2.052942138671875,0.0003054326225537807,0.0025961773935705423,0.0003054326225537807
1772570924744782300,2.0707822265625,-0.0006108652451075613,-0.0003054326225537807,0.0006108652451075613
1772570924762615600,2.088615478515625,0,-0.00045814894838258624,0
1772570924780450000,2.106449951171875,-0.00045814894838258624,0.0012217304902151227,0.0003054326225537807
1772570924798285600,2.12428564453125,0.0003054326225537807,-0.00045814894838258624,0.00015271631127689034
1772570924816119800,2.142119873046875,0.0006108652451075613,0.0006108652451075613,0.00015271631127689034
1772570924833961500,2.15996142578125,0.00015271631127689034,-0.0009162978967651725,0.0006108652451075613
1772570924851790300,2.177790283203125,-0.0009162978967651725,0.0003054326225537807,0.0013744467869400978
1772570924869627000,2.195626953125,0.00015271631127689034,0.001679879380390048,-0.0009162978967651725
1772570924887461000,2.213461181640625,0,0.0003054326225537807,-0.0009162978967651725
1772570924905297400,2.23129736328125,0.00015271631127689034,0.0009162978967651725,0.00045814894838258624
1772570924923131600,2.249131591796875,0.00045814894838258624,-0.001527163083665073,-0.0009162978967651725
1772570924940967400,2.266967529296875,0.00045814894838258624,0,-0.0006108652451075613
1772570924958801700,2.2848017578125,0.00045814894838258624,0.00045814894838258624,0.00015271631127689034
1772570924976638200,2.30263818359375,-0.00015271631127689034,0.0003054326225537807,0.0009162978967651725
1772570924994472000,2.320471923828125,-0.00045814894838258624,0.0006108652451075613,0.0007635815418325365
1772570925012308000,2.338307861328125,-0.0006108652451075613,0.0009162978967651725,0.0007635815418325365
1772570925030142500,2.356142578125,0.00045814894838258624,0.0007635815418325365,0
1772570925047978500,2.373978515625,-0.0012217304902151227,-0.00015271631127689034,-0.0012217304902151227
1772570925065812700,2.391812744140625,0,0.00015271631127689034,0
1772570925083648500,2.4096484375,0.00045814894838258624,-0.00045814894838258624,0.0012217304902151227
1772570925101482500,2.427482421875,0.00045814894838258624,-0.0029016099870204926,0.00045814894838258624
1772570925119319000,2.445319091796875,-0.00045814894838258624,0.0006108652451075613,0.00015271631127689034
1772570925137153300,2.4631533203125,-0.00045814894838258624,-0.00015271631127689034,-0.0006108652451075613
1772570925154989000,2.480989013671875,-0.0006108652451075613,0,-0.0003054326225537807
1772570925172823600,2.498823486328125,0,0,-0.00045814894838258624
1772570925190660000,2.51666015625,-0.00015271631127689034,0.0007635815418325365,-0.0010690141934901476
1772570925208494300,2.534494384765625,-0.00045814894838258624,0.001832595793530345,0.0003054326225537807
1772570925226330000,2.552330078125,-0.00045814894838258624,0.0003054326225537807,0.00045814894838258624
1772570925244164000,2.5701640625,-0.0009162978967651725,0.0003054326225537807,0.0010690141934901476
1772570925262000000,2.588000244140625,0.0007635815418325365,0.0009162978967651725,-0.0009162978967651725
1772570925279834600,2.605834716796875,0.0010690141934901476,-0.0012217304902151227,-0.0006108652451075613
1772570925297670100,2.623670166015625,0.0007635815418325365,0.0022907445672899485,-0.0003054326225537807
1772570925315493000,2.6414931640625,-0.00045814894838258624,0.0007635815418325365,0.00045814894838258624
1772570925333328600,2.65932861328125,-0.0006108652451075613,0.0006108652451075613,0.0007635815418325365
1772570925351175700,2.67717578125,-0.0012217304902151227,-0.0013744467869400978,0.0010690141934901476
1772570925369011200,2.69501123046875,-0.0006108652451075613,-0.0009162978967651725,-0.001527163083665073
1772570925386845700,2.712845703125,0.00045814894838258624,-0.00045814894838258624,0
1772570925404682000,2.730681884765625,-0.0006108652451075613,-0.001679879380390048,0.0007635815418325365
1772570925422516200,2.74851611328125,-0.0003054326225537807,-0.001832595793530345,-0.00045814894838258624
1772570925440352000,2.76635205078125,0.00045814894838258624,0.0010690141934901476,0.001527163083665073
1772570925458186800,2.784186767578125,0.001679879380390048,-0.00015271631127689034,0
1772570925476022300,2.802022216796875,-0.0003054326225537807,-0.0006108652451075613,-0.0003054326225537807
1772570925493857000,2.81985693359375,-0.0007635815418325365,0,0.00015271631127689034
1772570925511692800,2.83769287109375,0.00015271631127689034,0.00015271631127689034,0.0019853119738399982
1772570925529526800,2.85552685546875,-0.0006108652451075613,0.0003054326225537807,-0.0003054326225537807
1772570925547363000,2.873363037109375,-0.0006108652451075613,0.0007635815418325365,0.0010690141934901476
1772570925565197600,2.891197509765625,0.00045814894838258624,-0.001679879380390048,0
1772570925583033000,2.909033203125,-0.0012217304902151227,-0.00045814894838258624,0.00015271631127689034
1772570925600867300,2.926867431640625,-0.0003054326225537807,0.001527163083665073,0.001832595793530345
1772570925618704000,2.944703857421875,-0.0003054326225537807,0.00045814894838258624,0.0013744467869400978
1772570925636538000,2.9625380859375,0.00045814894838258624,-0.001832595793530345,-0.0007635815418325365
1772570925654374100,2.9803740234375,-0.00015271631127689034,0.0013744467869400978,0
1772570925672208600,2.998208740234375,-0.0006108652451075613,0,-0.001527163083665073
1772570925690044400,3.01604443359375,0.00015271631127689034,0,0
1772570925707879200,3.033879150390625,-0.0012217304902151227,0,0.0003054326225537807
1772570925725715000,3.05171484375,0.0012217304902151227,0.0022907445672899485,-0.0006108652451075613
1772570925743546600,3.069546630859375,-0.0006108652451075613,-0.0012217304902151227,0
1772570925761373200,3.087373291015625,0.0009162978967651725,0.0006108652451075613,0.0003054326225537807
1772570925779219700,3.1052197265625,0.001679879380390048,0.0003054326225537807,-0.00045814894838258624
1772570925797054700,3.1230546875,0.0006108652451075613,-0.0022907445672899485,0.0003054326225537807
1772570925814889700,3.1408896484375,-0.0006108652451075613,-0.0013744467869400978,0.0006108652451075613
1772570925832714000,3.1587138671875,-0.0006108652451075613,0.0006108652451075613,0.0013744467869400978
1772570925850560000,3.17656005859375,-0.0006108652451075613,0.00366519158706069,-0.0013744467869400978
1772570925868395000,3.19439501953125,0.00015271631127689034,0.00045814894838258624,0.0003054326225537807
1772570925886231800,3.212231689453125,0.0013744467869400978,-0.003054326167330146,0.0010690141934901476
1772570925904066800,3.23006689453125,-0.0006108652451075613,-0.00015271631127689034,-0.0003054326225537807
1772570925921901000,3.247901123046875,-0.0006108652451075613,-0.0007635815418325365,-0.00045814894838258624
1772570925939736800,3.26573681640625,-0.00045814894838258624,-0.00015271631127689034,0
1772570925957567500,3.2835673828125,0.0003054326225537807,0.001832595793530345,-0.0013744467869400978
1772570925975407900,3.301407958984375,0.00045814894838258624,-0.0009162978967651725,0.0007635815418325365
1772570925993241900,3.319241943359375,0.0003054326225537807,0.0003054326225537807,-0.0012217304902151227
1772570926011080400,3.33708056640625,0.00045814894838258624,0,0.0012217304902151227
1772570926028909000,3.354908935546875,-0.00015271631127689034,-0.001832595793530345,0
1772570926046747400,3.372747314453125,0.0006108652451075613,0.0009162978967651725,0
1772570926064572700,3.39057275390625,-0.0006108652451075613,-0.002138028386980295,-0.0006108652451075613
1772570926082417700,3.408417724609375,0.00015271631127689034,0.0009162978967651725,0.00045814894838258624
1772570926100252200,3.426252197265625,-0.00045814894838258624,-0.0003054326225537807,0.0013744467869400978
1772570926118088400,3.44408837890625,-0.00015271631127689034,-0.0003054326225537807,-0.0013744467869400978
1772570926135923000,3.4619228515625,0.00045814894838258624,-0.0006108652451075613,-0.0007635815418325365
1772570926153758700,3.4797587890625,0.00045814894838258624,0.0012217304902151227,-0.0006108652451075613
1772570926171593000,3.497593017578125,-0.00015271631127689034,0.0013744467869400978,-0.0003054326225537807
1772570926189429500,3.515429443359375,-0.0006108652451075613,-0.0003054326225537807,0
1772570926207263700,3.533263671875,-0.0006108652451075613,0.00045814894838258624,0
1772570926225099300,3.551099365234375,-0.0006108652451075613,-0.00015271631127689034,-0.0007635815418325365
1772570926242934300,3.568934326171875,-0.0012217304902151227,0.0003054326225537807,0.001527163083665073
1772570926260762600,3.5867626953125,0,-0.001832595793530345,-0.00015271631127689034
1772570926278604800,3.604604736328125,-0.0006108652451075613,-0.002138028386980295,-0.0010690141934901476
1772570926296440300,3.6224404296875,-0.0006108652451075613,-0.0032070425804704428,-0.0007635815418325365
1772570926314274600,3.640274658203125,-0.00045814894838258624,0.0012217304902151227,0.0012217304902151227
1772570926332110800,3.65811083984375,0.00015271631127689034,0.0019853119738399982,0.0007635815418325365
1772570926349945300,3.6759453125,-0.00045814894838258624,-0.0013744467869400978,0
1772570926367781000,3.693781005859375,0.00045814894838258624,-0.0003054326225537807,0
1772570926385615400,3.711615478515625,-0.00045814894838258624,-0.0007635815418325365,-0.001679879380390048
1772570926403451600,3.72945166015625,-0.00015271631127689034,-0.0006108652451075613,-0.0007635815418325365
1772570926421286100,3.7472861328125,0.0003054326225537807,0.00045814894838258624,-0.0007635815418325365
1772570926439121200,3.76512109375,-0.0006108652451075613,0.0006108652451075613,-0.0006108652451075613
1772570926456956200,3.7829560546875,-0.00045814894838258624,-0.0003054326225537807,-0.00045814894838258624
1772570926474792200,3.800792236328125,0.00045814894838258624,0.0009162978967651725,-0.00015271631127689034
1772570926492626700,3.818626708984375,-0.0003054326225537807,-0.0003054326225537807,0.001832595793530345
1772570926510462700,3.836462646484375,-0.0013744467869400978,0.00015271631127689034,0.0006108652451075613
1772570926528296700,3.854296630859375,-0.0006108652451075613,0,0.0009162978967651725
1772570926546132500,3.872132568359375,0.0006108652451075613,0.0013744467869400978,-0.0003054326225537807
1772570926563967000,3.889967041015625,0.0003054326225537807,0.0012217304902151227,0.0009162978967651725
1772570926581802800,3.907802734375,0.0003054326225537807,0,0.0003054326225537807
1772570926599637200,3.92563720703125,-0.0006108652451075613,0.0019853119738399982,0
1772570926617473300,3.943473388671875,-0.0003054326225537807,0.0007635815418325365,-0.0007635815418325365
1772570926635295000,3.961294921875,-0.0006108652451075613,-0.0024434609804302454,0.0003054326225537807
1772570926653143800,3.979143798828125,-0.0006108652451075613,-0.0009162978967651725,0.0007635815418325365
1772570926670978000,3.99697802734375,-0.0003054326225537807,0.0006108652451075613,-0.0003054326225537807
1772570926688814000,4.01481396484375,-0.0003054326225537807,-0.0003054326225537807,-0.00015271631127689034
1772570926706648600,4.032648681640625,-0.0006108652451075613,0.0009162978967651725,-0.0012217304902151227
1772570926724484400,4.050484375,-0.00045814894838258624,-0.0006108652451075613,-0.001527163083665073
1772570926742318800,4.06831884765625,0.00015271631127689034,0,0.0007635815418325365
1772570926760155000,4.08615478515625,0.00045814894838258624,0.0012217304902151227,-0.0010690141934901476
1772570926777989000,4.103989013671875,0.0012217304902151227,-0.0006108652451075613,0.0006108652451075613
1772570926795825200,4.1218251953125,-0.0006108652451075613,-0.0006108652451075613,0
1772570926813659400,4.139659423828125,-0.0007635815418325365,-0.0010690141934901476,0
1772570926831495700,4.15749560546875,-0.0003054326225537807,0.003054326167330146,-0.00045814894838258624
1772570926849329700,4.17532958984375,-0.00045814894838258624,-0.0007635815418325365,0.00015271631127689034
1772570926867165400,4.19316552734375,0.00045814894838258624,-0.00045814894838258624,-0.0012217304902151227
1772570926884999700,4.210999755859375,0.00015271631127689034,0.0025961773935705423,-0.00045814894838258624
1772570926902836000,4.2288359375,-0.0009162978967651725,0.001527163083665073,0.0003054326225537807
1772570926920670200,4.246670166015625,-0.0006108652451075613,-0.0006108652451075613,0.00045814894838258624
1772570926938506200,4.26450634765625,0.0003054326225537807,0.0010690141934901476,0.001527163083665073
1772570926956340700,4.2823408203125,-0.00015271631127689034,-0.0024434609804302454,-0.0007635815418325365
1772570926974176800,4.3001767578125,0.0006108652451075613,-0.0006108652451075613,-0.0006108652451075613
1772570926992011500,4.318011474609375,0.00015271631127689034,0.0019853119738399982,-0.0022907445672899485
1772570927009846500,4.335846435546875,0.0006108652451075613,-0.0006108652451075613,-0.0012217304902151227
1772570927027681300,4.353681396484375,-0.00045814894838258624,-0.0012217304902151227,-0.00045814894838258624
1772570927045517300,4.371517333984375,0.0006108652451075613,0.0006108652451075613,0.0007635815418325365
1772570927063339000,4.389339111328125,0.0006108652451075613,0.0024434609804302454,-0.0003054326225537807
1772570927081187000,4.40718701171875,-0.00015271631127689034,-0.0013744467869400978,-0.00045814894838258624
1772570927099021600,4.425021484375,0.00045814894838258624,-0.001832595793530345,-0.001832595793530345
1772570927116845800,4.442845703125,0,-0.0012217304902151227,0.0013744467869400978
1772570927134683000,4.460682861328125,-0.00045814894838258624,-0.00045814894838258624,0
1772570927152528600,4.478528564453125,-0.00015271631127689034,-0.0003054326225537807,-0.0003054326225537807
1772570927170362000,4.496362060546875,0.0003054326225537807,-0.00045814894838258624,0.0003054326225537807
1772570927188199000,4.514198974609375,0.0013744467869400978,0.0012217304902151227,-0.00045814894838258624
1772570927206033200,4.532033203125,-0.0003054326225537807,0.0019853119738399982,-0.0009162978967651725
1772570927223869200,4.549869140625,-0.00015271631127689034,-0.0007635815418325365,-0.0007635815418325365
1772570927241703200,4.567703125,-0.00045814894838258624,-0.0012217304902151227,-0.0003054326225537807
1772570927259539700,4.585539794921875,0.0003054326225537807,-0.0003054326225537807,-0.0006108652451075613
1772570927277373700,4.603373779296875,-0.00015271631127689034,-0.001527163083665073,-0.002138028386980295
1772570927295208400,4.62120849609375,0.00015271631127689034,-0.00045814894838258624,0.0003054326225537807
1772570927313032400,4.639032470703125,0.00015271631127689034,0.0009162978967651725,0.0007635815418325365
1772570927330879500,4.65687939453125,-0.00015271631127689034,0.0003054326225537807,-0.0012217304902151227
1772570927348714000,4.6747138671875,-0.00015271631127689034,0.0029016099870204926,0.0007635815418325365
1772570927366549500,4.692549560546875,0.0003054326225537807,-0.0012217304902151227,0.00045814894838258624
1772570927384384300,4.71038427734375,0.0007635815418325365,-0.0003054326225537807,-0.0003054326225537807
1772570927402220000,4.728219970703125,0.0007635815418325365,0.001679879380390048,0.00015271631127689034
1772570927420054500,4.746054443359375,0.0006108652451075613,0.0003054326225537807,-0.00045814894838258624
1772570927437890300,4.763890380859375,-0.0003054326225537807,0.002138028386980295,0.0013744467869400978
1772570927455725000,4.78172509765625,-0.00015271631127689034,0.0010690141934901476,0.00015271631127689034
1772570927473560800,4.799560791015625,-0.00045814894838258624,0.002138028386980295,0.0012217304902151227
1772570927491395000,4.81739501953125,-0.00015271631127689034,0,0.0009162978967651725
1772570927509231400,4.8352314453125,-0.00015271631127689034,0.0013744467869400978,0.0007635815418325365
1772570927527065600,4.853065673828125,-0.00015271631127689034,0.0006108652451075613,-0.0009162978967651725
1772570927544902000,4.87090185546875,-0.00015271631127689034,-0.001527163083665073,-0.0007635815418325365
1772570927562738000,4.888738037109375,0.00015271631127689034,0.0012217304902151227,-0.0006108652451075613
1772570927580572000,4.906572021484375,-0.00015271631127689034,0.00015271631127689034,0.0006108652451075613
1772570927598406000,4.924406005859375,0.0009162978967651725,-0.00015271631127689034,0.0007635815418325365
1772570927616242400,4.942242431640625,0.0013744467869400978,0.00015271631127689034,-0.002138028386980295
1772570927634076400,4.960076416015625,-0.0003054326225537807,-0.0025961773935705423,-0.0010690141934901476
1772570927651912200,4.977912109375,0.0003054326225537807,-0.0012217304902151227,0
1772570927669746700,4.99574658203125,0.00015271631127689034,-0.0003054326225537807,-0.0024434609804302454
1772570927687582700,5.013582763671875,-0.00045814894838258624,-0.00015271631127689034,-0.00045814894838258624
1772570927705417200,5.031417236328125,-0.00015271631127689034,0.0013744467869400978,0.00015271631127689034
1772570927723252700,5.049252685546875,0,0.0006108652451075613,-0.0010690141934901476
1772570927741087200,5.067087158203125,0.00045814894838258624,0,0.00045814894838258624
1772570927758921200,5.084921142578125,-0.00045814894838258624,-0.00015271631127689034,-0.0012217304902151227
1772570927776760000,5.102760009765625,0.00015271631127689034,0.00045814894838258624,-0.00015271631127689034
1772570927794591000,5.120591064453125,0.00045814894838258624,0,-0.001679879380390048
1772570927812430000,5.13843017578125,-0.00015271631127689034,-0.0007635815418325365,-0.001527163083665073
1772570927830264000,5.15626416015625,0.00045814894838258624,0.0012217304902151227,-0.0007635815418325365
1772570927848097800,5.174097900390625,-0.00045814894838258624,0.0003054326225537807,0.00045814894838258624
1772570927865933800,5.191933837890625,-0.0003054326225537807,0.0006108652451075613,-0.00015271631127689034
1772570927883768000,5.20976806640625,-0.0012217304902151227,0.0009162978967651725,-0.0006108652451075613
1772570927901604000,5.22760400390625,0.0006108652451075613,0.0012217304902151227,0.00045814894838258624
1772570927919438300,5.245438232421875,-0.0006108652451075613,-0.0003054326225537807,-0.00015271631127689034
1772570927937274000,5.263274169921875,0.0009162978967651725,0.0006108652451075613,0
1772570927955108600,5.281108642578125,0.00045814894838258624,-0.001527163083665073,-0.0010690141934901476
1772570927972945000,5.29894482421875,0.0006108652451075613,-0.001832595793530345,-0.00015271631127689034
1772570927990779400,5.316779296875,0.0006108652451075613,0.001832595793530345,0.00015271631127689034
1772570928008615200,5.334615234375,-0.0007635815418325365,-0.0022907445672899485,-0.00015271631127689034
1772570928026449400,5.352449462890625,0.00015271631127689034,0.0003054326225537807,0.00015271631127689034
1772570928044282600,5.37028271484375,0.0006108652451075613,-0.001679879380390048,0.00015271631127689034
1772570928062123000,5.388123046875,-0.00045814894838258624,-0.00015271631127689034,0.0006108652451075613
1772570928079955700,5.405955810546875,-0.0010690141934901476,-0.00045814894838258624,0.0010690141934901476
1772570928097790000,5.4237900390625,-0.00045814894838258624,-0.001832595793530345,-0.0003054326225537807
1772570928115625700,5.441625732421875,-0.0006108652451075613,-0.0009162978967651725,-0.0012217304902151227
1772570928133460700,5.459460693359375,-0.0012217304902151227,-0.0012217304902151227,-0.0012217304902151227
1772570928151296000,5.4772958984375,0.00015271631127689034,-0.00015271631127689034,0
1772570928169130000,5.4951298828125,0.0010690141934901476,0.001679879380390048,-0.0003054326225537807
1772570928186966800,5.512966796875,0.0003054326225537807,0.0007635815418325365,-0.0007635815418325365
1772570928204800500,5.530800537109375,-0.00015271631127689034,-0.00045814894838258624,0.0009162978967651725
1772570928222636000,5.548635986328125,-0.00015271631127689034,-0.0012217304902151227,0.00045814894838258624
1772570928240471000,5.566470947265625,0.0003054326225537807,-0.001832595793530345,0.0003054326225537807
1772570928258306800,5.584306884765625,0.0003054326225537807,-0.0006108652451075613,0.00015271631127689034
1772570928276141300,5.602141357421875,0,-0.00015271631127689034,0.0006108652451075613
1772570928293977000,5.61997705078125,-0.0003054326225537807,0.0003054326225537807,0.001832595793530345
1772570928311811300,5.637811279296875,-0.00015271631127689034,-0.0010690141934901476,0.0009162978967651725
1772570928329647000,5.655647216796875,-0.0006108652451075613,0.0007635815418325365,0.0010690141934901476
1772570928347481300,5.6734814453125,-0.0006108652451075613,-0.0003054326225537807,0.0013744467869400978
1772570928365316900,5.69131689453125,0.0006108652451075613,-0.00015271631127689034,-0.0010690141934901476
1772570928383151600,5.709151611328125,0.0006108652451075613,0,-0.0006108652451075613
1772570928400987600,5.726987548828125,0.00015271631127689034,0.001527163083665073,0.0009162978967651725
1772570928418822000,5.74482177734375,-0.0009162978967651725,0.001527163083665073,0
1772570928436645000,5.76264501953125,-0.0013744467869400978,0.00045814894838258624,0.0012217304902151227
1772570928454492400,5.780492431640625,0.001527163083665073,-0.001527163083665073,-0.0006108652451075613
1772570928472328400,5.798328369140625,-0.00045814894838258624,0.0003054326225537807,-0.001832595793530345
1772570928490162400,5.816162353515625,-0.00045814894838258624,0.0003054326225537807,0
1772570928507998500,5.83399853515625,0.00045814894838258624,0.0009162978967651725,0.001679879380390048
1772570928525832400,5.85183251953125,0.00045814894838258624,-0.00015271631127689034,0.0003054326225537807
1772570928543669000,5.8696689453125,0.0003054326225537807,0.00045814894838258624,0.0006108652451075613
1772570928561503200,5.887503173828125,0.0013744467869400978,0.0003054326225537807,0.0010690141934901476
1772570928579339000,5.905339111328125,-0.00015271631127689034,0.0019853119738399982,0.001527163083665073
1772570928597173200,5.92317333984375,-0.00045814894838258624,-0.002138028386980295,-0.0025961773935705423
1772570928614996500,5.94099658203125,0.0007635815418325365,0,0.0012217304902151227
1772570928632827600,5.95882763671875,0.0003054326225537807,0,0.0006108652451075613
1772570928650682000,5.97668212890625,0.0013744467869400978,0.001832595793530345,0.0012217304902151227
1772570928668509700,5.994509765625,0.00045814894838258624,-0.0010690141934901476,-0.0006108652451075613
1772570928686353000,6.012352783203125,-0.0003054326225537807,-0.00045814894838258624,-0.0009162978967651725
1772570928704183800,6.030183837890625,0.0006108652451075613,-0.00045814894838258624,0.00015271631127689034
1772570928722019300,6.048019287109375,-0.0006108652451075613,-0.0010690141934901476,0.0010690141934901476
1772570928739853600,6.065853515625,-0.0007635815418325365,-0.0010690141934901476,-0.00045814894838258624
1772570928757690000,6.083690185546875,-0.00015271631127689034,-0.0022907445672899485,-0.001527163083665073
1772570928775524400,6.1015244140625,0.00015271631127689034,-0.00045814894838258624,0.001527163083665073
1772570928793360000,6.11935986328125,0.00045814894838258624,0.0009162978967651725,0.0007635815418325365
1772570928811194000,6.137194091796875,-0.00015271631127689034,0.0009162978967651725,0
1772570928829030700,6.15503076171875,0.00015271631127689034,0,0.0003054326225537807
1772570928846864600,6.17286474609375,0.00045814894838258624,-0.001527163083665073,-0.0009162978967651725
1772570928864704000,6.1907041015625,-0.00045814894838258624,0.0013744467869400978,0.0010690141934901476
1772570928882534700,6.20853466796875,0.00045814894838258624,-0.0012217304902151227,0.0003054326225537807
1772570928900359000,6.22635888671875,0.0006108652451075613,-0.0009162978967651725,0.00045814894838258624
1772570928918205200,6.244205078125,0.00015271631127689034,0.0025961773935705423,0.0003054326225537807
1772570928936038400,6.262038330078125,0.0006108652451075613,-0.0003054326225537807,0.001527163083665073
1772570928953875000,6.279875,-0.0009162978967651725,0.002138028386980295,0
1772570928971711000,6.2977109375,0.0006108652451075613,-0.0003054326225537807,0.0007635815418325365
1772570928989545700,6.315545654296875,0.0006108652451075613,-0.0009162978967651725,0.00015271631127689034
1772570929007381200,6.33338134765625,0.00045814894838258624,0.0007635815418325365,0.0006108652451075613
1772570929025215700,6.3512158203125,0.0006108652451075613,-0.00015271631127689034,0.0007635815418325365
1772570929043051300,6.36905126953125,0.0006108652451075613,0.0022907445672899485,0.002138028386980295
1772570929060886000,6.386885986328125,0.0007635815418325365,-0.0003054326225537807,-0.0003054326225537807
1772570929078721800,6.4047216796875,0.00015271631127689034,-0.0009162978967651725,-0.0003054326225537807
1772570929096553000,6.422552978515625,0.00015271631127689034,-0.0009162978967651725,-0.0003054326225537807
1772570929114395000,6.440394775390625,-0.00045814894838258624,0.0013744467869400978,0.0009162978967651725
1772570929132223700,6.4582236328125,0.0003054326225537807,0.0013744467869400978,0.0003054326225537807
1772570929150064400,6.476064453125,0.0013744467869400978,-0.0003054326225537807,-0.0007635815418325365
1772570929167895800,6.493895751953125,-0.0012217304902151227,-0.0007635815418325365,-0.0013744467869400978
1772570929185732000,6.511732177734375,0.0006108652451075613,-0.0006108652451075613,-0.0006108652451075613
1772570929203566600,6.529566650390625,0.00045814894838258624,-0.00045814894838258624,0.0013744467869400978
1772570929221402400,6.54740234375,0.00045814894838258624,-0.0009162978967651725,-0.0010690141934901476
1772570929239236400,6.565236328125,-0.0003054326225537807,0.0006108652451075613,-0.00015271631127689034
1772570929257057800,6.583057861328125,0.0006108652451075613,0.00015271631127689034,0.00045814894838258624
1772570929274910200,6.60091015625,0.0003054326225537807,-0.0009162978967651725,0.0012217304902151227
1772570929292743000,6.618742919921875,-0.00045814894838258624,0.0006108652451075613,0.0010690141934901476
1772570929310577400,6.636577392578125,-0.00045814894838258624,-0.0006108652451075613,-0.00045814894838258624
1772570929328413400,6.654413330078125,-0.00045814894838258624,0.0013744467869400978,0.0006108652451075613
1772570929346247400,6.672247314453125,0.00045814894838258624,0.001679879380390048,0.0013744467869400978
1772570929364079400,6.690079345703125,-0.00015271631127689034,0.0006108652451075613,-0.0009162978967651725
1772570929381917200,6.707917236328125,-0.00045814894838258624,-0.001527163083665073,0.00045814894838258624
1772570929399753200,6.725753173828125,-0.0006108652451075613,-0.0022907445672899485,-0.00045814894838258624
1772570929417588000,6.743587890625,0.00045814894838258624,0.0009162978967651725,0.001832595793530345
1772570929435423500,6.761423583984375,-0.00015271631127689034,-0.0009162978967651725,0.0006108652451075613
1772570929453258000,6.779258056640625,-0.0003054326225537807,0,0.00045814894838258624
1772570929471094000,6.797093994140625,0.00045814894838258624,-0.0013744467869400978,0.0012217304902151227
1772570929488928000,6.814927978515625,-0.0003054326225537807,-0.0006108652451075613,-0.0007635815418325365
1772570929506763800,6.832763671875,0,0.0003054326225537807,0.0010690141934901476
1772570929524598300,6.850598388671875,0.00045814894838258624,0.0007635815418325365,0.00015271631127689034
1772570929542434000,6.86843408203125,-0.00015271631127689034,0.0009162978967651725,0
1772570929560266500,6.8862666015625,-0.0006108652451075613,0,0.00015271631127689034
1772570929578106600,6.904106689453125,-0.00015271631127689034,0.0006108652451075613,0.0003054326225537807
1772570929595936000,6.92193603515625,0.0009162978967651725,-0.001679879380390048,0.0012217304902151227
1772570929613777400,6.93977734375,-0.0009162978967651725,0.0006108652451075613,-0.00045814894838258624
1772570929631608800,6.95760888671875,-0.0003054326225537807,0.001527163083665073,0.0012217304902151227
1772570929649444400,6.9754443359375,-0.00045814894838258624,-0.003817907767370343,-0.0006108652451075613
1772570929667278300,6.9932783203125,-0.00015271631127689034,0.0019853119738399982,0
1772570929685114600,7.011114501953125,-0.0003054326225537807,-0.0012217304902151227,0.0007635815418325365
1772570929702949000,7.02894921875,-0.00045814894838258624,-0.0019853119738399982,0.0009162978967651725
1772570929720784600,7.04678466796875,-0.00045814894838258624,-0.0013744467869400978,0.0007635815418325365
1772570929738619000,7.064618896484375,-0.00045814894838258624,0,-0.0006108652451075613
1772570929756455400,7.082455322265625,-0.0010690141934901476,0.0025961773935705423,0.0009162978967651725
1772570929774289400,7.100289306640625,0.0006108652451075613,0.0006108652451075613,0.00045814894838258624
1772570929792125400,7.11812548828125,-0.0007635815418325365,0.0007635815418325365,0.0003054326225537807
1772570929809959200,7.135959228515625,0.0007635815418325365,0.0012217304902151227,-0.0003054326225537807
1772570929827795700,7.153795654296875,-0.00045814894838258624,0.0003054326225537807,0.0003054326225537807
1772570929845630200,7.171630126953125,0.0003054326225537807,0.0019853119738399982,0.00015271631127689034
1772570929863465700,7.1894658203125,0.0003054326225537807,0.0003054326225537807,-0.0010690141934901476
1772570929881299700,7.2072998046875,0.0003054326225537807,-0.00045814894838258624,0.0010690141934901476
1772570929899136300,7.22513623046875,-0.0003054326225537807,-0.00015271631127689034,0.00045814894838258624
1772570929916970500,7.242970458984375,0.00015271631127689034,-0.0013744467869400978,0.0006108652451075613
1772570929934806000,7.260805908203125,-0.00045814894838258624,-0.0019853119738399982,-0.00015271631127689034
1772570929952640500,7.278640625,0.00045814894838258624,0.0012217304902151227,0.00045814894838258624
1772570929970476300,7.296476318359375,-0.00045814894838258624,-0.0027488935738801956,0.0009162978967651725
1772570929988310800,7.314310791015625,-0.0010690141934901476,0.0019853119738399982,-0.0003054326225537807
1772570930006145800,7.332145751953125,0.0010690141934901476,-0.00045814894838258624,-0.0013744467869400978
1772570930023980300,7.349980224609375,-0.0006108652451075613,-0.0006108652451075613,0.0007635815418325365
1772570930041816600,7.367816650390625,-0.0006108652451075613,0.0010690141934901476,0.0003054326225537807
1772570930059651300,7.3856513671875,-0.0009162978967651725,-0.00045814894838258624,-0.001679879380390048
1772570930077486800,7.40348681640625,-0.00045814894838258624,-0.00015271631127689034,-0.0007635815418325365
1772570930095321000,7.421321044921875,-0.0006108652451075613,0.0006108652451075613,0.0010690141934901476
1772570930113157000,7.4391572265625,-0.0013744467869400978,-0.0012217304902151227,-0.001832595793530345
1772570930130991000,7.4569912109375,-0.00045814894838258624,0.0009162978967651725,-0.00045814894838258624
1772570930148827000,7.474826904296875,0.0003054326225537807,-0.001527163083665073,-0.0006108652451075613
1772570930166661000,7.4926611328125,-0.0003054326225537807,-0.0022907445672899485,0.00045814894838258624
1772570930184497200,7.5104970703125,-0.00045814894838258624,-0.0012217304902151227,-0.0013744467869400978
1772570930202331400,7.528331298828125,-0.0007635815418325365,0.00015271631127689034,0.0007635815418325365
1772570930220160000,7.546159912109375,0.00045814894838258624,-0.0010690141934901476,-0.0007635815418325365
1772570930237988900,7.56398876953125,0.0003054326225537807,-0.0003054326225537807,0.00045814894838258624
1772570930255838000,7.581837890625,0.00015271631127689034,-0.0007635815418325365,-0.00045814894838258624
1772570930273672000,7.599671875,0.0003054326225537807,0.0006108652451075613,-0.0007635815418325365
1772570930291507500,7.617507568359375,-0.0006108652451075613,-0.0019853119738399982,0.0006108652451075613
1772570930309342200,7.63534228515625,0.00015271631127689034,-0.0007635815418325365,-0.0012217304902151227
1772570930327178200,7.65317822265625,-0.0009162978967651725,0,-0.00045814894838258624
1772570930345012700,7.6710126953125,0.00015271631127689034,-0.00015271631127689034,0.0006108652451075613
1772570930362848300,7.68884814453125,0.0006108652451075613,0,0.00045814894838258624
1772570930380682500,7.7066826171875,-0.00015271631127689034,0.00045814894838258624,0.00015271631127689034
1772570930398518500,7.7245185546875,0.00015271631127689034,-0.0012217304902151227,-0.0006108652451075613
1772570930416353000,7.74235302734375,0,0.001527163083665073,0.0012217304902151227
1772570930434188300,7.760188232421875,0.0006108652451075613,0.0006108652451075613,0.0013744467869400978
1772570930452022500,7.7780224609375,0,-0.001679879380390048,0.0010690141934901476
1772570930469858800,7.79585888671875,0.0003054326225537807,0.001832595793530345,-0.001527163083665073
1772570930487692800,7.81369287109375,-0.00015271631127689034,0,-0.0003054326225537807
1772570930505528300,7.8315283203125,-0.00015271631127689034,0.001527163083665073,-0.0006108652451075613
1772570930523363000,7.849363037109375,-0.00045814894838258624,-0.0007635815418325365,-0.0013744467869400978
1772570930541198800,7.86719873046875,-0.0006108652451075613,0.0025961773935705423,0.0009162978967651725
1772570930559033600,7.88503369140625,0.0013744467869400978,-0.00015271631127689034,0.0010690141934901476
1772570930576869000,7.902869140625,0.0013744467869400978,0,-0.0010690141934901476
1772570930594703000,7.920703125,-0.0012217304902151227,0.0003054326225537807,-0.0006108652451075613
1772570930612539600,7.93853955078125,-0.00015271631127689034,0.0003054326225537807,-0.0009162978967651725
1772570930630374000,7.956373779296875,-0.0003054326225537807,-0.00045814894838258624,-0.00015271631127689034
1772570930648209200,7.974209228515625,-0.00015271631127689034,-0.0027488935738801956,0.0009162978967651725
1772570930666024400,7.9920244140625,-0.0003054326225537807,-0.003359758760780096,-0.0019853119738399982
1772570930683880000,8.0098798828125,-0.00015271631127689034,-0.001527163083665073,-0.0009162978967651725
1772570930701720800,8.027720947265625,-0.00015271631127689034,0.0009162978967651725,0.0007635815418325365
1772570930719549700,8.0455498046875,0,-0.00045814894838258624,-0.0013744467869400978
1772570930737371600,8.06337158203125,0.0003054326225537807,0.00015271631127689034,-0.0003054326225537807
1772570930755220200,8.08122021484375,0.0003054326225537807,0,0.00045814894838258624
1772570930773055000,8.099054931640625,-0.00015271631127689034,-0.0007635815418325365,0.00045814894838258624
1772570930790890200,8.11689013671875,0.0006108652451075613,0.0013744467869400978,-0.00015271631127689034
1772570930808723000,8.134722900390624,-0.00015271631127689034,0.0006108652451075613,0.00045814894838258624
1772570930826560800,8.152560791015626,-0.0006108652451075613,0.0006108652451075613,0.0003054326225537807
1772570930844395300,8.170395263671875,0.00015271631127689034,-0.0010690141934901476,0
1772570930862227700,8.188227783203125,-0.0006108652451075613,0.0009162978967651725,-0.0012217304902151227
1772570930880064800,8.206064697265624,-0.00015271631127689034,0.002138028386980295,0.0006108652451075613
1772570930897901300,8.2239013671875,0,-0.001679879380390048,0.0007635815418325365
1772570930915737900,8.24173779296875,-0.00015271631127689034,-0.0010690141934901476,0.0012217304902151227
1772570930933569500,8.259569580078125,0.00045814894838258624,0.002138028386980295,-0.0009162978967651725
1772570930951405800,8.27740576171875,0.0006108652451075613,0.0013744467869400978,0.0003054326225537807
1772570930969241000,8.295240966796875,0.00015271631127689034,0.00015271631127689034,0.0009162978967651725
1772570930987075000,8.313074951171876,-0.0003054326225537807,0,0.00015271631127689034
1772570931004910800,8.330910888671875,0.00045814894838258624,-0.0010690141934901476,0.00045814894838258624
1772570931022745300,8.348745361328126,-0.00045814894838258624,-0.00045814894838258624,0.00015271631127689034
1772570931040581400,8.366581298828125,-0.00045814894838258624,-0.001527163083665073,-0.0019853119738399982
1772570931058415900,8.384415771484376,0.00045814894838258624,-0.0006108652451075613,-0.0006108652451075613
1772570931076250000,8.40225,0.0003054326225537807,0.00015271631127689034,-0.0003054326225537807
1772570931094087200,8.420087158203126,-0.00015271631127689034,-0.0010690141934901476,0.0009162978967651725
1772570931111922000,8.437921875,-0.00045814894838258624,-0.00045814894838258624,0.00015271631127689034
1772570931129756000,8.455755859375,-0.0009162978967651725,0.0007635815418325365,-0.0013744467869400978
1772570931147592000,8.473592041015625,0.00015271631127689034,0.0006108652451075613,-0.00045814894838258624
1772570931165426000,8.491426025390625,0.0009162978967651725,-0.00045814894838258624,0.0007635815418325365
1772570931183262200,8.50926220703125,0.00045814894838258624,0.0006108652451075613,-0.001832595793530345
1772570931201096700,8.5270966796875,0.00015271631127689034,-0.0013744467869400978,-0.0013744467869400978
1772570931218932200,8.54493212890625,-0.0006108652451075613,0.0019853119738399982,0.0003054326225537807
1772570931236766500,8.562766357421875,-0.00015271631127689034,0.00015271631127689034,0.0009162978967651725
1772570931254602800,8.580602783203124,-0.0006108652451075613,-0.0007635815418325365,-0.0009162978967651725
1772570931272437000,8.59843701171875,-0.0003054326225537807,-0.0006108652451075613,0.0003054326225537807
1772570931290272300,8.616272216796874,0.0006108652451075613,-0.00045814894838258624,0.0003054326225537807
1772570931308106500,8.6341064453125,-0.0006108652451075613,-0.0012217304902151227,-0.0009162978967651725
1772570931325942800,8.65194287109375,-0.00045814894838258624,0.00045814894838258624,-0.0006108652451075613
1772570931343777000,8.669777099609375,-0.0009162978967651725,0.0009162978967651725,0.0003054326225537807
1772570931361612800,8.68761279296875,0.00015271631127689034,0.00045814894838258624,-0.0009162978967651725
1772570931379447300,8.705447265625,-0.0032070425804704428,0.028099801391363144,0.01970040425658226
1772570931397283300,8.723283447265626,-0.0025961773935705423,0.01970040425658226,0.01237002108246088
1772570931415117600,8.74111767578125,0.0012217304902151227,0.0003054326225537807,0.00045814894838258624
1772570931432943400,8.758943359375,0.0007635815418325365,-0.009468411095440388,-0.004123340360820293
1772570931450787000,8.776787109375,-0.00015271631127689034,-0.001679879380390048,-0.001679879380390048
1772570931468623400,8.794623291015625,-0.0006108652451075613,-0.00045814894838258624,0.0006108652451075613
