time,seconds_elapsed,z,y,x
1772570922863168800,0.189168701171875,9.753743171691895,0.05024927482008934,0.5048855543136597
1772570922881004300,0.20700439453125,9.753743171691895,0.04546362906694412,0.5000999569892883
1772570922898839300,0.22483935546875,9.753743171691895,0.040677983313798904,0.4953143000602722
1772570922916674600,0.242674560546875,9.739386558532715,0.04546362906694412,0.5000999569892883
1772570922934509600,0.260509521484375,9.758528709411621,0.05024927482008934,0.4953143000602722
1772570922952345000,0.278344970703125,9.758528709411621,0.04546362906694412,0.5096712112426758
1772570922970180000,0.29618017578125,9.748957633972168,0.05024927482008934,0.5000999569892883
1772570922988015600,0.314015625,9.748957633972168,0.05024927482008934,0.5000999569892883
1772570923005850600,0.3318505859375,9.748957633972168,0.040677983313798904,0.5048855543136597
1772570923023686100,0.34968603515625,9.753743171691895,0.05024927482008934,0.5000999569892883
1772570923041520600,0.367520751953125,9.748957633972168,0.04546362906694412,0.4953143000602722
1772570923059356200,0.385356201171875,9.753743171691895,0.040677983313798904,0.5048855543136597
1772570923077177300,0.40317724609375,9.763314247131348,0.046061836183071136,0.5096712112426758
1772570923095014100,0.42101416015625,9.753743171691895,0.04546362906694412,0.5048855543136597
1772570923112850400,0.438850341796875,9.753743171691895,0.05024927482008934,0.5048855543136597
1772570923130691300,0.45669140625,9.758528709411621,0.05024927482008934,0.4953143000602722
1772570923148529000,0.47452880859375,9.744172096252441,0.040677983313798904,0.5000999569892883
1772570923166370600,0.49237060546875,9.758528709411621,0.05024927482008934,0.5096712112426758
1772570923184202500,0.510202392578125,9.748957633972168,0.05024927482008934,0.4953143000602722
1772570923202037800,0.528037841796875,9.744172096252441,0.04546362906694412,0.5048855543136597
1772570923219872800,0.545872802734375,9.748957633972168,0.040677983313798904,0.5048855543136597
1772570923237707500,0.56370751953125,9.744172096252441,0.05024927482008934,0.5000999569892883
1772570923255543000,0.58154296875,9.758528709411621,0.0364905446767807,0.5048855543136597
1772570923273378300,0.59937841796875,9.753743171691895,0.031106693670153618,0.5048855543136597
1772570923291213300,0.61721337890625,9.753743171691895,0.05024927482008934,0.5048855543136597
1772570923309048300,0.63504833984375,9.753743171691895,0.05024927482008934,0.5144568681716919
1772570923326881300,0.65288134765625,9.748957633972168,0.040677983313798904,0.4953143000602722
1772570923344722400,0.670722412109375,9.744172096252441,0.04546362906694412,0.5048855543136597
1772570923362554000,0.68855419921875,9.753743171691895,0.04546362906694412,0.5000999569892883
1772570923380389000,0.70638916015625,9.763314247131348,0.035892341285943985,0.5048855543136597
1772570923398224400,0.724224365234375,9.739386558532715,0.05024927482008934,0.5000999569892883
1772570923416059400,0.742059326171875,9.753743171691895,0.04546362906694412,0.5096712112426758
1772570923433894700,0.759894775390625,9.748957633972168,0.05024927482008934,0.4953143000602722
1772570923451730000,0.77772998046875,9.753743171691895,0.040677983313798904,0.5000999569892883
1772570923469565400,0.7955654296875,9.753743171691895,0.040677983313798904,0.5000999569892883
1772570923487400400,0.813400390625,9.753743171691895,0.04546362906694412,0.5000999569892883
1772570923505235700,0.831235595703125,9.753743171691895,0.040677983313798904,0.5000999569892883
1772570923523071000,0.849071044921875,9.753743171691895,0.040677983313798904,0.5048855543136597
1772570923540906000,0.866906005859375,9.753743171691895,0.040677983313798904,0.5048855543136597
1772570923558741000,0.884740966796875,9.748957633972168,0.040677983313798904,0.5048855543136597
1772570923576576300,0.902576171875,9.753743171691895,0.04546362906694412,0.5096712112426758
1772570923594411300,0.920411376953125,9.758528709411621,0.035892341285943985,0.5000999569892883
1772570923612246500,0.93824658203125,9.758528709411621,0.04546362906694412,0.5000999569892883
1772570923630082000,0.95608203125,9.753743171691895,0.04546362906694412,0.5000999569892883
1772570923647917000,0.9739169921875,9.748957633972168,0.05024927482008934,0.5096712112426758
1772570923665752000,0.991751953125,9.748957633972168,0.040677983313798904,0.5000999569892883
1772570923683587300,1.00958740234375,9.758528709411621,0.040677983313798904,0.5000999569892883
1772570923701422600,1.027422607421875,9.768099784851074,0.031106693670153618,0.5000999569892883
1772570923719257900,1.0452578125,9.748957633972168,0.05024927482008934,0.5000999569892883
1772570923737089500,1.063089599609375,9.758528709411621,0.040677983313798904,0.5000999569892883
1772570923754926800,1.0809267578125,9.758528709411621,0.04546362906694412,0.5144568681716919
1772570923772767200,1.098767333984375,9.753743171691895,0.04546362906694412,0.5000999569892883
1772570923790595800,1.116595947265625,9.753743171691895,0.04546362906694412,0.4953143000602722
1772570923808436200,1.134436279296875,9.753743171691895,0.040677983313798904,0.5048855543136597
1772570923826266000,1.15226611328125,9.748957633972168,0.04546362906694412,0.4905286431312561
1772570923844106500,1.1701064453125,9.753743171691895,0.05024927482008934,0.5000999569892883
1772570923861938700,1.187938720703125,9.758528709411621,0.04546362906694412,0.5048855543136597
1772570923879774000,1.20577392578125,9.758528709411621,0.035892341285943985,0.5000999569892883
1772570923897609000,1.22360888671875,9.758528709411621,0.04546362906694412,0.5000999569892883
1772570923915444000,1.24144384765625,9.758528709411621,0.04546362906694412,0.5048855543136597
1772570923933279500,1.259279541015625,9.748957633972168,0.05024927482008934,0.5000999569892883
1772570923951114800,1.27711474609375,9.753743171691895,0.04546362906694412,0.5048855543136597
1772570923968949500,1.294949462890625,9.748957633972168,0.035892341285943985,0.5048855543136597
1772570923986785000,1.312784912109375,9.753743171691895,0.040677983313798904,0.5048855543136597
1772570924004620300,1.330620361328125,9.753743171691895,0.05024927482008934,0.5000999569892883
1772570924022455300,1.348455322265625,9.739386558532715,0.04546362906694412,0.4905286431312561
1772570924040290600,1.36629052734375,9.753743171691895,0.035892341285943985,0.5000999569892883
1772570924058125800,1.384125732421875,9.763314247131348,0.04546362906694412,0.5048855543136597
1772570924075960800,1.4019609375,9.758528709411621,0.04546362906694412,0.5048855543136597
1772570924093796000,1.419796142578125,9.753743171691895,0.04546362906694412,0.5048855543136597
1772570924111631400,1.43763134765625,9.748957633972168,0.04546362906694412,0.5000999569892883
1772570924129465900,1.4554658203125,9.758528709411621,0.04546362906694412,0.5000999569892883
1772570924147301400,1.47330126953125,9.753743171691895,0.040677983313798904,0.5048855543136597
1772570924165136400,1.491136474609375,9.753743171691895,0.04546362906694412,0.5048855543136597
1772570924182972000,1.508971923828125,9.748957633972168,0.04546362906694412,0.5000999569892883
1772570924200807000,1.526806884765625,9.768099784851074,0.046061836183071136,0.5000999569892883
1772570924218642000,1.544641845703125,9.753743171691895,0.05024927482008934,0.4953143000602722
1772570924236477200,1.562477294921875,9.753743171691895,0.04546362906694412,0.5000999569892883
1772570924254309600,1.5803095703125,9.758528709411621,0.04546362906694412,0.5000999569892883
1772570924272151000,1.598151123046875,9.753743171691895,0.04546362906694412,0.5048855543136597
1772570924289982500,1.615982421875,9.763314247131348,0.040677983313798904,0.5000999569892883
1772570924307818200,1.633818359375,9.758528709411621,0.04546362906694412,0.5096712112426758
1772570924325653200,1.6516533203125,9.748957633972168,0.040677983313798904,0.5000999569892883
1772570924343488300,1.66948828125,9.748957633972168,0.04546362906694412,0.5048855543136597
1772570924361323300,1.6873232421875,9.753743171691895,0.05024927482008934,0.5048855543136597
1772570924379158300,1.705158203125,9.753743171691895,0.05503492057323456,0.4953143000602722
1772570924396981000,1.72298095703125,9.758528709411621,0.05024927482008934,0.5096712112426758
1772570924414828800,1.740828857421875,9.744172096252441,0.040677983313798904,0.5096712112426758
1772570924432663800,1.758663818359375,9.753743171691895,0.04546362906694412,0.5096712112426758
1772570924450499300,1.776499267578125,9.758528709411621,0.04546362906694412,0.4905286431312561
1772570924468334600,1.79433447265625,9.753743171691895,0.04546362906694412,0.4905286431312561
1772570924486169900,1.812169921875,9.763314247131348,0.040677983313798904,0.5000999569892883
1772570924504004900,1.8300048828125,9.768099784851074,0.05503492057323456,0.5000999569892883
1772570924521840400,1.84784033203125,9.748957633972168,0.04546362906694412,0.5048855543136597
1772570924539675100,1.865675048828125,9.758528709411621,0.04546362906694412,0.5048855543136597
1772570924557510400,1.883510498046875,9.753743171691895,0.040677983313798904,0.5048855543136597
1772570924575345700,1.901345703125,9.763314247131348,0.04546362906694412,0.5048855543136597
1772570924593180700,1.9191806640625,9.758528709411621,0.04546362906694412,0.5000999569892883
1772570924611015400,1.937015380859375,9.768099784851074,0.05024927482008934,0.5048855543136597
1772570924628850400,1.954850341796875,9.753743171691895,0.040677983313798904,0.5096712112426758
1772570924646686500,1.9726865234375,9.763314247131348,0.05024927482008934,0.5000999569892883
1772570924664521200,1.990521240234375,9.758528709411621,0.04546362906694412,0.5048855543136597
1772570924682357000,2.00835693359375,9.763314247131348,0.05563312768936157,0.5096712112426758
1772570924700191200,2.026191162109375,9.768099784851074,0.0364905446767807,0.5048855543136597
1772570924718026500,2.044026611328125,9.753743171691895,0.040677983313798904,0.5096712112426758
1772570924735861800,2.06186181640625,9.758528709411621,0.035892341285943985,0.5048855543136597
1772570924753697300,2.079697265625,9.758528709411621,0.040677983313798904,0.5096712112426758
1772570924771531800,2.09753173828125,9.753743171691895,0.04546362906694412,0.5048855543136597
1772570924789367800,2.115367919921875,9.758528709411621,0.05024927482008934,0.5000999569892883
1772570924807203000,2.133203125,9.753743171691895,0.040677983313798904,0.5048855543136597
1772570924825038000,2.1510380859375,9.758528709411621,0.04546362906694412,0.5048855543136597
1772570924842866700,2.16886669921875,9.772886276245117,0.050847481936216354,0.5000999569892883
1772570924860701700,2.18670166015625,9.748957633972168,0.035892341285943985,0.5000999569892883
1772570924878543400,2.20454345703125,9.744172096252441,0.040677983313798904,0.5000999569892883
1772570924896362800,2.22236279296875,9.758528709411621,0.04546362906694412,0.5000999569892883
1772570924914214000,2.2402138671875,9.753743171691895,0.05024927482008934,0.5000999569892883
1772570924932037400,2.258037353515625,9.768099784851074,0.05503492057323456,0.5000999569892883
1772570924949884000,2.2758837890625,9.758528709411621,0.04546362906694412,0.4953143000602722
1772570924967719200,2.29371923828125,9.763314247131348,0.046061836183071136,0.5144568681716919
1772570924985554400,2.311554443359375,9.753743171691895,0.05503492057323456,0.5000999569892883
1772570925003389400,2.329389404296875,9.763314247131348,0.040677983313798904,0.4953143000602722
1772570925021224700,2.347224609375,9.748957633972168,0.04546362906694412,0.5000999569892883
1772570925039059700,2.365059814453125,9.758528709411621,0.04546362906694412,0.5048855543136597
1772570925056895200,2.382895263671875,9.758528709411621,0.05024927482008934,0.5000999569892883
1772570925074727400,2.4007275390625,9.763314247131348,0.04546362906694412,0.5048855543136597
1772570925092564700,2.418564697265625,9.768099784851074,0.035892341285943985,0.4953143000602722
1772570925110403800,2.43640380859375,9.768099784851074,0.040677983313798904,0.5000999569892883
1772570925128234500,2.454234375,9.763314247131348,0.04546362906694412,0.5000999569892883
1772570925146071600,2.472071533203125,9.758528709411621,0.04546362906694412,0.5000999569892883
1772570925163905800,2.48990576171875,9.758528709411621,0.05503492057323456,0.5000999569892883
1772570925181741300,2.5077412109375,9.763314247131348,0.04546362906694412,0.5048855543136597
1772570925199572200,2.525572265625,9.758528709411621,0.040677983313798904,0.5048855543136597
1772570925217415200,2.543415283203125,9.748957633972168,0.05024927482008934,0.5000999569892883
1772570925235246600,2.56124658203125,9.758528709411621,0.05503492057323456,0.5048855543136597
1772570925253081300,2.579081298828125,9.758528709411621,0.040677983313798904,0.4953143000602722
1772570925270917000,2.596917236328125,9.753743171691895,0.040677983313798904,0.5000999569892883
1772570925288739600,2.614739501953125,9.758528709411621,0.040677983313798904,0.5000999569892883
1772570925306587600,2.632587646484375,9.758528709411621,0.05024927482008934,0.5000999569892883
1772570925324419300,2.65041943359375,9.753743171691895,0.05503492057323456,0.5000999569892883
1772570925342260700,2.6682607421875,9.753743171691895,0.040677983313798904,0.5000999569892883
1772570925360092700,2.6860927734375,9.758528709411621,0.040677983313798904,0.5000999569892883
1772570925377928200,2.70392822265625,9.768099784851074,0.0364905446767807,0.5048855543136597
1772570925395763000,2.721762939453125,9.758528709411621,0.04546362906694412,0.5048855543136597
1772570925413598200,2.73959814453125,9.753743171691895,0.04546362906694412,0.4953143000602722
1772570925431433500,2.75743359375,9.768099784851074,0.04546362906694412,0.5096712112426758
1772570925449268500,2.7752685546875,9.758528709411621,0.05024927482008934,0.5048855543136597
1772570925467103700,2.793103759765625,9.758528709411621,0.040677983313798904,0.5096712112426758
1772570925484939000,2.81093896484375,9.763314247131348,0.04546362906694412,0.5000999569892883
1772570925502774500,2.8287744140625,9.758528709411621,0.05024927482008934,0.4953143000602722
1772570925520609500,2.846609619140625,9.744172096252441,0.04546362906694412,0.5000999569892883
1772570925538444300,2.8644443359375,9.758528709411621,0.040677983313798904,0.5000999569892883
1772570925556275500,2.882275390625,9.744172096252441,0.040677983313798904,0.5048855543136597
1772570925574119200,2.900119140625,9.753743171691895,0.04546362906694412,0.5048855543136597
1772570925591950000,2.9179501953125,9.758528709411621,0.04546362906694412,0.4953143000602722
1772570925609785000,2.93578515625,9.758528709411621,0.05024927482008934,0.4953143000602722
1772570925627620400,2.953620361328125,9.753743171691895,0.040677983313798904,0.5048855543136597
1772570925645455400,2.971455322265625,9.753145217895508,0.04546362906694412,0.5000999569892883
1772570925663290600,2.98929052734375,9.762716293334961,0.046061836183071136,0.5096712112426758
1772570925681126000,3.0071259765625,9.753145217895508,0.05024927482008934,0.5000999569892883
1772570925698961000,3.0249609375,9.757930755615234,0.046061836183071136,0.5048855543136597
1772570925716796000,3.0427958984375,9.758528709411621,0.05024927482008934,0.5048855543136597
1772570925734631400,3.06063134765625,9.753743171691895,0.05024927482008934,0.5048855543136597
1772570925752467000,3.078467041015625,9.753743171691895,0.05024927482008934,0.5000999569892883
1772570925770301400,3.096301513671875,9.758528709411621,0.05024927482008934,0.5048855543136597
1772570925788137200,3.11413720703125,9.753743171691895,0.05024927482008934,0.5048855543136597
1772570925805972200,3.13197216796875,9.758528709411621,0.040677983313798904,0.5048855543136597
1772570925823807200,3.14980712890625,9.753743171691895,0.04546362906694412,0.5048855543136597
1772570925841642500,3.167642578125,9.748957633972168,0.040677983313798904,0.5048855543136597
1772570925859477800,3.185477783203125,9.753743171691895,0.05024927482008934,0.5000999569892883
1772570925877313000,3.20331298828125,9.762716293334961,0.050847481936216354,0.5048855543136597
1772570925895148000,3.22114794921875,9.753743171691895,0.035892341285943985,0.4953143000602722
1772570925912976000,3.238975830078125,9.748957633972168,0.04546362906694412,0.5000999569892883
1772570925930818000,3.256818115234375,9.753743171691895,0.04546362906694412,0.5000999569892883
1772570925948653800,3.27465380859375,9.753743171691895,0.040677983313798904,0.5000999569892883
1772570925966488300,3.29248828125,9.763314247131348,0.04546362906694412,0.5000999569892883
1772570925984323600,3.310323486328125,9.744172096252441,0.04546362906694412,0.5096712112426758
1772570926002158800,3.328158935546875,9.753743171691895,0.040677983313798904,0.4953143000602722
1772570926019993900,3.345993896484375,9.744172096252441,0.04546362906694412,0.5000999569892883
1772570926037828900,3.363828857421875,9.748957633972168,0.04546362906694412,0.5048855543136597
1772570926055649000,3.38164892578125,9.762716293334961,0.046061836183071136,0.5048855543136597
1772570926073502700,3.399502685546875,9.758528709411621,0.040677983313798904,0.4953143000602722
1772570926091334700,3.417334716796875,9.753743171691895,0.040677983313798904,0.5048855543136597
1772570926109170000,3.435169921875,9.758528709411621,0.046061836183071136,0.5096712112426758
1772570926127005200,3.453005126953125,9.748957633972168,0.035892341285943985,0.5048855543136597
1772570926144840400,3.47084033203125,9.748957633972168,0.040677983313798904,0.5048855543136597
1772570926162660600,3.48866064453125,9.758528709411621,0.040677983313798904,0.4953143000602722
1772570926180510500,3.506510498046875,9.753743171691895,0.04546362906694412,0.4953143000602722
1772570926198345500,3.524345458984375,9.758528709411621,0.05024927482008934,0.4953143000602722
1772570926216168400,3.54216845703125,9.758528709411621,0.040677983313798904,0.5048855543136597
1772570926234018300,3.560018310546875,9.739386558532715,0.05503492057323456,0.5096712112426758
1772570926251851300,3.577851318359375,9.753743171691895,0.035892341285943985,0.4905286431312561
1772570926269686500,3.5956865234375,9.744172096252441,0.04546362906694412,0.5000999569892883
1772570926287521800,3.613521728515625,9.744172096252441,0.040677983313798904,0.5000999569892883
1772570926305357000,3.631357177734375,9.753743171691895,0.04546362906694412,0.5048855543136597
1772570926323192300,3.6491923828125,9.748957633972168,0.040677983313798904,0.5048855543136597
1772570926341027300,3.66702734375,9.753743171691895,0.040677983313798904,0.5048855543136597
1772570926358862600,3.684862548828125,9.748957633972168,0.04546362906694412,0.5048855543136597
1772570926376697900,3.70269775390625,9.758528709411621,0.04546362906694412,0.5000999569892883
1772570926394532900,3.720532958984375,9.748957633972168,0.04546362906694412,0.5000999569892883
1772570926412368000,3.738367919921875,9.758528709411621,0.05024927482008934,0.5048855543136597
1772570926430203100,3.756203125,9.748957633972168,0.05024927482008934,0.5000999569892883
1772570926448038100,3.7740380859375,9.748957633972168,0.05024927482008934,0.5000999569892883
1772570926465873200,3.791873046875,9.739386558532715,0.035892341285943985,0.4953143000602722
1772570926483708400,3.80970849609375,9.758528709411621,0.04546362906694412,0.5096712112426758
1772570926501543700,3.827543701171875,9.753743171691895,0.04546362906694412,0.5000999569892883
1772570926519379000,3.84537890625,9.758528709411621,0.04546362906694412,0.5000999569892883
1772570926537214000,3.8632138671875,9.744172096252441,0.04546362906694412,0.5000999569892883
1772570926555049200,3.88104931640625,9.748957633972168,0.05024927482008934,0.5048855543136597
1772570926572884700,3.898884765625,9.753743171691895,0.05024927482008934,0.5048855543136597
1772570926590719700,3.9167197265625,9.748957633972168,0.04546362906694412,0.5048855543136597
1772570926608554800,3.9345546875,9.753743171691895,0.040677983313798904,0.5048855543136597
1772570926626390000,3.95239013671875,9.744172096252441,0.04546362906694412,0.5000999569892883
1772570926644228900,3.970228759765625,9.753743171691895,0.040677983313798904,0.5000999569892883
1772570926662051600,3.988051513671875,9.748957633972168,0.04546362906694412,0.5048855543136597
1772570926679895600,4.0058955078125,9.739386558532715,0.040677983313798904,0.5048855543136597
1772570926697730600,4.02373046875,9.748957633972168,0.035892341285943985,0.5000999569892883
1772570926715565800,4.04156591796875,9.753743171691895,0.04546362906694412,0.5000999569892883
1772570926733400800,4.05940087890625,9.763314247131348,0.04546362906694412,0.5000999569892883
1772570926751236400,4.077236328125,9.753743171691895,0.040677983313798904,0.4953143000602722
1772570926769071000,4.095071044921875,9.744172096252441,0.04546362906694412,0.5048855543136597
1772570926786906600,4.11290673828125,9.744172096252441,0.04546362906694412,0.5048855543136597
1772570926804741600,4.13074169921875,9.739386558532715,0.040677983313798904,0.5000999569892883
1772570926822577000,4.148576904296875,9.753743171691895,0.05024927482008934,0.5144568681716919
1772570926840412000,4.166411865234375,9.748957633972168,0.040677983313798904,0.4953143000602722
1772570926858247200,4.1842470703125,9.748957633972168,0.04546362906694412,0.5048855543136597
1772570926876082200,4.202082275390625,9.753743171691895,0.040677983313798904,0.5000999569892883
1772570926893917700,4.219917724609375,9.753743171691895,0.04546362906694412,0.5000999569892883
1772570926911752400,4.23775244140625,9.748957633972168,0.04546362906694412,0.5048855543136597
1772570926929587500,4.25558740234375,9.753743171691895,0.04546362906694412,0.5000999569892883
1772570926947422700,4.273422607421875,9.744172096252441,0.04546362906694412,0.5096712112426758
1772570926965258000,4.291258056640625,9.753743171691895,0.035892341285943985,0.5048855543136597
1772570926983093200,4.30909326171875,9.758528709411621,0.04546362906694412,0.5048855543136597
1772570927000928300,4.32692822265625,9.748957633972168,0.040677983313798904,0.4953143000602722
1772570927018763300,4.34476318359375,9.753743171691895,0.05503492057323456,0.50907301902771
1772570927036598500,4.3625986328125,9.748957633972168,0.04546362906694412,0.5042873620986938
1772570927054434000,4.38043408203125,9.744172096252441,0.04546362906694412,0.5042873620986938
1772570927072268800,4.398268798828125,9.753743171691895,0.04546362906694412,0.5000999569892883
1772570927090103800,4.416103759765625,9.753743171691895,0.04546362906694412,0.5000999569892883
1772570927107939600,4.433939697265625,9.758528709411621,0.04546362906694412,0.5048855543136597
1772570927125774300,4.4517744140625,9.748957633972168,0.04546362906694412,0.5048855543136597
1772570927143609900,4.46960986328125,9.748957633972168,0.04546362906694412,0.5048855543136597
1772570927161439700,4.487439697265625,9.744172096252441,0.04546362906694412,0.5000999569892883
1772570927179280000,4.50527978515625,9.744172096252441,0.04546362906694412,0.5048855543136597
1772570927197115400,4.523115478515625,9.744172096252441,0.04546362906694412,0.5000999569892883
1772570927214950400,4.540950439453125,9.734601020812988,0.04546362906694412,0.50907301902771
1772570927232785400,4.558785400390625,9.753743171691895,0.04546362906694412,0.5000999569892883
1772570927250620400,4.576620361328125,9.753743171691895,0.04546362906694412,0.5000999569892883
1772570927268453000,4.594453125,9.744172096252441,0.04546362906694412,0.5000999569892883
1772570927286293800,4.612293701171875,9.744172096252441,0.040677983313798904,0.4953143000602722
1772570927304126000,4.6301259765625,9.744172096252441,0.040677983313798904,0.5000999569892883
1772570927321961200,4.647961181640625,9.739386558532715,0.04546362906694412,0.5048855543136597
1772570927339796200,4.665796142578125,9.748957633972168,0.04546362906694412,0.5000999569892883
1772570927357630200,4.683630126953125,9.744172096252441,0.04546362906694412,0.4953143000602722
1772570927375468000,4.701468017578125,9.744172096252441,0.035892341285943985,0.5048855543136597
1772570927393299500,4.719299560546875,9.748957633972168,0.04546362906694412,0.5048855543136597
1772570927411139000,4.73713916015625,9.748957633972168,0.040677983313798904,0.5096712112426758
1772570927428972000,4.754971923828125,9.748957633972168,0.040677983313798904,0.5048855543136597
1772570927446807000,4.77280712890625,9.748957633972168,0.04546362906694412,0.4953143000602722
1772570927464642300,4.790642333984375,9.748957633972168,0.04546362906694412,0.5000999569892883
1772570927482477300,4.808477294921875,9.744172096252441,0.040677983313798904,0.5000999569892883
1772570927500312300,4.826312255859375,9.744172096252441,0.04546362906694412,0.4953143000602722
1772570927518147600,4.844147705078125,9.748957633972168,0.04546362906694412,0.5000999569892883
1772570927535978500,4.861978515625,9.739386558532715,0.035892341285943985,0.5096712112426758
1772570927553818000,4.879818115234375,9.748957633972168,0.035892341285943985,0.5096712112426758
1772570927571653000,4.897653076171875,9.748957633972168,0.04546362906694412,0.5042873620986938
1772570927589488400,4.91548828125,9.748957633972168,0.04546362906694412,0.4995017349720001
1772570927607323600,4.93332373046875,9.744172096252441,0.04546362906694412,0.5042873620986938
1772570927625158700,4.95115869140625,9.744172096252441,0.040677983313798904,0.4995017349720001
1772570927642994000,4.968993896484375,9.748957633972168,0.040677983313798904,0.5048855543136597
1772570927660829000,4.986828857421875,9.748957633972168,0.040677983313798904,0.5048855543136597
1772570927678664400,5.00466455078125,9.744172096252441,0.040677983313798904,0.5048855543136597
1772570927696499500,5.02249951171875,9.748957633972168,0.04546362906694412,0.4953143000602722
1772570927714334200,5.040334228515625,9.739386558532715,0.035892341285943985,0.5000999569892883
1772570927732169500,5.05816943359375,9.734601020812988,0.035892341285943985,0.4953143000602722
1772570927750005000,5.0760048828125,9.744172096252441,0.04546362906694412,0.5000999569892883
1772570927767839500,5.093839599609375,9.744172096252441,0.040677983313798904,0.5000999569892883
1772570927785674800,5.1116748046875,9.748957633972168,0.04546362906694412,0.5048855543136597
1772570927803510000,5.129510009765625,9.748957633972168,0.04546362906694412,0.5048855543136597
1772570927821344800,5.1473447265625,9.734601020812988,0.04546362906694412,0.50907301902771
1772570927839180000,5.165179931640625,9.744172096252441,0.04546362906694412,0.5000999569892883
1772570927857015600,5.183015625,9.739386558532715,0.05024927482008934,0.5048855543136597
1772570927874850600,5.2008505859375,9.744172096252441,0.04546362906694412,0.5048855543136597
1772570927892685600,5.218685546875,9.748957633972168,0.05024927482008934,0.5048855543136597
1772570927910520800,5.236520751953125,9.744172096252441,0.04546362906694412,0.5048855543136597
1772570927928356000,5.254356201171875,9.744172096252441,0.04546362906694412,0.5042873620986938
1772570927946190800,5.27219091796875,9.748957633972168,0.05024927482008934,0.4995017349720001
1772570927964007700,5.290007568359375,9.758528709411621,0.035892341285943985,0.5048855543136597
1772570927981848800,5.307848876953125,9.753743171691895,0.04546362906694412,0.5042873620986938
1772570927999696400,5.3256962890625,9.748957633972168,0.04546362906694412,0.5042873620986938
1772570928017532000,5.343531982421875,9.739386558532715,0.04546362906694412,0.4995017349720001
1772570928035355100,5.361355224609375,9.748957633972168,0.05024927482008934,0.5042873620986938
1772570928053202200,5.3792021484375,9.739386558532715,0.04546362906694412,0.5042873620986938
1772570928071037200,5.397037109375,9.748957633972168,0.040677983313798904,0.4953143000602722
1772570928088860400,5.4148603515625,9.744172096252441,0.05024927482008934,0.5000999569892883
1772570928106707500,5.43270751953125,9.748957633972168,0.040677983313798904,0.5048855543136597
1772570928124542500,5.45054248046875,9.739386558532715,0.05024927482008934,0.5042873620986938
1772570928142377500,5.46837744140625,9.739386558532715,0.04546362906694412,0.5042873620986938
1772570928160213000,5.486212890625,9.748957633972168,0.05503492057323456,0.4995017349720001
1772570928178048000,5.504048095703125,9.739386558532715,0.05503492057323456,0.5138586759567261
1772570928195883000,5.521883056640625,9.753743171691895,0.05024927482008934,0.4995017349720001
1772570928213715500,5.539715576171875,9.748957633972168,0.04546362906694412,0.494716078042984
1772570928231554800,5.557554931640625,9.744172096252441,0.04546362906694412,0.50907301902771
1772570928249389000,5.57538916015625,9.758528709411621,0.04546362906694412,0.5042873620986938
1772570928267223000,5.59322314453125,9.739386558532715,0.035892341285943985,0.50907301902771
1772570928285058000,5.61105810546875,9.739386558532715,0.05503492057323456,0.4995017349720001
1772570928302893600,5.6288935546875,9.744172096252441,0.04546362906694412,0.5042873620986938
1772570928320728600,5.646728515625,9.739386558532715,0.04546362906694412,0.5042873620986938
1772570928338563600,5.6645634765625,9.734601020812988,0.04546362906694412,0.4899304509162903
1772570928356399000,5.682399169921875,9.748957633972168,0.05024927482008934,0.5042873620986938
1772570928374234000,5.700234130859375,9.753743171691895,0.04546362906694412,0.50907301902771
1772570928392069400,5.7180693359375,9.744172096252441,0.04546362906694412,0.4995017349720001
1772570928409904000,5.735904052734375,9.753743171691895,0.035892341285943985,0.4995017349720001
1772570928427739400,5.753739501953125,9.748957633972168,0.040677983313798904,0.4995017349720001
1772570928445574700,5.77157470703125,9.739386558532715,0.040677983313798904,0.50907301902771
1772570928463390700,5.789390625,9.748957633972168,0.040677983313798904,0.4995017349720001
1772570928481245000,5.807244873046875,9.744172096252441,0.05503492057323456,0.5042873620986938
1772570928499080400,5.82508056640625,9.744172096252441,0.04546362906694412,0.5042873620986938
1772570928516915000,5.8429150390625,9.744172096252441,0.04546362906694412,0.494716078042984
1772570928534750200,5.860750244140625,9.739386558532715,0.04546362906694412,0.5042873620986938
1772570928552585500,5.87858544921875,9.734601020812988,0.040677983313798904,0.5042873620986938
1772570928570420000,5.896419921875,9.739386558532715,0.04546362906694412,0.5042873620986938
1772570928588255500,5.91425537109375,9.748957633972168,0.04546362906694412,0.4995017349720001
1772570928606090500,5.932090576171875,9.739386558532715,0.04546362906694412,0.494716078042984
1772570928623925800,5.94992578125,9.739386558532715,0.040677983313798904,0.50907301902771
1772570928641760500,5.967760498046875,9.758528709411621,0.040677983313798904,0.4995017349720001
1772570928659593200,5.98559326171875,9.753743171691895,0.04546362906694412,0.5042873620986938
1772570928677434000,6.00343408203125,9.748957633972168,0.04546362906694412,0.4995017349720001
1772570928695263000,6.021262939453125,9.748957633972168,0.035892341285943985,0.50907301902771
1772570928713104600,6.039104736328125,9.734601020812988,0.04546362906694412,0.494716078042984
1772570928730933000,6.05693310546875,9.748957633972168,0.04546362906694412,0.4995017349720001
1772570928748774100,6.074774169921875,9.753743171691895,0.04546362906694412,0.50907301902771
1772570928766606300,6.0926064453125,9.744172096252441,0.05024927482008934,0.4995017349720001
1772570928784441300,6.11044140625,9.734601020812988,0.04546362906694412,0.5042873620986938
1772570928802276600,6.128276611328125,9.744172096252441,0.04546362906694412,0.50907301902771
1772570928820111400,6.146111328125,9.748957633972168,0.05024927482008934,0.4995017349720001
1772570928837946600,6.163946533203125,9.753743171691895,0.05503492057323456,0.50907301902771
1772570928855782000,6.181781982421875,9.748957633972168,0.035892341285943985,0.5042873620986938
1772570928873617200,6.1996171875,9.744172096252441,0.04546362906694412,0.4995017349720001
1772570928891452200,6.2174521484375,9.748957633972168,0.04546362906694412,0.4995017349720001
1772570928909287400,6.235287353515625,9.748957633972168,0.040677983313798904,0.4995017349720001
1772570928927122700,6.253122802734375,9.748957633972168,0.04546362906694412,0.4995017349720001
1772570928944957700,6.270957763671875,9.744172096252441,0.04546362906694412,0.5042873620986938
1772570928962792700,6.288792724609375,9.739386558532715,0.04546362906694412,0.5042873620986938
1772570928980627700,6.306627685546875,9.753743171691895,0.040677983313798904,0.4995017349720001
1772570928998462700,6.324462646484375,9.744172096252441,0.04546362906694412,0.5042873620986938
1772570929016298200,6.34229833984375,9.753743171691895,0.04546362906694412,0.4995017349720001
1772570929034133000,6.360133056640625,9.744172096252441,0.04546362906694412,0.4995017349720001
1772570929051968000,6.377968017578125,9.739386558532715,0.04546362906694412,0.5042873620986938
1772570929069803300,6.39580322265625,9.744172096252441,0.040677983313798904,0.50907301902771
1772570929087638500,6.413638427734375,9.748957633972168,0.04546362906694412,0.4995017349720001
1772570929105473000,6.43147314453125,9.758528709411621,0.040677983313798904,0.5042873620986938
1772570929123308500,6.44930859375,9.744172096252441,0.040677983313798904,0.4995017349720001
1772570929141143300,6.467143310546875,9.748957633972168,0.04546362906694412,0.5042873620986938
1772570929158976000,6.48497607421875,9.739386558532715,0.04546362906694412,0.5042873620986938
1772570929176817000,6.50281689453125,9.758528709411621,0.040677983313798904,0.4995017349720001
1772570929194648800,6.52064892578125,9.748957633972168,0.04546362906694412,0.5042873620986938
1772570929212483800,6.53848388671875,9.739386558532715,0.04546362906694412,0.5042873620986938
1772570929230319400,6.5563193359375,9.748957633972168,0.04546362906694412,0.494716078042984
1772570929248145400,6.5741455078125,9.748957633972168,0.040677983313798904,0.4995017349720001
1772570929265992000,6.591991943359375,9.753743171691895,0.04546362906694412,0.5042873620986938
1772570929283824000,6.60982421875,9.753743171691895,0.04546362906694412,0.5042873620986938
1772570929301640400,6.627640380859375,9.753743171691895,0.04546362906694412,0.5042873620986938
1772570929319494400,6.645494384765625,9.744172096252441,0.04546362906694412,0.4995017349720001
1772570929337329400,6.663329345703125,9.744172096252441,0.04546362906694412,0.5042873620986938
1772570929355164700,6.68116455078125,9.744172096252441,0.035892341285943985,0.50907301902771
1772570929372999700,6.698999755859375,9.744172096252441,0.04546362906694412,0.4995017349720001
1772570929390835200,6.716835205078125,9.753743171691895,0.040677983313798904,0.4995017349720001
1772570929408670000,6.734669921875,9.748957633972168,0.040677983313798904,0.5042873620986938
1772570929426505500,6.75250537109375,9.744172096252441,0.040677983313798904,0.4995017349720001
1772570929444340200,6.77034033203125,9.748957633972168,0.04546362906694412,0.494716078042984
1772570929462174000,6.788174072265625,9.744172096252441,0.040677983313798904,0.5042873620986938
1772570929480011500,6.806011474609375,9.748957633972168,0.040677983313798904,0.4995017349720001
1772570929497845500,6.823845458984375,9.748957633972168,0.05024927482008934,0.5042873620986938
1772570929515680500,6.841680419921875,9.753743171691895,0.04546362906694412,0.5042873620986938
1772570929533515800,6.859515869140625,9.744172096252441,0.05024927482008934,0.4899304509162903
1772570929551350500,6.8773505859375,9.758528709411621,0.05024927482008934,0.4995017349720001
1772570929569185300,6.895185302734375,9.739386558532715,0.05024927482008934,0.4995017349720001
1772570929587020800,6.913020751953125,9.753743171691895,0.040677983313798904,0.4995017349720001
1772570929604855800,6.930855712890625,9.748957633972168,0.040677983313798904,0.4995017349720001
1772570929622690800,6.94869091796875,9.748957633972168,0.040677983313798904,0.5042873620986938
1772570929640526000,6.966526123046875,9.748957633972168,0.04546362906694412,0.4995017349720001
1772570929658361000,6.984361083984375,9.748957633972168,0.040677983313798904,0.4995017349720001
1772570929676196000,7.002196044921875,9.744172096252441,0.05024927482008934,0.50907301902771
1772570929694031600,7.020031494140625,9.753743171691895,0.04546362906694412,0.4995017349720001
1772570929711866600,7.03786669921875,9.748957633972168,0.05024927482008934,0.5042873620986938
1772570929729701400,7.055701416015625,9.744172096252441,0.04546362906694412,0.4995017349720001
1772570929747537200,7.073537109375,9.748957633972168,0.04546362906694412,0.5042873620986938
1772570929765371600,7.09137158203125,9.758528709411621,0.04546362906694412,0.494716078042984
1772570929783207000,7.10920703125,9.748957633972168,0.04546362906694412,0.5042873620986938
1772570929801027000,7.127027099609375,9.744172096252441,0.04546362906694412,0.494716078042984
1772570929818877200,7.144877197265625,9.748957633972168,0.04546362906694412,0.4995017349720001
1772570929836712000,7.1627119140625,9.753743171691895,0.040677983313798904,0.4899304509162903
1772570929854547500,7.18054736328125,9.753743171691895,0.04546362906694412,0.5042873620986938
1772570929872382200,7.19838232421875,9.753743171691895,0.04546362906694412,0.5042873620986938
1772570929890217200,7.21621728515625,9.758528709411621,0.040677983313798904,0.494716078042984
1772570929908052700,7.234052734375,9.753743171691895,0.040677983313798904,0.5042873620986938
1772570929925887700,7.2518876953125,9.748957633972168,0.035892341285943985,0.5042873620986938
1772570929943722800,7.26972265625,9.748957633972168,0.040677983313798904,0.50907301902771
1772570929961558000,7.28755810546875,9.763314247131348,0.05024927482008934,0.5042873620986938
1772570929979389700,7.3053896484375,9.758528709411621,0.04546362906694412,0.5042873620986938
1772570929997231400,7.3232314453125,9.753743171691895,0.05024927482008934,0.5138586759567261
1772570930015063300,7.341063232421875,9.748957633972168,0.04546362906694412,0.5042873620986938
1772570930032887000,7.358886962890625,9.753743171691895,0.04546362906694412,0.4995017349720001
1772570930050733600,7.376733642578125,9.748957633972168,0.040677983313798904,0.5042873620986938
1772570930068564700,7.394564697265625,9.748957633972168,0.05024927482008934,0.4995017349720001
1772570930086406400,7.412406494140625,9.763314247131348,0.04546362906694412,0.4995017349720001
1772570930104238300,7.43023828125,9.748957633972168,0.035892341285943985,0.4995017349720001
1772570930122073000,7.448072998046875,9.748957633972168,0.040677983313798904,0.5042873620986938
1772570930139908400,7.465908447265625,9.748957633972168,0.04546362906694412,0.5042873620986938
1772570930157743900,7.483743896484375,9.748957633972168,0.05024927482008934,0.4995017349720001
1772570930175579000,7.501578857421875,9.748957633972168,0.04546362906694412,0.4995017349720001
1772570930193413600,7.51941357421875,9.753743171691895,0.04546362906694412,0.50907301902771
1772570930211248600,7.53724853515625,9.753743171691895,0.035892341285943985,0.4995017349720001
1772570930229084200,7.555084228515625,9.748957633972168,0.04546362906694412,0.5042873620986938
1772570930246919200,7.572919189453125,9.753743171691895,0.040677983313798904,0.5042873620986938
1772570930264754200,7.590754150390625,9.758528709411621,0.04546362906694412,0.5042873620986938
1772570930282589200,7.608589111328125,9.753743171691895,0.05024927482008934,0.4995017349720001
1772570930300424400,7.626424560546875,9.748957633972168,0.05024927482008934,0.494716078042984
1772570930318259700,7.644259765625,9.744172096252441,0.05024927482008934,0.4995017349720001
1772570930336094700,7.6620947265625,9.758528709411621,0.035892341285943985,0.5042873620986938
1772570930353929700,7.6799296875,9.753743171691895,0.040677983313798904,0.4995017349720001
1772570930371764500,7.697764404296875,9.758528709411621,0.040677983313798904,0.50907301902771
1772570930389600000,7.71560009765625,9.748957633972168,0.04546362906694412,0.5042873620986938
1772570930407434800,7.733434814453125,9.744770050048828,0.040677983313798904,0.4995017349720001
1772570930425270300,7.751270263671875,9.753743171691895,0.035892341285943985,0.5042873620986938
1772570930443105000,7.76910498046875,9.753743171691895,0.040677983313798904,0.4995017349720001
1772570930460939300,7.786939208984375,9.748957633972168,0.04546362906694412,0.4995017349720001
1772570930478776300,7.8047763671875,9.758528709411621,0.04546362906694412,0.4995017349720001
1772570930496609800,7.82260986328125,9.744770050048828,0.04546362906694412,0.4995017349720001
1772570930514446000,7.840446044921875,9.754341125488281,0.04546362906694412,0.50907301902771
1772570930532281600,7.858281494140625,9.748957633972168,0.05503492057323456,0.4995017349720001
1772570930550114300,7.8761142578125,9.749555587768555,0.05024927482008934,0.5042873620986938
1772570930567950600,7.89395068359375,9.763314247131348,0.040677983313798904,0.50907301902771
1772570930585785600,7.91178564453125,9.748957633972168,0.040677983313798904,0.50907301902771
1772570930603620900,7.929620849609375,9.753743171691895,0.040677983313798904,0.4995017349720001
1772570930621455600,7.94745556640625,9.753743171691895,0.04546362906694412,0.5042873620986938
1772570930639291000,7.965290771484375,9.748957633972168,0.040677983313798904,0.5042873620986938
1772570930657126100,7.983126220703125,9.744172096252441,0.04546362906694412,0.5042873620986938
1772570930674961400,8.00096142578125,9.753743171691895,0.05503492057323456,0.5042873620986938
1772570930692796700,8.018796630859375,9.748957633972168,0.05024927482008934,0.4995017349720001
1772570930710631400,8.03663134765625,9.744172096252441,0.040677983313798904,0.5042873620986938
1772570930728466700,8.054466796875,9.744172096252441,0.05024927482008934,0.5042873620986938
1772570930746289000,8.072288818359375,9.744770050048828,0.035892341285943985,0.5042873620986938
1772570930764137000,8.090136962890625,9.753743171691895,0.04546362906694412,0.5042873620986938
1772570930781971700,8.1079716796875,9.748957633972168,0.035892341285943985,0.5042873620986938
1772570930799807000,8.125806884765625,9.748957633972168,0.04546362906694412,0.50907301902771
1772570930817642000,8.14364208984375,9.753743171691895,0.035892341285943985,0.4995017349720001
1772570930835477000,8.16147705078125,9.748957633972168,0.04546362906694412,0.4995017349720001
1772570930853312300,8.179312255859376,9.739984512329102,0.04546362906694412,0.4995017349720001
1772570930871146800,8.197146728515625,9.744172096252441,0.04546362906694412,0.494716078042984
1772570930888982000,8.21498193359375,9.753743171691895,0.04546362906694412,0.4995017349720001
1772570930906817000,8.232817138671875,9.753743171691895,0.040677983313798904,0.5042873620986938
1772570930924652000,8.250652099609376,9.748957633972168,0.040677983313798904,0.4995017349720001
1772570930942487600,8.268487548828125,9.734601020812988,0.04546362906694412,0.5042873620986938
1772570930960322600,8.286322509765625,9.748957633972168,0.035892341285943985,0.5042873620986938
1772570930978157600,8.304157470703124,9.748957633972168,0.05024927482008934,0.5042873620986938
1772570930995992800,8.321992919921875,9.739984512329102,0.04546362906694412,0.4995017349720001
1772570931013827800,8.339827880859374,9.753743171691895,0.05503492057323456,0.4995017349720001
1772570931031662800,8.357662841796875,9.744770050048828,0.035892341285943985,0.4995017349720001
1772570931049497600,8.37549755859375,9.744770050048828,0.040677983313798904,0.4995017349720001
1772570931067314000,8.39331396484375,9.754341125488281,0.035892341285943985,0.50907301902771
1772570931085167900,8.41116796875,9.753743171691895,0.04546362906694412,0.5042873620986938
1772570931103003100,8.429003173828125,9.758528709411621,0.04546362906694412,0.494716078042984
1772570931120834800,8.446834716796875,9.754341125488281,0.040677983313798904,0.5042873620986938
1772570931138661000,8.4646611328125,9.748957633972168,0.05024927482008934,0.5042873620986938
1772570931156508400,8.48250830078125,9.753743171691895,0.04546362906694412,0.4995017349720001
1772570931174343400,8.500343505859375,9.744172096252441,0.05024927482008934,0.5042873620986938
1772570931192178700,8.5181787109375,9.748957633972168,0.04546362906694412,0.5042873620986938
1772570931210013700,8.536013671875,9.735198974609375,0.040677983313798904,0.5042873620986938
1772570931227848700,8.5538486328125,9.744770050048828,0.040677983313798904,0.4995017349720001
1772570931245684000,8.57168408203125,9.739984512329102,0.040677983313798904,0.4995017349720001
1772570931263519000,8.58951904296875,9.739984512329102,0.04546362906694412,0.50907301902771
1772570931281354000,8.60735400390625,9.753743171691895,0.035892341285943985,0.5042873620986938
1772570931299189000,8.62518896484375,9.748957633972168,0.05024927482008934,0.5042873620986938
1772570931317024300,8.643024169921874,9.744770050048828,0.040677983313798904,0.494716078042984
1772570931334859300,8.660859375,9.748957633972168,0.04546362906694412,0.4995017349720001
1772570931352685600,8.678685546875,9.744172096252441,0.040677983313798904,0.4995017349720001
1772570931370529300,8.696529296875,9.744172096252441,0.04546362906694412,0.50907301902771
1772570931388361700,8.71436181640625,9.367302894592285,0.09571290761232376,0.3601198196411133
1772570931406201600,8.73220166015625,9.644271850585938,0.05922235921025276,0.48035913705825806
1772570931424034300,8.750034423828126,9.806385040283203,0.04546362906694412,0.5234299302101135
1772570931441869600,8.76786962890625,9.76391315460205,0.031106693670153618,0.5234299302101135
1772570931459705000,8.785705078125,9.725627899169922,0.04546362906694412,0.494716078042984
