time,seconds_elapsed,z,y,x
1772536746168301600,0.079301513671875,-0.18351763486862183,-0.167947456240654,0.2114962637424469
1772536746178350600,0.0893505859375,-0.14984329044818878,-0.18360763788223267,0.24181582033634186
1772536746188398600,0.099398681640625,-0.12230300903320312,-0.18005286157131195,0.2829219698905945
1772536746198447600,0.109447509765625,-0.10208482295274734,-0.17419417202472687,0.3374936282634735
1772536746208496600,0.11949658203125,-0.08988914638757706,-0.19335322082042694,0.375602662563324
1772536746218544600,0.129544677734375,-0.09598272293806076,-0.213729590177536,0.36206793785095215
1772536746228593700,0.13959375,-0.0961715430021286,-0.24339348077774048,0.30562010407447815
1772536746238642700,0.149642578125,-0.10781301558017731,-0.21534213423728943,0.21963249146938324
1772536746248691500,0.15969140625,-0.1493186503648758,-0.19347944855690002,0.11001704633235931
1772536746258739700,0.16973974609375,-0.2074916660785675,-0.2040063887834549,-0.012161324732005596
1772536746268788500,0.17978857421875,-0.2763706147670746,-0.2245207279920578,-0.13703587651252747
1772536746278837800,0.189837646484375,-0.3569200336933136,-0.1928003430366516,-0.2334580272436142
1772536746288886500,0.199886474609375,-0.4033280313014984,-0.10508247464895248,-0.28748399019241333
1772536746298934800,0.209934814453125,-0.39936789870262146,0.025286979973316193,-0.3059929311275482
1772536746308983600,0.219983642578125,-0.371311753988266,0.11930189281702042,-0.2948383092880249
1772536746319032600,0.230032470703125,-0.32114288210868835,0.14575053751468658,-0.2621157765388489
1772536746329080600,0.24008056640625,-0.26331233978271484,0.10535598546266556,-0.21735282242298126
1772536746339129600,0.250129638671875,-0.21110105514526367,0.008491222746670246,-0.15249526500701904
1772536746349178600,0.2601787109375,-0.18020199239253998,-0.10720209032297134,-0.055265385657548904
1772536746359227600,0.2702275390625,-0.1815388947725296,-0.23098474740982056,0.04019242525100708
1772536746369275600,0.280275634765625,-0.18088935315608978,-0.37921416759490967,0.12410809844732285
1772536746379324700,0.29032470703125,-0.15723969042301178,-0.46865350008010864,0.19985266029834747
1772536746389373400,0.30037353515625,-0.1347692608833313,-0.48788124322891235,0.27750056982040405
1772536746399422700,0.310422607421875,-0.11374973505735397,-0.4727102816104889,0.3296700417995453
1772536746409470500,0.320470458984375,-0.09951434284448624,-0.44871440529823303,0.32692140340805054
1772536746419519700,0.330519775390625,-0.09369853138923645,-0.4166041314601898,0.2772049605846405
1772536746429568500,0.340568603515625,-0.11782543361186981,-0.30827367305755615,0.21237458288669586
1772536746439616800,0.35061669921875,-0.17866162955760956,-0.1921643763780594,0.13138705492019653
1772536746449666600,0.36066650390625,-0.27210795879364014,-0.16536952555179596,0.015151522122323513
1772536746459715300,0.37071533203125,-0.37085530161857605,-0.19859032332897186,-0.1321180909872055
1772536746469764400,0.380764404296875,-0.44443684816360474,-0.18806764483451843,-0.24594132602214813
1772536746479812400,0.390812255859375,-0.5006306171417236,-0.09565035998821259,-0.2977014482021332
1772536746489861400,0.400861328125,-0.5265287756919861,0.024213194847106934,-0.3067370355129242
1772536746499910400,0.410910400390625,-0.5167067646980286,0.11814368516206741,-0.2947799861431122
1772536746509958100,0.420958251953125,-0.47466346621513367,0.18239350616931915,-0.26739707589149475
1772536746520007400,0.43100732421875,-0.41203415393829346,0.23849858343601227,-0.21682019531726837
1772536746530056400,0.441056396484375,-0.348967045545578,0.2667880058288574,-0.1567762941122055
1772536746540105200,0.451105224609375,-0.30715036392211914,0.23362553119659424,-0.10678370296955109
1772536746550153500,0.461153564453125,-0.2826197147369385,0.1449369490146637,-0.07648704946041107
1772536746560202200,0.4712021484375,-0.2736733555793762,0.07815445959568024,-0.07673339545726776
1772536746570251500,0.48125146484375,-0.2844809889793396,0.04513046145439148,-0.07668652385473251
1772536746580300300,0.49130029296875,-0.31068170070648193,0.0057167415507137775,-0.07869081944227219
1772536746590348500,0.5013486328125,-0.34261247515678406,-0.06211210787296295,-0.0785515308380127
1772536746600397300,0.511397216796875,-0.373656690120697,-0.12314749509096146,-0.08887448161840439
1772536746610446300,0.5214462890625,-0.40126141905784607,-0.16259796917438507,-0.10539113730192184
1772536746620494300,0.531494384765625,-0.4109041690826416,-0.17408977448940277,-0.11890161782503128
1772536746630543400,0.54154345703125,-0.4084274470806122,-0.19346506893634796,-0.12387160956859589
1772536746640592400,0.55159228515625,-0.38597458600997925,-0.19975651800632477,-0.10679063200950623
1772536746650641400,0.561641357421875,-0.3615717887878418,-0.17083299160003662,-0.08233801275491714
1772536746660689400,0.571689453125,-0.33734315633773804,-0.15050002932548523,-0.0687716081738472
1772536746670738400,0.581738525390625,-0.31316298246383667,-0.10948041826486588,-0.07400764524936676
1772536746680787200,0.591787109375,-0.28807759284973145,-0.06844856590032578,-0.07986553758382797
1772536746690835500,0.60183544921875,-0.2685108184814453,-0.01672624982893467,-0.07602100074291229
1772536746700884200,0.61188427734375,-0.24729500710964203,0.010057960636913776,-0.0837915688753128
1772536746710933500,0.62193359375,-0.21494798362255096,0.03498275205492973,-0.08539000153541565
1772536746720982300,0.631982177734375,-0.1743457019329071,0.08846408873796463,-0.0503166988492012
1772536746731030500,0.642030517578125,-0.14508821070194244,0.15001586079597473,-0.011154916137456894
1772536746741079300,0.652079345703125,-0.10210718959569931,0.18436451256275177,0.02640604041516781
1772536746751128300,0.66212841796875,-0.044735513627529144,0.22234705090522766,0.06797425448894501
1772536746761177300,0.67217724609375,0.020964138209819794,0.27951765060424805,0.12819498777389526
1772536746771225300,0.682225341796875,0.08225945383310318,0.28208041191101074,0.16794106364250183
1772536746781274400,0.6922744140625,0.15561142563819885,0.24037185311317444,0.1795140951871872
1772536746791323400,0.702323486328125,0.21824578940868378,0.17610685527324677,0.19677165150642395
1772536746801371400,0.712371337890625,0.2573891878128052,0.10172023624181747,0.2332068830728531
1772536746811420400,0.72242041015625,0.2947498857975006,-0.012131497263908386,0.2817502021789551
1772536746821469200,0.73246923828125,0.3435310125350952,-0.10022460669279099,0.34210219979286194
1772536746831518500,0.7425185546875,0.3735693395137787,-0.1355692744255066,0.42291316390037537
1772536746841566200,0.752566162109375,0.4031620919704437,-0.13481347262859344,0.491338849067688
1772536746851615500,0.762615478515625,0.4341599643230438,-0.11054328829050064,0.5344793796539307
1772536746861664300,0.772664306640625,0.4771135747432709,-0.04161695018410683,0.5519893765449524
1772536746871713300,0.78271337890625,0.5082589387893677,0.024141822010278702,0.5500854849815369
1772536746881761300,0.79276123046875,0.536772608757019,0.030779751017689705,0.5091479420661926
1772536746891810300,0.802810302734375,0.5534831881523132,-0.010905644856393337,0.43977099657058716
1772536746901859300,0.812859375,0.5436798334121704,-0.06013550981879234,0.3701847195625305
1772536746911907300,0.8229072265625,0.5010961294174194,-0.09025585651397705,0.3072723150253296
1772536746921956400,0.832956298828125,0.4584354758262634,-0.11294066905975342,0.23854227364063263
1772536746932005400,0.84300537109375,0.4192923307418823,-0.08770881593227386,0.1749212145805359
1772536746942054100,0.85305419921875,0.39490044116973877,0.00276116537861526,0.12561571598052979
1772536746952102400,0.863102294921875,0.39009663462638855,0.1192406415939331,0.08340301364660263
1772536746962151200,0.873151123046875,0.41660282015800476,0.23351208865642548,0.04053677245974541
1772536746972200400,0.883200439453125,0.45961499214172363,0.32402175664901733,-0.004503671545535326
1772536746982248200,0.893248291015625,0.5045797824859619,0.364398717880249,-0.03254116326570511
1772536746992297500,0.90329736328125,0.5379902124404907,0.3497111201286316,-0.05519507825374603
1772536747002346200,0.91334619140625,0.5386589765548706,0.3012107014656067,-0.0561295822262764
1772536747012395300,0.923395263671875,0.513902485370636,0.24047333002090454,-0.0471763014793396
1772536747022443300,0.933443359375,0.4717973470687866,0.17548634111881256,-0.03213822841644287
1772536747032492300,0.9434921875,0.43285635113716125,0.11398143321275711,-0.030647125095129013
1772536747042541300,0.953541259765625,0.4103214740753174,0.1015481948852539,-0.034987013787031174
1772536747052589300,0.96358935546875,0.4012880325317383,0.15170644223690033,-0.028610339388251305
1772536747062638300,0.973638427734375,0.4000861644744873,0.2336321920156479,-0.01641998626291752
1772536747072687400,0.983687255859375,0.40410539507865906,0.3225109279155731,0.001204547705128789
1772536747082736400,0.993736328125,0.4166041314601898,0.3930037319660187,0.01350329164415598
1772536747092784400,1.003784423828125,0.4304368793964386,0.4191402792930603,0.023930633440613747
1772536747102833200,1.013833251953125,0.4523158073425293,0.401940256357193,0.01925039291381836
1772536747112882400,1.02388232421875,0.46454477310180664,0.33459290862083435,0.028659608215093613
1772536747122931500,1.033931396484375,0.4548085331916809,0.2511771023273468,0.05114760622382164
1772536747132979500,1.0439794921875,0.42934176325798035,0.16362328827381134,0.07393893599510193
1772536747143028500,1.054028564453125,0.40636536478996277,0.0733538419008255,0.08673036843538284
1772536747153077200,1.0640771484375,0.38188639283180237,0.02022138237953186,0.10456795245409012
1772536747163125200,1.074125244140625,0.3561685085296631,-0.0016849819803610444,0.1171303540468216
1772536747173174300,1.08417431640625,0.3340320289134979,-0.02123471535742283,0.1146024763584137
1772536747183223600,1.0942236328125,0.3185308277606964,-0.010173008777201176,0.09361384063959122
1772536747193272300,1.104272216796875,0.30415377020835876,0.03580646589398384,0.06539391726255417
1772536747203320600,1.114320556640625,0.28552550077438354,0.09329665452241898,0.015534218400716782
1772536747213369300,1.124369384765625,0.26303109526634216,0.14110440015792847,-0.055412657558918
1772536747223418400,1.13441845703125,0.22197873890399933,0.13913631439208984,-0.14722353219985962
1772536747233466400,1.14446630859375,0.15862159430980682,0.0706118494272232,-0.2337682843208313
1772536747243515400,1.154515380859375,0.0996919721364975,-0.024092020466923714,-0.2937661111354828
1772536747253564400,1.164564453125,0.05144534632563591,-0.08221444487571716,-0.32038894295692444
1772536747263613400,1.174613525390625,0.01798592507839203,-0.08540011942386627,-0.31144389510154724
1772536747273661400,1.184661376953125,0.009820939041674137,-0.018696988001465797,-0.29066166281700134
1772536747283710500,1.19471044921875,0.016651947051286697,0.09622080624103546,-0.26794198155403137
1772536747293759200,1.20475927734375,0.035885028541088104,0.19337452948093414,-0.2570275366306305
1772536747303807500,1.214807373046875,0.05747128278017044,0.25913116335868835,-0.2598222494125366
1772536747313856300,1.224856201171875,0.08830349892377853,0.30359557271003723,-0.27767422795295715
1772536747323905500,1.234905517578125,0.11806166172027588,0.33615216612815857,-0.3008655607700348
1772536747333954300,1.244954345703125,0.12586285173892975,0.32557037472724915,-0.3147568702697754
1772536747344002600,1.25500244140625,0.11727895587682724,0.2623461186885834,-0.32791635394096375
1772536747354051300,1.26505126953125,0.10181983560323715,0.1851876974105835,-0.32146456837654114
1772536747364100400,1.275100341796875,0.07442496716976166,0.12714783847332,-0.29035326838493347
1772536747374149400,1.2851494140625,0.052205149084329605,0.07502337545156479,-0.2426840215921402
1772536747384197400,1.295197265625,0.047090545296669006,0.02317322976887226,-0.19516363739967346
1772536747394246400,1.305246337890625,0.057613760232925415,-0.018030932173132896,-0.15051120519638062
1772536747404295400,1.31529541015625,0.06524744629859924,-0.03063567355275154,-0.11304186284542084
1772536747414343400,1.325343505859375,0.07280655950307846,-0.013922473415732384,-0.09073283523321152
1772536747424392400,1.335392333984375,0.07641647756099701,0.003406981937587261,-0.07997046411037445
1772536747434441200,1.345441162109375,0.06962035596370697,0.015798404812812805,-0.08323416858911514
1772536747444490800,1.35549072265625,0.045997586101293564,0.005111671518534422,-0.08384563028812408
1772536747454538500,1.36553857421875,0.0070890686474740505,-0.031792283058166504,-0.08187675476074219
1772536747464587800,1.375587890625,-0.037449102848768234,-0.09857238084077835,-0.07177618891000748
1772536747474636500,1.385636474609375,-0.0746484026312828,-0.1546526998281479,-0.04764927923679352
1772536747484684800,1.395684814453125,-0.09013894945383072,-0.16201873123645782,-0.0002759034978225827
1772536747494733600,1.405733642578125,-0.08808165788650513,-0.12814411520957947,0.06284128129482269
1772536747504782600,1.415782470703125,-0.08144212514162064,-0.0930793434381485,0.1156965047121048
1772536747514831600,1.42583154296875,-0.08853545784950256,-0.08748031407594681,0.14322853088378906
1772536747524879600,1.435879638671875,-0.11613725870847702,-0.13070714473724365,0.13949398696422577
1772536747534928600,1.4459287109375,-0.16820232570171356,-0.183336541056633,0.12753532826900482
1772536747544977700,1.455977783203125,-0.22782756388187408,-0.21734270453453064,0.12985067069530487
1772536747555025700,1.466025634765625,-0.2937522530555725,-0.23083853721618652,0.13533811271190643
1772536747565074700,1.47607470703125,-0.3420356214046478,-0.20433050394058228,0.14130200445652008
1772536747575123500,1.48612353515625,-0.38218626379966736,-0.1516534388065338,0.16092203557491302
1772536747585172700,1.4961728515625,-0.40340712666511536,-0.07370564341545105,0.1895451694726944
1772536747595220500,1.506220458984375,-0.4068140983581543,-0.01618722639977932,0.2044391632080078
1772536747605269800,1.516269775390625,-0.40608304738998413,-0.034452781081199646,0.1594969779253006
1772536747615318500,1.526318603515625,-0.4278791844844818,-0.14286713302135468,0.06563679873943329
1772536747625367600,1.536367431640625,-0.4556135833263397,-0.252731055021286,-0.02930116280913353
1772536747635415600,1.54641552734375,-0.4730679392814636,-0.2395433485507965,-0.07134795188903809
1772536747645464600,1.556464599609375,-0.47006338834762573,-0.11505601555109024,-0.05565314367413521
1772536747655513600,1.566513671875,-0.46590617299079895,0.03718358650803566,-0.012434299103915691
1772536747665561600,1.5765615234375,-0.424696147441864,0.17194034159183502,0.035593412816524506
1772536747675610600,1.586610595703125,-0.38501718640327454,0.24821673333644867,0.06858545541763306
1772536747685659600,1.59665966796875,-0.35555437207221985,0.2283886969089508,0.07352215051651001
1772536747695708700,1.606708740234375,-0.3330112397670746,0.1348811239004135,0.0591120570898056
1772536747705756700,1.616756591796875,-0.3201471269130707,-0.0019624833948910236,0.022292522713541985
1772536747715805400,1.626805419921875,-0.3284284770488739,-0.15957793593406677,-0.02062857896089554
1772536747725854700,1.636854736328125,-0.3594966530799866,-0.30735594034194946,-0.05216813087463379
1772536747735902500,1.64690234375,-0.4009127914905548,-0.3789968490600586,-0.06280133128166199
1772536747745951700,1.65695166015625,-0.42050567269325256,-0.35475197434425354,-0.0558566078543663
1772536747756000500,1.66700048828125,-0.41286933422088623,-0.24029143154621124,-0.03185300529003143
1772536747766049500,1.677049560546875,-0.36994609236717224,-0.0821654424071312,0.01233656145632267
1772536747776097500,1.68709765625,-0.29784446954727173,0.08227410167455673,0.056234244257211685
1772536747786146600,1.697146484375,-0.21554480493068695,0.20377282798290253,0.0959630161523819
1772536747796195800,1.70719580078125,-0.1496928185224533,0.2641216516494751,0.12192936986684799
1772536747806243600,1.71724365234375,-0.11969364434480667,0.24585078656673431,0.13642548024654388
1772536747816292600,1.727292724609375,-0.12232191860675812,0.14000290632247925,0.13321451842784882
1772536747826341600,1.737341552734375,-0.15268701314926147,0.007135940250009298,0.12432381510734558
1772536747836390700,1.747390625,-0.1787167489528656,-0.10009517520666122,0.14261093735694885
1772536747846438700,1.757438720703125,-0.2557329833507538,-0.20283406972885132,0.15046992897987366
1772536747856487700,1.76748779296875,-0.3141579329967499,-0.2866634428501129,0.15117007493972778
1772536747866536700,1.77753662109375,-0.3285725712776184,-0.28720566630363464,0.1364433318376541
1772536747876585700,1.787585693359375,-0.33890268206596375,-0.22808615863323212,0.10324356704950333
1772536747886633700,1.7976337890625,-0.3367937207221985,-0.17137441039085388,0.05874933302402496
1772536747896682800,1.807682861328125,-0.3357849419116974,-0.08362698554992676,-0.007133809383958578
1772536747906731500,1.8177314453125,-0.3278670907020569,-0.02359480783343315,-0.09189663082361221
1772536747916779500,1.827779541015625,-0.3362690806388855,-0.031735826283693314,-0.18028907477855682
1772536747926828500,1.83782861328125,-0.3479989767074585,-0.07042410224676132,-0.24368909001350403
1772536747936877800,1.8478779296875,-0.3866923153400421,-0.12229634821414948,-0.28382211923599243
1772536747946926600,1.857926513671875,-0.42578327655792236,-0.18285344541072845,-0.29743167757987976
1772536747956974800,1.867974853515625,-0.44268447160720825,-0.22428396344184875,-0.29703274369239807
1772536747967023600,1.878023681640625,-0.4497157633304596,-0.2340436577796936,-0.2724749445915222
1772536747977072600,1.88807275390625,-0.44835329055786133,-0.20615050196647644,-0.23767487704753876
1772536747987120600,1.89812060546875,-0.42196375131607056,-0.15467293560504913,-0.19891603291034698
1772536747997169700,1.908169677734375,-0.3909134268760681,-0.08286958187818527,-0.15966103971004486
1772536748007218700,1.91821875,-0.3671337962150574,-0.03298431634902954,-0.13966308534145355
1772536748017267700,1.928267822265625,-0.3492874205112457,-0.018750252202153206,-0.12542156875133514
1772536748027315700,1.938315673828125,-0.3367742896080017,-0.014394918456673622,-0.11247860640287399
1772536748037364700,1.94836474609375,-0.34018102288246155,-0.026222016662359238,-0.10180758684873581
1772536748047413500,1.95841357421875,-0.348070353269577,-0.044977329671382904,-0.09584317356348038
1772536748057461800,1.968461669921875,-0.3598511219024658,-0.0736292153596878,-0.10157562792301178
1772536748067510500,1.978510498046875,-0.3702443838119507,-0.1062268391251564,-0.1110311821103096
1772536748077559800,1.988559814453125,-0.3645619750022888,-0.11685018986463547,-0.1204473152756691
1772536748087608600,1.998608642578125,-0.3371524512767792,-0.10084165632724762,-0.12332166731357574
1772536748097656800,2.00865673828125,-0.29527610540390015,-0.06126335635781288,-0.11569304019212723
1772536748107705600,2.01870556640625,-0.24620231986045837,-0.020602745935320854,-0.09665809571743011
1772536748117754600,2.028754638671875,-0.2052663415670395,0.02569843828678131,-0.07483749091625214
1772536748127803600,2.0388037109375,-0.16957145929336548,0.05927504226565361,-0.0521865040063858
1772536748137851600,2.0488515625,-0.13126906752586365,0.09285696595907211,-0.015994945541024208
1772536748147900700,2.058900634765625,-0.09341064095497131,0.12903441488742828,0.035111114382743835
1772536748157949700,2.06894970703125,-0.0557309053838253,0.1702742576599121,0.09118450433015823
1772536748167997700,2.078997802734375,-0.014719025231897831,0.19906729459762573,0.13957920670509338
1772536748178046700,2.089046630859375,0.022778017446398735,0.1984632909297943,0.18045659363269806
1772536748188095500,2.099095458984375,0.049856238067150116,0.15165157616138458,0.19331113994121552
1772536748198144800,2.109144775390625,0.07814140617847443,0.08885902911424637,0.19296519458293915
1772536748208192500,2.119192626953125,0.10124752670526505,0.06325326859951019,0.20488549768924713
1772536748218241800,2.12924169921875,0.12167663127183914,0.03990374132990837,0.23084333539009094
1772536748228290600,2.13929052734375,0.15969006717205048,0.013007677160203457,0.26383325457572937
1772536748238338800,2.1493388671875,0.19549253582954407,0.0037649108562618494,0.29722821712493896
1772536748248387600,2.1593876953125,0.21672165393829346,-0.007200388703495264,0.3066960275173187
1772536748258436600,2.1694365234375,0.22690239548683167,-0.018806710839271545,0.2864844799041748
1772536748268485600,2.179485595703125,0.22774474322795868,-0.004311923868954182,0.2530439794063568
1772536748278533600,2.18953369140625,0.2364540845155716,0.05254683271050453,0.23268677294254303
1772536748288582700,2.199582763671875,0.2720368504524231,0.1573973447084427,0.23302046954631805
1772536748298631700,2.209631591796875,0.321061372756958,0.21665427088737488,0.22624991834163666
1772536748308679700,2.2196796875,0.36771276593208313,0.15268541872501373,0.19380594789981842
1772536748318728700,2.229728759765625,0.38891100883483887,0.015539011918008327,0.14596892893314362
1772536748328777500,2.239777587890625,0.4010867178440094,-0.11321283876895905,0.10450643301010132
1772536748338826800,2.24982666015625,0.39660248160362244,-0.20517951250076294,0.07315996289253235
1772536748348874500,2.25987451171875,0.36978045105934143,-0.2782185673713684,0.043786630034446716
1772536748358923800,2.269923828125,0.32815471291542053,-0.3136458098888397,0.020485300570726395
1772536748368972500,2.27997265625,0.27147120237350464,-0.31057676672935486,-0.001704955706372857
1772536748379020800,2.290020751953125,0.26451075077056885,-0.22278141975402832,0.010812168009579182
1772536748389069600,2.300069580078125,0.2735132873058319,-0.07894834131002426,0.04393469914793968
1772536748399118600,2.31011865234375,0.2995595335960388,0.06709807366132736,0.07525800168514252
1772536748409167600,2.320167724609375,0.35338255763053894,0.20995350182056427,0.08052121102809906
1772536748419215600,2.330215576171875,0.42366018891334534,0.3330378830432892,0.06635585427284241
1772536748429264600,2.3402646484375,0.4812087118625641,0.4034678339958191,0.054122090339660645
1772536748439313700,2.350313720703125,0.5229460597038269,0.3826046288013458,0.05555087700486183
1772536748449364700,2.36036474609375,0.5337408781051636,0.25984010100364685,0.05944175645709038
1772536748459413500,2.37041357421875,0.5189960598945618,0.0974554494023323,0.08100882917642593
1772536748469462500,2.380462646484375,0.48615872859954834,-0.03893940895795822,0.11501207202672958
1772536748479511600,2.390511474609375,0.4503341317176819,-0.12109899520874023,0.15694834291934967
1772536748489559600,2.4005595703125,0.4299742877483368,-0.14935725927352905,0.18992120027542114
1772536748499608600,2.410608642578125,0.4283398985862732,-0.12716221809387207,0.2033746987581253
1772536748509657600,2.42065771484375,0.43685615062713623,-0.05491944029927254,0.19877327978610992
1772536748519706400,2.430706298828125,0.4590591788291931,0.05642252787947655,0.1716655045747757
1772536748529754600,2.440754638671875,0.4711776375770569,0.16484354436397552,0.12937849760055542
1772536748539803400,2.450803466796875,0.48441460728645325,0.2339182198047638,0.07763806730508804
1772536748549852700,2.460852783203125,0.48066994547843933,0.2480257898569107,0.03701447695493698
1772536748559900400,2.470900390625,0.4521450996398926,0.20459948480129242,0.008688828907907009
1772536748569949700,2.48094970703125,0.4067395329475403,0.09639790654182434,-0.013507818803191185
1772536748579998500,2.49099853515625,0.3495079278945923,-0.030644727870821953,-0.02925136312842369
1772536748590047500,2.501047607421875,0.2865827679634094,-0.13228720426559448,-0.04025954008102417
1772536748600095500,2.511095458984375,0.22327782213687897,-0.1888820379972458,-0.05161179602146149
1772536748610144500,2.52114453125,0.1672867238521576,-0.20598351955413818,-0.0846877247095108
1772536748620193500,2.531193603515625,0.13436393439769745,-0.17530150711536407,-0.12807248532772064
1772536748630241500,2.541241455078125,0.11945635825395584,-0.08382352441549301,-0.1704082190990448
1772536748640290600,2.55129052734375,0.12296533584594727,0.040164731442928314,-0.21443666517734528
1772536748650339600,2.561339599609375,0.14559288322925568,0.173866868019104,-0.25190308690071106
1772536748660388400,2.571388427734375,0.17453372478485107,0.3006138801574707,-0.2821134328842163
1772536748670436600,2.5814365234375,0.19848912954330444,0.4052311182022095,-0.29342523217201233
1772536748680485400,2.5914853515625,0.21507902443408966,0.463323712348938,-0.290836900472641
1772536748690534700,2.60153466796875,0.21614401042461395,0.46268242597579956,-0.28498753905296326
1772536748700582400,2.61158251953125,0.2072426676750183,0.3983798623085022,-0.26642316579818726
1772536748710631700,2.621631591796875,0.1953391432762146,0.300846666097641,-0.24407844245433807
1772536748720680400,2.631680419921875,0.17804110050201416,0.18035699427127838,-0.23211339116096497
1772536748730729500,2.6417294921875,0.16695304214954376,0.06989838927984238,-0.2246730625629425
1772536748740777500,2.651777587890625,0.16991287469863892,0.03164155036211014,-0.20041245222091675
1772536748750826500,2.661826416015625,0.14043940603733063,-0.0007352987886406481,-0.19206450879573822
1772536748760875500,2.67187548828125,0.12737339735031128,-0.09308519959449768,-0.18589183688163757
1772536748770923500,2.681923583984375,0.10326380282640457,-0.08060429990291595,-0.18149709701538086
1772536748780972500,2.69197265625,0.0969097688794136,-0.04625404626131058,-0.1841229647397995
1772536748791021600,2.702021484375,0.0927155539393425,-0.030127808451652527,-0.18587106466293335
1772536748801070300,2.7120703125,0.07753819972276688,-0.04249872267246246,-0.19108633697032928
1772536748811118600,2.72211865234375,0.06414436548948288,-0.037103425711393356,-0.17822380363941193
1772536748821167400,2.73216748046875,0.056234776973724365,-0.0017022925894707441,-0.15146808326244354
1772536748831216600,2.742216552734375,0.05224216729402542,0.03353399038314819,-0.10408245772123337
1772536748841265400,2.752265380859375,0.04535975679755211,0.0356924831867218,-0.04267396032810211
1772536748851313700,2.762313720703125,0.03644189611077309,-0.003995540551841259,0.018312161788344383
1772536748861362400,2.772362548828125,0.018458636477589607,-0.05898023024201393,0.07037349790334702
1772536748871411500,2.782411376953125,-0.0065505774691700935,-0.11520515382289886,0.11344800144433975
1772536748881459500,2.79245947265625,-0.025486717000603676,-0.14908242225646973,0.15889084339141846
1772536748891508500,2.802508544921875,-0.045520614832639694,-0.15702903270721436,0.20239171385765076
1772536748901557500,2.8125576171875,-0.0642964318394661,-0.1520071029663086,0.23425351083278656
1772536748911606500,2.8226064453125,-0.08125437796115875,-0.13791899383068085,0.23663944005966187
1772536748921654500,2.832654541015625,-0.09624131768941879,-0.12384124845266342,0.2118784338235855
1772536748931703600,2.84270361328125,-0.11389300972223282,-0.10916323959827423,0.17518647015094757
1772536748941752300,2.85275244140625,-0.13603347539901733,-0.08891548961400986,0.13440148532390594
1772536748951800600,2.862800537109375,-0.16185414791107178,-0.05402142181992531,0.10302305221557617
1772536748961849300,2.872849365234375,-0.18331949412822723,-0.008347944356501102,0.08802200108766556
1772536748971898600,2.882898681640625,-0.20183750987052917,0.028744563460350037,0.08727791160345078
1772536748981947600,2.89294775390625,-0.20825466513633728,0.048717472702264786,0.08879298716783524
1772536748991995600,2.90299560546875,-0.2041235715150833,0.0533796027302742,0.10166670382022858
1772536749002044400,2.91304443359375,-0.19548827409744263,0.06240052729845047,0.1287742257118225
1772536749012093400,2.923093505859375,-0.16994908452033997,0.11240909993648529,0.1828923225402832
1772536749022141400,2.933141357421875,-0.14549274742603302,0.1716652363538742,0.25727999210357666
1772536749032190500,2.9431904296875,-0.1247754842042923,0.16251914203166962,0.3307819068431854
1772536749042239700,2.95323974609375,-0.10266272723674774,0.0580502524971962,0.3870782256126404
1772536749052288500,2.96328857421875,-0.07164782285690308,-0.10453014075756073,0.44715461134910583
1772536749062336500,2.97333642578125,-0.035296205431222916,-0.2520407736301422,0.52369225025177
1772536749072385500,2.983385498046875,0.00307595101185143,-0.3333670496940613,0.6088082194328308
1772536749082434600,2.9934345703125,0.003948136232793331,-0.41455402970314026,0.6583507061004639
1772536749092483600,3.003483642578125,-0.007222492713481188,-0.4716697931289673,0.6081903576850891
1772536749102531300,3.01353125,-0.015473231673240662,-0.43646812438964844,0.478190541267395
1772536749112580600,3.02358056640625,-0.056070726364851,-0.3518621623516083,0.3031207323074341
1772536749122629600,3.033629638671875,-0.10013112425804138,-0.23136956989765167,0.12821123003959656
1772536749132677600,3.043677734375,-0.11636415868997574,-0.04339780658483505,-0.02377616986632347
1772536749142726700,3.0537265625,-0.11509782820940018,0.18585854768753052,-0.12513475120067596
1772536749152775400,3.063775390625,-0.08868486434221268,0.38866305351257324,-0.17389190196990967
1772536749162824700,3.07382470703125,-0.04078950732946396,0.45132458209991455,-0.1827802062034607
1772536749172872400,3.08387255859375,-0.014808506704866886,0.3414878249168396,-0.17324315011501312
1772536749182921700,3.093921630859375,-0.011211375705897808,0.12392274290323257,-0.13045547902584076
1772536749192970500,3.103970458984375,-0.014199708588421345,-0.0898212343454361,-0.05120806023478508
1772536749203018800,3.114018798828125,-0.03561791405081749,-0.25471192598342896,0.02852804772555828
1772536749213067500,3.124067626953125,-0.0821252316236496,-0.3755786716938019,0.07596933096647263
1772536749223116500,3.134116455078125,-0.12088141590356827,-0.44608479738235474,0.0815127044916153
1772536749233165600,3.14416552734375,-0.14425118267536163,-0.44562435150146484,0.05010604485869408
1772536749243213600,3.154213623046875,-0.15885169804096222,-0.3765225112438202,-0.007637413218617439
1772536749253262600,3.1642626953125,-0.16932697594165802,-0.2788742482662201,-0.07385638356208801
1772536749263311600,3.1743115234375,-0.19261285662651062,-0.18910813331604004,-0.14895886182785034
1772536749273359600,3.184359619140625,-0.22479583323001862,-0.1379975527524948,-0.2244488149881363
1772536749283408600,3.19440869140625,-0.2668849527835846,-0.10499698668718338,-0.2776438593864441
1772536749293457400,3.20445751953125,-0.30885452032089233,-0.06505782902240753,-0.3067740499973297
1772536749303506700,3.214506591796875,-0.349081814289093,-0.029880134388804436,-0.3040829300880432
1772536749313554400,3.224554443359375,-0.3630999028682709,0.004992894362658262,-0.28236058354377747
1772536749323603700,3.234603759765625,-0.3476378619670868,0.06238587945699692,-0.22757244110107422
1772536749333652500,3.244652587890625,-0.31467777490615845,0.15218794345855713,-0.1588519662618637
1772536749343700700,3.25470068359375,-0.273655503988266,0.24663960933685303,-0.10117349028587341
1772536749353749500,3.26474951171875,-0.23325562477111816,0.3041393756866455,-0.07814407348632812
1772536749363798500,3.274798583984375,-0.20815026760101318,0.32780078053474426,-0.08415855467319489
1772536749373847600,3.28484765625,-0.2038271576166153,0.32344862818717957,-0.11407357454299927
1772536749383895600,3.2948955078125,-0.2148185670375824,0.26618215441703796,-0.15707457065582275
1772536749393944600,3.304944580078125,-0.23052668571472168,0.16053535044193268,-0.18773767352104187
1772536749403993600,3.31499365234375,-0.2546258866786957,0.039382293820381165,-0.18540874123573303
1772536749414041600,3.32504150390625,-0.2800942361354828,-0.082515649497509,-0.15824556350708008
1772536749424090600,3.335090576171875,-0.2915650010108948,-0.17017066478729248,-0.10781700909137726
1772536749434139400,3.345139404296875,-0.2912331819534302,-0.21317937970161438,-0.0534919872879982
1772536749444185000,3.35518505859375,-0.2726381719112396,-0.21905484795570374,-0.02335459180176258
1772536749454232800,3.36523291015625,-0.23817448318004608,-0.1645684391260147,-0.010541058145463467
1772536749464282000,3.3752822265625,-0.19924652576446533,-0.05783586949110031,-0.015568839386105537
1772536749474331000,3.385330810546875,-0.16853255033493042,0.055926915258169174,-0.05110712721943855
1772536749484379000,3.39537890625,-0.13711604475975037,0.13716664910316467,-0.09962432831525803
1772536749494428000,3.405427978515625,-0.11456786096096039,0.18366357684135437,-0.1530284285545349
1772536749504477000,3.415476806640625,-0.09919662773609161,0.1940741389989853,-0.19523394107818604
1772536749514526000,3.42552587890625,-0.0864398181438446,0.16538043320178986,-0.20769540965557098
1772536749524574000,3.435573974609375,-0.0793752521276474,0.12981019914150238,-0.1937633454799652
1772536749534623000,3.445623046875,-0.06480535864830017,0.10321080684661865,-0.15988314151763916
1772536749544672000,3.455672119140625,-0.04766419157385826,0.07959043234586716,-0.11004820466041565
1772536749554720000,3.465719970703125,-0.022782543674111366,0.0555570013821125,-0.05696581304073334
1772536749564769000,3.47576904296875,0.014969894662499428,0.016020512208342552,-0.005635515321046114
1772536749574817800,3.48581787109375,0.053152166306972504,-0.011432950384914875,0.04550942778587341
1772536749584867000,3.4958671875,0.08588162064552307,-0.04866314306855202,0.09159383177757263
1772536749594914800,3.505914794921875,0.12159966677427292,-0.09286682307720184,0.13203127682209015
1772536749604964000,3.515964111328125,0.14948908984661102,-0.14105671644210815,0.17041806876659393
1772536749615012900,3.526012939453125,0.17503279447555542,-0.1697150021791458,0.20427830517292023
1772536749625061000,3.53606103515625,0.1979122757911682,-0.19030389189720154,0.22898924350738525
1772536749635110000,3.54610986328125,0.21924206614494324,-0.19463206827640533,0.24026772379875183
1772536749645159000,3.556158935546875,0.2392544001340866,-0.18974943459033966,0.25106072425842285
1772536749655208000,3.5662080078125,0.2944452166557312,-0.09367402642965317,0.29747456312179565
1772536749665256000,3.576255859375,0.3336102068424225,0.08137794584035873,0.34368014335632324
1772536749675305000,3.586304931640625,0.3617853820323944,0.2526080310344696,0.3691498041152954
1772536749685354000,3.59635400390625,0.41072016954421997,0.3804887533187866,0.3597959876060486
1772536749695402000,3.606402099609375,0.4420096278190613,0.3996049165725708,0.29647907614707947
1772536749705451000,3.616450927734375,0.4456073045730591,0.3029545545578003,0.1850966215133667
1772536749715499800,3.626499755859375,0.43193331360816956,0.173513725399971,0.06628501415252686
1772536749725549000,3.636549072265625,0.4117835462093353,0.07272906601428986,-0.015530756674706936
1772536749735596800,3.6465966796875,0.3763411343097687,-0.012898487970232964,-0.07417622953653336
1772536749745646000,3.65664599609375,0.33368155360221863,-0.0898398756980896,-0.11761877685785294
1772536749755694800,3.66669482421875,0.3015848696231842,-0.1467556208372116,-0.13504436612129211
1772536749765743900,3.676743896484375,0.28734415769577026,-0.1525152325630188,-0.13642974197864532
1772536749775791900,3.6867919921875,0.2903066575527191,-0.09905946999788284,-0.12266147136688232
1772536749785841000,3.6968408203125,0.3026900887489319,-0.015031147748231888,-0.09980648756027222
1772536749795890000,3.706889892578125,0.33135849237442017,0.05282513052225113,-0.08165358006954193
1772536749805938000,3.71693798828125,0.3558734059333801,0.08554019778966904,-0.05915280058979988
1772536749815987000,3.726987060546875,0.36670610308647156,0.07423880696296692,-0.031005585566163063
1772536749826036000,3.737035888671875,0.3597440719604492,0.054308511316776276,0.014566958881914616
1772536749836084700,3.747084716796875,0.32675042748451233,0.007754858583211899,0.049482863396406174
1772536749846133000,3.757133056640625,0.27563875913619995,-0.05253591388463974,0.07818774878978729
1772536749856181800,3.767181640625,0.21506516635417938,-0.09983711689710617,0.09444394707679749
1772536749866231000,3.77723095703125,0.14636360108852386,-0.10187257081270218,0.11961614340543747
1772536749876278800,3.78727880859375,0.09373581409454346,-0.04818696901202202,0.14876577258110046
1772536749886328000,3.797328125,0.06112886592745781,0.0433216392993927,0.18024593591690063
1772536749896376800,3.807376953125,0.05342221260070801,0.13434316217899323,0.1799769550561905
1772536749906425900,3.81742578125,0.07064061611890793,0.2084682583808899,0.1668691486120224
1772536749916473900,3.827473876953125,0.09415872395038605,0.25869494676589966,0.14749199151992798
1772536749926523000,3.83752294921875,0.10462547838687897,0.2662372887134552,0.1370566487312317
1772536749936572000,3.847572021484375,0.10369310528039932,0.25551992654800415,0.1347239911556244
1772536749946620000,3.857619873046875,0.08971204608678818,0.23059938848018646,0.14924433827400208
1772536749956669000,3.8676689453125,0.06853138655424118,0.2006300389766693,0.16811656951904297
1772536749966718000,3.877718017578125,0.03981532156467438,0.17942728102207184,0.1845589280128479
1772536749976766700,3.8877666015625,0.01877315528690815,0.1535634547472,0.18305423855781555
1772536749986815000,3.89781494140625,-0.0012333098566159606,0.09809194505214691,0.14079760015010834
1772536749996863700,3.90786376953125,-0.026256637647747993,-0.002609365154057741,0.0655427873134613
1772536750006913000,3.9179130859375,-0.05464114248752594,-0.09706795960664749,-0.018701516091823578
1772536750016960800,3.927960693359375,-0.08555910736322403,-0.1588737964630127,-0.10677891224622726
1772536750027010000,3.938010009765625,-0.11502911895513535,-0.19440943002700806,-0.1863299310207367
1772536750037058800,3.948058837890625,-0.14287273585796356,-0.19268476963043213,-0.24666570127010345
1772536750047107800,3.95810791015625,-0.16701295971870422,-0.14307379722595215,-0.27915626764297485
1772536750057155800,3.96815576171875,-0.17607435584068298,-0.08790908008813858,-0.27955442667007446
1772536750067204900,3.978204833984375,-0.16963057219982147,-0.024237696081399918,-0.2675153315067291
1772536750077254000,3.98825390625,-0.14655029773712158,0.007601194549351931,-0.23310941457748413
1772536750087302000,3.998302001953125,-0.10887881368398666,0.037156954407691956,-0.1962006688117981
1772536750097351000,4.008350830078125,-0.05680655688047409,0.0814671590924263,-0.15118631720542908
1772536750107400000,4.01839990234375,-0.021923940628767014,0.13045307993888855,-0.12721841037273407
1772536750117449000,4.028448974609375,0.007097057998180389,0.15222549438476562,-0.13506487011909485
1772536750127497000,4.0384970703125,0.02262621559202671,0.1447920799255371,-0.16614343225955963
1772536750137545700,4.048545654296875,0.019940951839089394,0.11812956631183624,-0.20588764548301697
1772536750147595000,4.058594970703125,0.013435914181172848,0.06629113852977753,-0.24206189811229706
1772536750157642800,4.068642822265625,0.013876933604478836,0.012330169789493084,-0.2579820156097412
1772536750167692000,4.078692138671875,0.016272978857159615,-0.03337899595499039,-0.23640668392181396
1772536750177740800,4.08874072265625,0.02478710561990738,-0.04993054270744324,-0.20132006704807281
1772536750187789800,4.098789794921875,0.042145323008298874,-0.0575820691883564,-0.15220977365970612
1772536750197837800,4.108837890625,0.06071128323674202,-0.04659653082489967,-0.10188828408718109
1772536750207886800,4.118886962890625,0.0816330760717392,0.0007384945638477802,-0.05417535454034805
1772536750217936100,4.12893603515625,0.0974075123667717,0.04171229153871536,-0.024686969816684723
1772536750227984000,4.13898388671875,0.10258523374795914,0.0705505982041359,-0.025479260832071304
1772536750238033000,4.149032958984375,0.09526020288467407,0.06372971087694168,-0.036037627607584
1772536750248082000,4.15908203125,0.07689877599477768,0.04055248573422432,-0.04809455946087837
1772536750258131000,4.169130859375,0.054489076137542725,0.008610532619059086,-0.05083122104406357
1772536750268179000,4.179178955078125,0.027962658554315567,-0.04747457429766655,-0.03825870528817177
1772536750278228000,4.18922802734375,-0.002523345174267888,-0.12637950479984283,-0.008284561336040497
1772536750288277000,4.199277099609375,-0.033369939774274826,-0.22043649852275848,0.03350416570901871
1772536750298324700,4.20932470703125,-0.061762433499097824,-0.2953661382198334,0.08267544209957123
1772536750308374000,4.2193740234375,-0.08981430530548096,-0.31533902883529663,0.1274610161781311
1772536750318423000,4.229423095703125,-0.09937798231840134,-0.29184117913246155,0.16207492351531982
1772536750328471800,4.239471923828125,-0.10642178356647491,-0.2638162076473236,0.16863135993480682
1772536750338519800,4.249519775390625,-0.12563303112983704,-0.24770326912403107,0.153061181306839
1772536750348568800,4.25956884765625,-0.14463068544864655,-0.22804968059062958,0.11581394821405411
1772536750358618000,4.2696181640625,-0.1697738617658615,-0.18695124983787537,0.08519186079502106
1772536750368665900,4.279665771484375,-0.19706833362579346,-0.13078144192695618,0.0623541884124279
1772536750378715100,4.289715087890625,-0.22797004878520966,-0.06889837235212326,0.054001182317733765
1772536750388764000,4.299763916015625,-0.2445538192987442,-0.00917538907378912,0.053457099944353104
1772536750398813000,4.30981298828125,-0.25196486711502075,0.049974218010902405,0.07596374303102493
1772536750408861000,4.31986083984375,-0.24343661963939667,0.08596337586641312,0.1134546548128128
1772536750418910000,4.329909912109375,-0.23060071468353271,0.07737521827220917,0.16914694011211395
1772536750428959000,4.339958984375,-0.214176207780838,0.012290754355490208,0.22828936576843262
1772536750439007000,4.350007080078125,-0.20521360635757446,-0.07844900339841843,0.28507888317108154
1772536750449056300,4.36005615234375,-0.20015786588191986,-0.15458664298057556,0.3596037030220032
1772536750459105000,4.37010498046875,-0.19782839715480804,-0.20321623980998993,0.43103474378585815
1772536750469154000,4.380154052734375,-0.188884437084198,-0.19943028688430786,0.4916730523109436
1772536750479202000,4.3902021484375,-0.1820393055677414,-0.16153830289840698,0.5300103425979614
1772536750489251000,4.4002509765625,-0.1818305104970932,-0.14415158331394196,0.5250989198684692
1772536750499300000,4.410300048828125,-0.17916975915431976,-0.12154081463813782,0.47766536474227905
1772536750509348000,4.42034814453125,-0.17699554562568665,-0.060684651136398315,0.3989787995815277
1772536750519397000,4.430397216796875,-0.18940775096416473,0.033906567841768265,0.299243688583374
1772536750529446100,4.440446044921875,-0.22565150260925293,0.12629055976867676,0.16584302484989166
1772536750539495000,4.450494873046875,-0.27681562304496765,0.18497464060783386,0.016511065885424614
1772536750549543200,4.460543212890625,-0.33984383940696716,0.1958605796098709,-0.13851313292980194
1772536750559592000,4.470592041015625,-0.40097883343696594,0.1650579273700714,-0.2825997471809387
1772536750569641200,4.48064111328125,-0.46034443378448486,0.12270248681306839,-0.38479506969451904
1772536750579689000,4.49068896484375,-0.5072767734527588,0.0864933431148529,-0.4410519599914551
1772536750589738200,4.50073828125,-0.5276387929916382,0.07201853394508362,-0.4409278631210327
1772536750599787000,4.510787109375,-0.5113983154296875,0.07739785313606262,-0.3900843858718872
1772536750609835300,4.520835205078125,-0.46858957409858704,0.10239401459693909,-0.2972974479198456
1772536750619884000,4.530884033203125,-0.40453070402145386,0.10968202352523804,-0.17918093502521515
1772536750629933000,4.54093310546875,-0.324539452791214,0.08529572188854218,-0.05300622805953026
1772536750639982000,4.550982177734375,-0.23347187042236328,0.03953755646944046,0.07282280921936035
1772536750650030000,4.561030029296875,-0.148275226354599,-0.026502713561058044,0.1650257110595703
1772536750660079000,4.5710791015625,-0.09126999229192734,-0.12015623599290848,0.20888717472553253
1772536750670128000,4.581128173828125,-0.06615212559700012,-0.20854522287845612,0.2168356329202652
1772536750680176000,4.591176025390625,-0.07675682753324509,-0.26437172293663025,0.1844255030155182
1772536750690225200,4.60122509765625,-0.1147175282239914,-0.3021332323551178,0.11500435322523117
1772536750700274000,4.61127392578125,-0.1738269180059433,-0.3130199611186981,0.017362479120492935
1772536750710323200,4.6213232421875,-0.23546285927295685,-0.271666944026947,-0.10876189917325974
1772536750720371000,4.631370849609375,-0.28841474652290344,-0.23068568110466003,-0.26533180475234985
1772536750730420200,4.641420166015625,-0.33607229590415955,-0.21797573566436768,-0.42487460374832153
1772536750740469000,4.651468994140625,-0.3740132749080658,-0.19674821197986603,-0.5610358715057373
1772536750750517200,4.661517333984375,-0.39404425024986267,-0.15367718040943146,-0.6448578238487244
1772536750760566000,4.67156591796875,-0.40113943815231323,-0.10844071954488754,-0.6732971668243408
1772536750770615000,4.681614990234375,-0.394019216299057,-0.08041920512914658,-0.6595603227615356
1772536750780664000,4.6916640625,-0.3828038275241852,-0.10479006171226501,-0.6222744584083557
1772536750790712000,4.701712158203125,-0.36037683486938477,-0.16338200867176056,-0.565394401550293
1772536750800761000,4.711760986328125,-0.33308741450309753,-0.20114029943943024,-0.4846210181713104
1772536750810810000,4.72181005859375,-0.29986366629600525,-0.21533361077308655,-0.39429643750190735
1772536750820858000,4.731858154296875,-0.2635538876056671,-0.23317386209964752,-0.3008969724178314
1772536750830907100,4.7419072265625,-0.22851572930812836,-0.23609402775764465,-0.22098112106323242
1772536750840956000,4.751955810546875,-0.21240387856960297,-0.20770259201526642,-0.16371409595012665
1772536750851005200,4.762005126953125,-0.20212407410144806,-0.14954900741577148,-0.14241227507591248
1772536750861053000,4.772052978515625,-0.1912679672241211,-0.061529938131570816,-0.1562013179063797
1772536750871102200,4.782102294921875,-0.19216305017471313,0.02672641910612583,-0.1916586458683014
1772536750881151000,4.79215087890625,-0.1881142407655716,0.0867905542254448,-0.2295711487531662
1772536750891199200,4.80219921875,-0.18632780015468597,0.12594380974769592,-0.2536200284957886
1772536750901248000,4.812248046875,-0.18357115983963013,0.14669063687324524,-0.2676120102405548
1772536750911297000,4.822297119140625,-0.1706867814064026,0.15515044331550598,-0.2562166154384613
1772536750921346000,4.832345947265625,-0.15721198916435242,0.14709118008613586,-0.23763546347618103
1772536750931394000,4.84239404296875,-0.1448938101530075,0.12143455445766449,-0.20704986155033112
1772536750941443000,4.852443115234375,-0.1246069073677063,0.07589796185493469,-0.1758487969636917
1772536750951492000,4.8624921875,-0.09625143557786942,0.023091470822691917,-0.1438349336385727
1772536750961540000,4.8725400390625,-0.06666690856218338,-0.015590677969157696,-0.10382653027772903
1772536750971589000,4.882589111328125,-0.026324547827243805,-0.048170190304517746,-0.048833318054676056
1772536750981638000,4.892637939453125,0.007695470005273819,-0.06876441836357117,0.007420632056891918
1772536750991686100,4.90268603515625,0.03826349973678589,-0.06986989825963974,0.0601901039481163
1772536751001735000,4.91273486328125,0.05844786390662193,-0.041184186935424805,0.10092208534479141
1772536751011784200,4.9227841796875,0.0687929093837738,0.004226702731102705,0.12282099574804306
1772536751021833000,4.9328330078125,0.07232879102230072,0.05768353492021561,0.12291181087493896
1772536751031881200,4.942881103515625,0.07826337963342667,0.08805502206087112,0.11350472271442413
1772536751041930000,4.952929931640625,0.09619604051113129,0.09737715125083923,0.11879988759756088
1772536751051979000,4.96297900390625,0.11827950179576874,0.07058841735124588,0.13498204946517944
1772536751062027000,4.973027099609375,0.14391988515853882,0.01344470214098692,0.160922572016716
1772536751072076000,4.983075927734375,0.16598017513751984,-0.06046067923307419,0.20568178594112396
1772536751082125000,4.993125,0.18497490882873535,-0.1392468363046646,0.2446155995130539
1772536751092174000,5.003174072265625,0.20590177178382874,-0.2200399488210678,0.2846735417842865
1772536751102222000,5.01322216796875,0.23108088970184326,-0.28736332058906555,0.320984423160553
1772536751112271000,5.02327099609375,0.25805631279945374,-0.33676549792289734,0.34558963775634766
1772536751122320000,5.03331982421875,0.28580886125564575,-0.35013189911842346,0.35399189591407776
1772536751132368100,5.0433681640625,0.32103076577186584,-0.34768128395080566,0.33864861726760864
1772536751142417000,5.0534169921875,0.3371165096759796,-0.38687795400619507,0.291620135307312
1772536751152466200,5.063466064453125,0.3248569071292877,-0.45106810331344604,0.2116326242685318
1772536751162515200,5.07351513671875,0.2943778336048126,-0.4727265238761902,0.12113441526889801
1772536751172563200,5.083563232421875,0.26201537251472473,-0.440233051776886,0.03750289976596832
1772536751182612000,5.093612060546875,0.21640446782112122,-0.3759840130805969,-0.01877501979470253
1772536751192661000,5.103660888671875,0.14520007371902466,-0.39769142866134644,-0.07982399314641953
1772536751202709000,5.113708984375,0.13904763758182526,-0.40558770298957825,-0.08103492856025696
1772536751212758000,5.123758056640625,0.14102290570735931,-0.3258223235607147,-0.019338278099894524
1772536751222807300,5.133807373046875,0.16914881765842438,-0.18346543610095978,0.0821787565946579
1772536751232855000,5.14385498046875,0.22460781037807465,0.010337592102587223,0.20034535229206085
1772536751242904000,5.153904052734375,0.2867753207683563,0.19803372025489807,0.2926473021507263
1772536751252953000,5.163953125,0.3674166202545166,0.3381364941596985,0.32945218682289124
1772536751263002000,5.174002197265625,0.4421984553337097,0.40837204456329346,0.33146554231643677
1772536751273050000,5.184050048828125,0.4870399534702301,0.4001585841178894,0.30858394503593445
1772536751283099000,5.194098876953125,0.5015313029289246,0.31820887327194214,0.2843470275402069
1772536751293148200,5.204148193359375,0.47910693287849426,0.19982123374938965,0.25915807485580444
1772536751303197200,5.214197265625,0.4634310305118561,0.09550788253545761,0.24067120254039764
1772536751313245200,5.2242451171875,0.4391549825668335,0.039085615426301956,0.23395337164402008
1772536751323294200,5.234294189453125,0.4109947383403778,0.006375341210514307,0.20487937331199646
1772536751333343000,5.244343017578125,0.381846159696579,0.0044014062732458115,0.17610499262809753
1772536751343391000,5.254390869140625,0.35398417711257935,0.038782548159360886,0.13905535638332367
1772536751353440000,5.26443994140625,0.3334607779979706,0.1017196998000145,0.10736799985170364
1772536751363489000,5.274489013671875,0.32442840933799744,0.19126050174236298,0.0785139799118042
1772536751373537000,5.284537109375,0.3265794515609741,0.27326056361198425,0.05054972693324089
1772536751383586000,5.2945859375,0.32899200916290283,0.3322272002696991,0.03618809953331947
1772536751393635000,5.304635009765625,0.3346099555492401,0.36530792713165283,0.022540995851159096
1772536751403684000,5.31468408203125,0.339631587266922,0.3750186264514923,0.026373017579317093
1772536751413732000,5.324732177734375,0.3456101417541504,0.3670211434364319,0.042697928845882416
1772536751423781000,5.334781005859375,0.34382954239845276,0.33607813715934753,0.07644497603178024
1772536751433829000,5.3448291015625,0.33352550864219666,0.28227856755256653,0.10576131939888
1772536751443878000,5.3548779296875,0.30287623405456543,0.2184375375509262,0.11721716821193695
1772536751453927200,5.36492724609375,0.2911684513092041,0.13392691314220428,0.10256152600049973
1772536751463976400,5.3749765625,0.25896337628364563,0.08017446100711823,0.07232958823442459
1772536751474024200,5.385024169921875,0.2047659307718277,0.06298509240150452,0.020252007991075516
1772536751484073500,5.395073486328125,0.16388002038002014,0.05868035554885864,-0.037511155009269714
1772536751494122200,5.405122314453125,0.11259205639362335,0.08211484551429749,-0.08385095745325089
1772536751504170500,5.41517041015625,0.0850381925702095,0.1059781014919281,-0.12962749600410461
1772536751514219300,5.42521923828125,0.07866311818361282,0.16728059947490692,-0.1650339663028717
1772536751524268300,5.435268310546875,0.08676259219646454,0.2830929458141327,-0.1779915690422058
1772536751534316300,5.44531640625,0.1000557616353035,0.3850235939025879,-0.17899638414382935
1772536751544365300,5.455365234375,0.10631205886602402,0.4556055963039398,-0.1628965139389038
1772536751554414300,5.465414306640625,0.10923301428556442,0.49985188245773315,-0.15628787875175476
1772536751564463400,5.47546337890625,0.11499928683042526,0.5180037617683411,-0.15478211641311646
1772536751574511400,5.485511474609375,0.11695963889360428,0.5158183574676514,-0.1599941998720169
1772536751584560400,5.495560302734375,0.1205248162150383,0.4923710823059082,-0.15870575606822968
1772536751594609200,5.505609130859375,0.12486470490694046,0.43112796545028687,-0.15928100049495697
1772536751604657400,5.515657470703125,0.13524571061134338,0.39770662784576416,-0.14160826802253723
1772536751614706200,5.5257060546875,0.10945059359073639,0.33300724625587463,-0.14054246246814728
1772536751624755500,5.53575537109375,0.104044109582901,0.23611000180244446,-0.151450514793396
1772536751634804200,5.54580419921875,0.09931353479623795,0.17582908272743225,-0.1530127227306366
1772536751644852500,5.5558525390625,0.08626244962215424,0.1533794403076172,-0.13740846514701843
1772536751654901200,5.5659013671875,0.07812809199094772,0.15114371478557587,-0.11073024570941925
1772536751664950300,5.5759501953125,0.08426561206579208,0.11818469315767288,-0.08054517954587936
1772536751674998300,5.585998291015625,0.08194520324468613,0.058638546615839005,-0.03278324753046036
1772536751685047300,5.59604736328125,0.09061431884765625,0.001683916780166328,0.02570030279457569
1772536751695096300,5.606096435546875,0.10966098308563232,-0.05656314268708229,0.09731510281562805
1772536751705144300,5.616144287109375,0.12807275354862213,-0.10693950206041336,0.1592506468296051
1772536751715193300,5.626193359375,0.14088335633277893,-0.13671843707561493,0.21646173298358917
1772536751725242400,5.636242431640625,0.14304077625274658,-0.1365911364555359,0.26405268907546997
1772536751735291100,5.646291015625,0.1355692744255066,-0.10615759342908859,0.3034413754940033
1772536751745339400,5.65633935546875,0.11652661114931107,-0.06239919364452362,0.32542896270751953
1772536751755388200,5.66638818359375,0.09012988954782486,0.002430134452879429,0.3280319273471832
1772536751765437400,5.6764375,0.06210145354270935,0.07814407348632812,0.3140500783920288
1772536751775485200,5.686485107421875,0.038013163954019547,0.13264645636081696,0.2824711203575134
1772536751785534500,5.696534423828125,0.013961088843643665,0.19080057740211487,0.2346774935722351
1772536751795583200,5.706583251953125,-0.008260326460003853,0.2256309986114502,0.1764669120311737
1772536751805632300,5.71663232421875,-0.042823631316423416,0.231679305434227,0.11783875524997711
1772536751815680300,5.72668017578125,-0.08436441421508789,0.21358898282051086,0.07639437168836594
1772536751825729300,5.736729248046875,-0.13364088535308838,0.17301945388317108,0.055933307856321335
1772536751835778300,5.7467783203125,-0.18740370869636536,0.11786831170320511,0.06344874948263168
1772536751845826300,5.756826416015625,-0.23642638325691223,0.06461095064878464,0.10467661172151566
1772536751855875300,5.766875244140625,-0.2657613754272461,0.04109097644686699,0.1606471985578537
1772536751865924400,5.77692431640625,-0.2683052122592926,0.030310768634080887,0.2001839578151703
1772536751875972400,5.786972412109375,-0.24768942594528198,0.004276770167052746,0.19110363721847534
1772536751886021400,5.797021484375,-0.23718485236167908,-0.06835029274225235,0.1337309032678604
1772536751896070100,5.807070068359375,-0.23922723531723022,-0.14706774055957794,0.04969112202525139
1772536751906119400,5.817119384765625,-0.263306200504303,-0.1966845691204071,-0.03155206888914108
1772536751916167200,5.827167236328125,-0.3085056245326996,-0.2084043323993683,-0.1279022991657257
1772536751926216400,5.837216552734375,-0.3655652105808258,-0.1864851862192154,-0.23499520123004913
1772536751936265200,5.84726513671875,-0.4169410467147827,-0.13682416081428528,-0.3377745747566223
1772536751946313500,5.8573134765625,-0.4493626356124878,-0.03718225657939911,-0.41373512148857117
1772536751956362200,5.8673623046875,-0.4391600489616394,0.09983684867620468,-0.43901464343070984
1772536751966411300,5.877411376953125,-0.4011165201663971,0.23590680956840515,-0.42033711075782776
1772536751976460300,5.887460205078125,-0.3446609675884247,0.32471683621406555,-0.36025485396385193
1772536751986508300,5.89750830078125,-0.28124499320983887,0.3328557312488556,-0.2595506012439728
1772536751996557300,5.907557373046875,-0.22553059458732605,0.2882227301597595,-0.1362164318561554
1772536752006606300,5.9176064453125,-0.1844654530286789,0.19813092052936554,0.003422162029892206
1772536752016654300,5.927654296875,-0.15720106661319733,0.08795621991157532,0.13048423826694489
1772536752026703400,5.937703369140625,-0.1339530050754547,0.003183809109032154,0.24162514507770538
1772536752036752100,5.947752197265625,-0.11728668212890625,-0.07252373546361923,0.30401527881622314
1772536752046801400,5.957801513671875,-0.0960378497838974,-0.1149659976363182,0.32060518860816956
1772536752056849200,5.96784912109375,-0.08310580253601074,-0.12022814154624939,0.3019571900367737
1772536752066898400,5.9778984375,-0.09064015746116638,-0.10540711879730225,0.25949227809906006
1772536752076947200,5.987947265625,-0.11088816821575165,-0.11681370437145233,0.18845033645629883
1772536752086995500,5.997995361328125,-0.1367727667093277,-0.14428606629371643,0.10268136858940125
1772536752097044200,6.008044189453125,-0.17518113553524017,-0.17990931868553162,0.0046211169101297855
1772536752107093200,6.01809326171875,-0.2324010133743286,-0.21557436883449554,-0.0945478081703186
1772536752117142300,6.028142333984375,-0.29309284687042236,-0.25029584765434265,-0.19139046967029572
1772536752127190300,6.038190185546875,-0.35663774609565735,-0.28875109553337097,-0.2774718105792999
1772536752137239300,6.0482392578125,-0.41236573457717896,-0.2986985445022583,-0.3476082980632782
1772536752147288300,6.058288330078125,-0.44181203842163086,-0.2582981288433075,-0.38699406385421753
1772536752157336300,6.06833642578125,-0.4368135333061218,-0.18730971217155457,-0.3956775665283203
1772536752167385300,6.07838525390625,-0.4072657823562622,-0.12233203649520874,-0.37594538927078247
1772536752177434000,6.08843408203125,-0.3545554280281067,-0.05817781761288643,-0.3366405963897705
1772536752187482400,6.098482421875,-0.29871025681495667,0.015533152967691422,-0.2848522365093231
1772536752197531100,6.10853125,-0.24857306480407715,0.08846355229616165,-0.22761239111423492
1772536752207580400,6.118580322265625,-0.21113088726997375,0.1194307878613472,-0.18012449145317078
1772536752217629200,6.128629150390625,-0.18582579493522644,0.1307622790336609,-0.11739587038755417
1772536752227677400,6.138677490234375,-0.17545518279075623,0.13820740580558777,-0.05398440361022949
1772536752237726200,6.148726318359375,-0.18379274010658264,0.1139308288693428,0.0020221380982548
1772536752247775200,6.158775146484375,-0.20287002623081207,0.04151575267314911,0.0432468056678772
1772536752257823200,6.1688232421875,-0.2170092761516571,-0.049125466495752335,0.06675346195697784
1772536752267872300,6.178872314453125,-0.23614701628684998,-0.13265764713287354,0.07764126360416412
1772536752277921300,6.18892138671875,-0.2646007537841797,-0.20655743777751923,0.06531588733196259
1772536752287969300,6.19896923828125,-0.29222625494003296,-0.2530194818973541,0.04597814381122589
1772536752298018300,6.209018310546875,-0.30910563468933105,-0.25863608717918396,0.03280428424477577
1772536752308067300,6.2190673828125,-0.3228488862514496,-0.22526507079601288,0.027358919382095337
1772536752318116000,6.2291162109375,-0.3241908550262451,-0.16776156425476074,0.020481040701270103
1772536752328164400,6.239164306640625,-0.3041628301143646,-0.09967119991779327,0.005614476278424263
1772536752338213000,6.249213134765625,-0.27420464158058167,-0.018612831830978394,-0.009726396761834621
1772536752348262400,6.259262451171875,-0.2278486043214798,0.057867296040058136,-0.017763284966349602
1772536752358310100,6.26931005859375,-0.1820952296257019,0.1245507150888443,-0.019218169152736664
1772536752368359400,6.279359375,-0.13170742988586426,0.17534838616847992,-0.0038722362369298935
1772536752378408200,6.289408203125,-0.08873572945594788,0.18561913073062897,0.020720457658171654
1772536752388457200,6.299457275390625,-0.05302273854613304,0.14872795343399048,0.052927929908037186
1772536752398505200,6.309505126953125,-0.021877335384488106,0.06990398466587067,0.09210462868213654
1772536752408554200,6.31955419921875,0.013617541640996933,-0.006845921743661165,0.13358336687088013
1772536752418603500,6.329603515625,0.052987851202487946,-0.06157175078988075,0.18155328929424286
1772536752428651300,6.3396513671875,0.10043685883283615,-0.09716330468654633,0.22896474599838257
1772536752438700300,6.3497001953125,0.14357607066631317,-0.11862358450889587,0.28181037306785583
1772536752448749600,6.35974951171875,0.19312365353107452,-0.11054515093564987,0.3249988555908203
1772536752458797600,6.369797607421875,0.2521744668483734,-0.0654386579990387,0.377656489610672
1772536752468846600,6.3798466796875,0.309293657541275,0.0060088904574513435,0.425476998090744
1772536752478895400,6.389895263671875,0.3650272488594055,0.08882281184196472,0.4686170220375061
1772536752488944600,6.399944580078125,0.4186638295650482,0.14643897116184235,0.49151140451431274
1772536752498992400,6.409992431640625,0.4582599699497223,0.15460023283958435,0.4914996922016144
1772536752509041700,6.420041748046875,0.47657400369644165,0.12003879249095917,0.4843890368938446
1772536752519090400,6.43009033203125,0.4855073094367981,0.07610302418470383,0.4688127636909485
1772536752529138700,6.440138671875,0.4858679175376892,0.05314178019762039,0.4482235908508301
1772536752539187500,6.4501875,0.49304112792015076,0.03369990736246109,0.4143388569355011
1772536752549236500,6.460236572265625,0.4889981746673584,-0.023545539006590843,0.3528240919113159
1772536752559284500,6.470284423828125,0.4679829180240631,-0.09423861652612686,0.2873987555503845
1772536752569333500,6.48033349609375,0.452304869890213,-0.14333398640155792,0.21581991016864777
1772536752579382500,6.490382568359375,0.4269651770591736,-0.14844806492328644,0.156664177775383
1772536752589431600,6.500431640625,0.38658472895622253,-0.1309036910533905,0.10136070847511292
1772536752599479600,6.5104794921875,0.33169829845428467,-0.1283654272556305,0.04748229682445526
1772536752609528600,6.520528564453125,0.27483290433883667,-0.10767053812742233,0.004744953941553831
1772536752619577300,6.530577392578125,0.23376695811748505,-0.047928642481565475,-0.011089402250945568
1772536752629625600,6.54062548828125,0.2095063477754593,0.04237009212374687,-0.019930565729737282
1772536752639674400,6.55067431640625,0.2112981230020523,0.13857918977737427,-0.0216514989733696
1772536752649723600,6.5607236328125,0.21833419799804688,0.19592556357383728,-0.0012658004416152835
1772536752659771400,6.570771484375,0.2240362912416458,0.19036434590816498,0.014444719068706036
1772536752669820700,6.580820556640625,0.24280571937561035,0.18093276023864746,0.03995274379849434
1772536752679869400,6.590869384765625,0.2675515413284302,0.19611358642578125,0.08511755615472794
1772536752689918500,6.60091845703125,0.2871502935886383,0.20740166306495667,0.13859756290912628
1772536752699966500,6.610966552734375,0.3068302571773529,0.21085017919540405,0.1949114352464676
1772536752710015500,6.621015380859375,0.31705784797668457,0.19340328872203827,0.23439732193946838
1772536752720064500,6.631064453125,0.3148157298564911,0.18091385066509247,0.25508448481559753
1772536752730112500,6.641112548828125,0.289721816778183,0.16124054789543152,0.254263699054718
1772536752740161500,6.65116162109375,0.26774144172668457,0.11700065433979034,0.23020391166210175
1772536752750210600,6.66121044921875,0.24581456184387207,0.08741027116775513,0.20221169292926788
1772536752760258600,6.671258544921875,0.21963435411453247,0.08290287107229233,0.16089141368865967
1772536752770307600,6.6813076171875,0.19586670398712158,0.07845299690961838,0.11104848980903625
1772536752780356400,6.6913564453125,0.16938211023807526,0.09950528293848038,0.06629140675067902
1772536752790405600,6.701405517578125,0.1507359892129898,0.12527403235435486,0.024561535567045212
1772536752800453400,6.711453369140625,0.13842472434043884,0.15326997637748718,-0.006982009392231703
1772536752810502700,6.721502685546875,0.13732562959194183,0.16404379904270172,-0.024347150698304176
1772536752820551400,6.731551513671875,0.12903068959712982,0.13567021489143372,-0.03225034847855568
1772536752830599400,6.741599365234375,0.1114082857966423,0.11997354030609131,-0.0478476844727993
1772536752840648400,6.7516484375,0.12610547244548798,0.06916975229978561,-0.0709649845957756
1772536752850697500,6.761697509765625,0.11627867072820663,0.05657379701733589,-0.09291289746761322
1772536752860745500,6.771745361328125,0.1035303846001625,0.08335108309984207,-0.12410703301429749
1772536752870794500,6.78179443359375,0.10294955223798752,0.10069119185209274,-0.1466839760541916
1772536752880843500,6.791843505859375,0.10906895995140076,0.14164608716964722,-0.15661144256591797
1772536752890892500,6.801892578125,0.13209810853004456,0.1859581470489502,-0.16190661489963531
1772536752900940500,6.8119404296875,0.15598426759243011,0.2571910619735718,-0.1642424762248993
1772536752910989600,6.821989501953125,0.18236102163791656,0.32225102186203003,-0.1777750551700592
1772536752921038600,6.83203857421875,0.20053789019584656,0.3780626058578491,-0.18889321386814117
1772536752931086600,6.842086669921875,0.20546340942382812,0.4172014892101288,-0.1995037943124771
1772536752941135400,6.85213525390625,0.20780299603939056,0.41192683577537537,-0.21716400980949402
1772536752951184400,6.862184326171875,0.20054587721824646,0.3805771768093109,-0.22189751267433167
1772536752961232400,6.872232421875,0.1806294322013855,0.34243378043174744,-0.21428778767585754
1772536752971281400,6.882281494140625,0.15623141825199127,0.2997422516345978,-0.20851406455039978
1772536752981330400,6.892330322265625,0.14434465765953064,0.28664854168891907,-0.2108757495880127
1772536752991379500,6.90237939453125,0.14075419306755066,0.2683776617050171,-0.18690970540046692
1772536753001427500,6.912427490234375,0.12196478992700577,0.15479277074337006,-0.19168022274971008
1772536753011476500,6.9224765625,0.12309449911117554,0.01380795706063509,-0.1984904557466507
1772536753021525500,6.932525390625,0.11943212151527405,-0.05399132892489433,-0.18730437755584717
1772536753031573500,6.942573486328125,0.0934833437204361,-0.06603680551052094,-0.15397492051124573
1772536753041622500,6.95262255859375,0.06759689003229141,-0.034156639128923416,-0.10354556888341904
1772536753051671600,6.962671630859375,0.05043760687112808,0.011875035241246223,-0.06028570979833603
1772536753061719300,6.97271923828125,0.026683010160923004,0.06138186901807785,-0.025798840448260307
1772536753071768600,6.9827685546875,0.0052046156488358974,0.07873209565877914,-0.014288924634456635
1772536753081817600,6.992817626953125,-0.011596734635531902,0.0487411729991436,-0.0137802604585886
1772536753091866400,7.002866455078125,-0.0328998938202858,-0.0024610271211713552,-0.013071860186755657
1772536753101914400,7.012914306640625,-0.06526076048612595,-0.04813424125313759,-0.0032626385800540447
1772536753111963400,7.02296337890625,-0.10483693331480026,-0.09028462320566177,0.016806943342089653
1772536753122012700,7.0330126953125,-0.14403893053531647,-0.11476439982652664,0.0382203571498394
1772536753132060400,7.043060302734375,-0.1824454367160797,-0.11639399081468582,0.06872020661830902
1772536753142109400,7.053109375,-0.2162199169397354,-0.12295335531234741,0.07964183390140533
1772536753152158500,7.063158447265625,-0.2443748563528061,-0.14774444699287415,0.07349126040935516
1772536753162206500,7.07320654296875,-0.2760249376296997,-0.17902061343193054,0.05692240595817566
1772536753172255500,7.08325537109375,-0.3085077702999115,-0.1931159347295761,0.04319647327065468
1772536753182304500,7.093304443359375,-0.3451493978500366,-0.20652255415916443,0.028791701421141624
1772536753192353500,7.103353515625,-0.37941497564315796,-0.2144095003604889,0.015571502968668938
1772536753202401300,7.1134013671875,-0.39308977127075195,-0.15206356346607208,0.04030055180191994
1772536753212450600,7.123450439453125,-0.4013966917991638,-0.04687110334634781,0.09459654986858368
1772536753222499600,7.13349951171875,-0.3962738513946533,0.05259290337562561,0.1626879870891571
1772536753232547600,7.143547607421875,-0.3691119849681854,0.14562058448791504,0.2443990856409073
1772536753242596600,7.1535966796875,-0.32139694690704346,0.2466856837272644,0.3266225755214691
1772536753252645400,7.163645263671875,-0.2571638822555542,0.2920222580432892,0.4071464538574219
1772536753262693400,7.173693359375,-0.2264336794614792,0.25204476714134216,0.45203697681427
1772536753272742400,7.183742431640625,-0.22863183915615082,0.12754490971565247,0.4429609179496765
1772536753282791700,7.193791748046875,-0.2587607204914093,-0.052675195038318634,0.38043734431266785
1772536753292840400,7.20384033203125,-0.3202427327632904,-0.2555398941040039,0.2787858247756958
1772536753302888400,7.213888427734375,-0.4176070988178253,-0.46434077620506287,0.1470688134431839
1772536753312937500,7.2239375,-0.5658444762229919,-0.6388885974884033,-0.03260854259133339
1772536753322986500,7.233986572265625,-0.7392016053199768,-0.7533478140830994,-0.2524833679199219
1772536753333034500,7.244034423828125,-0.8842520117759705,-0.7677901387214661,-0.4624432623386383
1772536753343083500,7.25408349609375,-0.980746328830719,-0.6798142194747925,-0.6112977266311646
1772536753353132500,7.264132568359375,-1.0129942893981934,-0.5157336592674255,-0.7044876217842102
1772536753363180300,7.27418017578125,-0.9821924567222595,-0.28806906938552856,-0.735815703868866
1772536753373229600,7.2842294921875,-0.86761474609375,0.04577014967799187,-0.6774911284446716
1772536753383278600,7.294278564453125,-0.7215536832809448,0.4300919771194458,-0.5599477291107178
1772536753393326600,7.30432666015625,-0.5886427760124207,0.6703445315361023,-0.40150853991508484
1772536753403375600,7.314375732421875,-0.48185664415359497,0.6932746171951294,-0.2379971146583557
1772536753413424400,7.32442431640625,-0.40444841980934143,0.5598563551902771,-0.08543873578310013
1772536753423473700,7.3344736328125,-0.368992418050766,0.3867884576320648,0.03816389665007591
1772536753433521400,7.344521484375,-0.381206750869751,0.2079249620437622,0.11378861963748932
1772536753443570700,7.35457080078125,-0.39569035172462463,0.0068243504501879215,0.14924195408821106
1772536753453618400,7.364618408203125,-0.4105262756347656,-0.20048463344573975,0.14578357338905334
1772536753463666400,7.37466650390625,-0.4290813207626343,-0.37602609395980835,0.11260643601417542
1772536753473715500,7.384715576171875,-0.43215885758399963,-0.4713835120201111,0.06710979342460632
1772536753483764500,7.394764404296875,-0.42820754647254944,-0.4721930921077728,0.008718656376004219
1772536753493812200,7.404812255859375,-0.43471869826316833,-0.42284154891967773,-0.06747278571128845
1772536753503861500,7.414861572265625,-0.4460853338241577,-0.3380286395549774,-0.14432628452777863
1772536753513910500,7.42491064453125,-0.4761204719543457,-0.21618635952472687,-0.21615786850452423
1772536753523959300,7.434959228515625,-0.49796929955482483,-0.0926995798945427,-0.27946680784225464
1772536753534007300,7.44500732421875,-0.5030207633972168,0.022294919937849045,-0.3190664052963257
1772536753544056300,7.455056396484375,-0.4896983206272125,0.12455737590789795,-0.33362722396850586
1772536753554105600,7.465105712890625,-0.4594634473323822,0.19463925063610077,-0.3261195123195648
1772536753564153300,7.4751533203125,-0.4179975092411041,0.22648774087429047,-0.30686700344085693
1772536753574202600,7.48520263671875,-0.3782535493373871,0.21382014453411102,-0.2744917571544647
1772536753584251400,7.49525146484375,-0.35168561339378357,0.147079199552536,-0.23390863835811615
1772536753594299400,7.50529931640625,-0.3265027403831482,0.04885169491171837,-0.19772052764892578
1772536753604348400,7.515348388671875,-0.30669307708740234,-0.043174635618925095,-0.1533043384552002
1772536753614397400,7.5253974609375,-0.2993065416812897,-0.10992436856031418,-0.09647461026906967
1772536753624446500,7.535446533203125,-0.2908875048160553,-0.14702007174491882,-0.04402711242437363
1772536753634494500,7.545494384765625,-0.2729630768299103,-0.15884637832641602,0.011492871679365635
1772536753644543500,7.55554345703125,-0.2496553659439087,-0.14903607964515686,0.04837392270565033
1772536753654592500,7.565592529296875,-0.22236701846122742,-0.11927632987499237,0.0647084191441536
1772536753664640500,7.575640625,-0.1989474594593048,-0.08858046680688858,0.05818367749452591
1772536753674689500,7.585689453125,-0.18520528078079224,-0.05379239097237587,0.036001674830913544
1772536753684738300,7.59573828125,-0.16874881088733673,-0.009813215583562851,0.003501790575683117
1772536753694786300,7.605786376953125,-0.1578088104724884,0.023998010903596878,-0.019962256774306297
1772536753704835300,7.61583544921875,-0.14486317336559296,0.05777328461408615,-0.03322906047105789
1772536753714884600,7.625884521484375,-0.13304966688156128,0.0929965227842331,-0.02574983797967434
1772536753724932400,7.635932373046875,-0.12254641950130463,0.12185000628232956,-0.011241469532251358
1772536753734981600,7.645981689453125,-0.1067086011171341,0.15536774694919586,0.00986434891819954
1772536753745030400,7.656030517578125,-0.0827859565615654,0.1665218621492386,0.017468739300966263
1772536753755079400,7.666079345703125,-0.04206329584121704,0.17374968528747559,0.028183167800307274
1772536753765127400,7.67612744140625,0.0009914948605000973,0.17397819459438324,0.049263954162597656
1772536753775176400,7.686176513671875,0.035895414650440216,0.1650741696357727,0.07954462617635727
1772536753785225500,7.6962255859375,0.0748385563492775,0.17282050848007202,0.10789850354194641
1772536753795273500,7.7062734375,0.11157659441232681,0.18353360891342163,0.14653857052326202
1772536753805322500,7.716322509765625,0.1483766883611679,0.2074727714061737,0.18983598053455353
1772536753815371500,7.72637158203125,0.19047273695468903,0.22222934663295746,0.23596405982971191
1772536753825419500,7.73641943359375,0.22754181921482086,0.21831288933753967,0.27330663800239563
1772536753835468500,7.746468505859375,0.25958016514778137,0.20106306672096252,0.28792712092399597
1772536753845517300,7.756517333984375,0.28136029839515686,0.1862465739250183,0.28174060583114624
1772536753855566600,7.766566650390625,0.2916334569454193,0.1910029798746109,0.25472044944763184
1772536753865614300,7.7766142578125,0.30211299657821655,0.20713134109973907,0.2171698659658432
1772536753875663600,7.78666357421875,0.3135344982147217,0.2516798973083496,0.18685829639434814
1772536753885712400,7.79671240234375,0.3436982333660126,0.3036211431026459,0.16937758028507233
1772536753895760600,7.8067607421875,0.39431989192962646,0.3632948398590088,0.17520271241664886
1772536753905809400,7.816809326171875,0.4558231830596924,0.37713822722435,0.17777159810066223
1772536753915858400,7.8268583984375,0.5107378363609314,0.3003520965576172,0.16253910958766937
1772536753925906400,7.836906494140625,0.5372962355613708,0.15773184597492218,0.1411461979150772
1772536753935955500,7.84695556640625,0.5417889356613159,0.005723932292312384,0.09784293919801712
1772536753946004500,7.85700439453125,0.5222048759460449,-0.12632864713668823,0.043839357793331146
1772536753956052500,7.867052490234375,0.4748847484588623,-0.23803307116031647,-0.029024994000792503
1772536753966101500,7.8771015625,0.395964115858078,-0.3337705135345459,-0.11035207659006119
1772536753976150500,7.887150634765625,0.31633347272872925,-0.380119651556015,-0.19268982112407684
1772536753986199300,7.89719921875,0.26512593030929565,-0.3143502175807953,-0.25896018743515015
1772536753996247600,7.90724755859375,0.2500210106372833,-0.1593816727399826,-0.2845483720302582
1772536754006296300,7.91729638671875,0.2726493775844574,0.018636267632246017,-0.29307928681373596
1772536754016345600,7.927345703125,0.3223514258861542,0.15837499499320984,-0.2854525148868561
1772536754026393300,7.937393310546875,0.3844608664512634,0.214195117354393,-0.24913685023784637
1772536754036442600,7.947442626953125,0.44245970249176025,0.22374601662158966,-0.18287740647792816
1772536754046491400,7.957491455078125,0.4929676353931427,0.22401899099349976,-0.07051784545183182
1772536754056539600,7.96753955078125,0.5113961696624756,0.2126494199037552,0.05727021396160126
1772536754066588400,7.97758837890625,0.5102840065956116,0.19921882450580597,0.18038229644298553
1772536754076637400,7.987637451171875,0.5012189149856567,0.19289222359657288,0.2767130732536316
1772536754086685400,7.997685546875,0.4788360893726349,0.17966829240322113,0.3223298490047455
1772536754096734500,8.007734375,0.45435765385627747,0.143738254904747,0.30256760120391846
1772536754106783500,8.017783447265625,0.4368375241756439,0.09446578472852707,0.24346351623535156
1772536754116832500,8.02783251953125,0.4160185158252716,0.06527647376060486,0.17871488630771637
1772536754126880500,8.037880615234375,0.38617780804634094,0.056588977575302124,0.12158022820949554
1772536754136929500,8.047929443359376,0.3597909212112427,0.052913814783096313,0.07643591612577438
1772536754146978300,8.057978271484375,0.33171775937080383,0.07580022513866425,0.06009849160909653
1772536754157026600,8.068026611328126,0.2949807643890381,0.10166164487600327,0.04922933131456375
1772536754167075300,8.078075439453125,0.25416117906570435,0.09133443981409073,0.03748133033514023
1772536754177124600,8.08812451171875,0.22865474224090576,0.037637121975421906,0.01835290901362896
1772536754187172400,8.09817236328125,0.1989240199327469,-0.048781655728816986,-0.0036690370179712772
1772536754197221600,8.1082216796875,0.16005811095237732,-0.13385367393493652,-0.0323914960026741
1772536754207270400,8.1182705078125,0.12680880725383759,-0.20132964849472046,-0.05516019091010094
1772536754217318700,8.128318603515625,0.0872451588511467,-0.2300289422273636,-0.09255123883485794
1772536754227367400,8.138367431640624,0.053949516266584396,-0.21791155636310577,-0.13968679308891296
1772536754237416400,8.14841650390625,0.02305019088089466,-0.17639900743961334,-0.19382113218307495
1772536754247465500,8.158465576171874,0.007693339604884386,-0.0966586321592331,-0.24868224561214447
1772536754257513500,8.168513427734375,0.012241752818226814,0.000803209375590086,-0.28727251291275024
1772536754267562500,8.1785625,0.030546989291906357,0.11773169040679932,-0.2906550168991089
1772536754277611500,8.188611572265625,0.05938609316945076,0.25134941935539246,-0.28338029980659485
1772536754287659500,8.198659423828126,0.09681922197341919,0.36458516120910645,-0.27637967467308044
1772536754297708500,8.20870849609375,0.129729762673378,0.43689584732055664,-0.26562023162841797
1772536754307757300,8.21875732421875,0.1457659900188446,0.4385776221752167,-0.26025500893592834
1772536754317805600,8.2288056640625,0.1552620232105255,0.38382488489151,-0.25778546929359436
1772536754327854300,8.238854248046875,0.15371260046958923,0.3172234892845154,-0.24414582550525665
1772536754337903600,8.248903564453125,0.11503417789936066,0.21209122240543365,-0.24976056814193726
1772536754347952400,8.258952392578125,0.10554666817188263,0.10417114198207855,-0.2614891231060028
1772536754358000600,8.269000732421874,0.09331050515174866,0.018965700641274452,-0.2707073986530304
1772536754368049400,8.27904931640625,0.09181700646877289,-0.04031120240688324,-0.27181392908096313
1772536754378098400,8.289098388671874,0.09351982921361923,-0.08243362605571747,-0.25237366557121277
1772536754388146400,8.299146484375,0.11153504997491837,-0.09999743849039078,-0.2178332656621933
1772536754398195500,8.309195556640624,0.11856872588396072,-0.09926586598157883,-0.17710740864276886
1772536754408244500,8.319244384765625,0.12567110359668732,-0.10881037265062332,-0.13407258689403534
1772536754418292500,8.32929248046875,0.1310000866651535,-0.10217616707086563,-0.08988781273365021
1772536754428341500,8.339341552734375,0.12360556423664093,-0.12469399720430374,-0.056282445788383484
1772536754438390500,8.349390625,0.11253347247838974,-0.18905460834503174,-0.03982970491051674
1772536754448438500,8.3594384765625,0.09264631569385529,-0.24196496605873108,-0.022110095247626305
1772536754458488000,8.369488037109376,0.06274114549160004,-0.27013641595840454,-0.0006215817993506789
1772536754468536800,8.379536865234375,0.0291214007884264,-0.2756824493408203,0.020556673407554626
1772536754478584800,8.389584716796875,-0.002971555106341839,-0.2549404203891754,0.04258714243769646
1772536754488633900,8.3996337890625,-0.04001053422689438,-0.21098600327968597,0.055206529796123505
1772536754498683000,8.409682861328125,-0.07262573391199112,-0.1590125560760498,0.05914321541786194
1772536754508732000,8.41973193359375,-0.0896313488483429,-0.0954682007431984,0.06149505078792572
1772536754518780000,8.42977978515625,-0.10586091876029968,-0.024814004078507423,0.06637316197156906
1772536754528829000,8.439828857421874,-0.1195325255393982,0.025229988619685173,0.06805415451526642
1772536754538878000,8.4498779296875,-0.13094043731689453,0.033617615699768066,0.06133446469902992
1772536754548926000,8.459926025390626,-0.14799052476882935,0.031149130314588547,0.059058260172605515
1772536754558975000,8.46997509765625,-0.17453451454639435,0.01233656145632267,0.04857925325632095
1772536754569023700,8.480023681640626,-0.1967753767967224,-0.03590952977538109,0.04043823480606079
1772536754579072000,8.490072021484375,-0.21643324196338654,-0.07656428217887878,0.04478504881262779
1772536754589120800,8.500120849609376,-0.2307296097278595,-0.10386993736028671,0.07324039191007614
1772536754599170000,8.510170166015625,-0.22912612557411194,-0.10169573128223419,0.11263813078403473
1772536754609217800,8.5202177734375,-0.21095244586467743,-0.06782831251621246,0.16594183444976807
1772536754619267000,8.53026708984375,-0.17507460713386536,-0.002948119305074215,0.2328721284866333
1772536754629315800,8.54031591796875,-0.12646126747131348,0.0556640625,0.29652488231658936
1772536754639364900,8.55036474609375,-0.0753014087677002,0.0626884177327156,0.3586878478527069
1772536754649412900,8.560412841796875,-0.04481540992856026,0.034820299595594406,0.4205496311187744
1772536754659462000,8.5704619140625,-0.030590400099754333,-0.03236566111445427,0.4835008978843689
1772536754669511000,8.580510986328125,-0.03843873366713524,-0.1120825931429863,0.5419338345527649
1772536754679559000,8.590558837890624,-0.046539805829524994,-0.16416071355342865,0.610367476940155
1772536754689608000,8.60060791015625,-0.05748086795210838,-0.16016250848770142,0.6784266829490662
1772536754699657000,8.610656982421874,-0.05925719812512398,-0.13538791239261627,0.7219230532646179
1772536754709705000,8.620705078125,-0.0798889696598053,-0.13209332525730133,0.6931614279747009
1772536754719754000,8.63075390625,-0.10045390576124191,-0.15247981250286102,0.6021875739097595
1772536754729802800,8.640802734375,-0.13138732314109802,-0.1832806020975113,0.4539414048194885
1772536754739851000,8.65085107421875,-0.19453752040863037,-0.23132562637329102,0.24601775407791138
1772536754749899800,8.660899658203125,-0.30010655522346497,-0.2905159890651703,-0.0057218014262616634
1772536754759949000,8.670948974609376,-0.4370684027671814,-0.36207592487335205,-0.26055675745010376
1772536754769997800,8.680997802734375,-0.559258222579956,-0.41153162717819214,-0.4849714934825897
1772536754780046000,8.691046142578125,-0.6397778391838074,-0.3712821900844574,-0.6399911642074585
1772536754790094800,8.7010947265625,-0.6630344390869141,-0.2215329259634018,-0.7056993246078491
1772536754800144000,8.711143798828125,-0.6419262290000916,-0.009661149233579636,-0.6931542754173279
1772536754810192000,8.72119189453125,-0.5790271162986755,0.15650518238544464,-0.6057013869285583
1772536754820241000,8.731240966796875,-0.49205416440963745,0.2694077789783478,-0.44376519322395325
1772536754830290000,8.7412900390625,-0.4008038640022278,0.30025729537010193,-0.2396956831216812
1772536754840338000,8.751337890625,-0.31670284271240234,0.23654063045978546,-0.03953835368156433
1772536754850387000,8.761386962890626,-0.260127991437912,0.09583491832017899,0.11225170642137527
1772536754860436000,8.77143603515625,-0.2270701676607132,-0.08929978311061859,0.19879990816116333
1772536754870484000,8.78148388671875,-0.2197137176990509,-0.2357211858034134,0.24076440930366516
1772536754880533000,8.791532958984375,-0.22934876382350922,-0.31716784834861755,0.2520924210548401
1772536754890581800,8.801581787109376,-0.23208729922771454,-0.33062052726745605,0.22061440348625183
1772536754900631000,8.811631103515625,-0.23838967084884644,-0.33505070209503174,0.15173973143100739
1772536754910678800,8.8216787109375,-0.2594315707683563,-0.3576715886592865,0.05783267319202423
1772536754920728000,8.83172802734375,-0.288217157125473,-0.37005528807640076,-0.04254532977938652
1772536754930776800,8.84177685546875,-0.3201729357242584,-0.3371729552745819,-0.13626889884471893
1772536754940825000,8.8518251953125,-0.35540205240249634,-0.24269813299179077,-0.20101593434810638
1772536754950873900,8.861873779296875,-0.385540246963501,-0.08175238966941833,-0.2510252892971039
1772536754960923000,8.8719228515625,-0.39466768503189087,0.08314868062734604,-0.28863444924354553
1772536754970971000,8.881970947265625,-0.38655808568000793,0.21297964453697205,-0.3086443841457367
1772536754981020000,8.89202001953125,-0.36492815613746643,0.30836236476898193,-0.32158201932907104
1772536754991069000,8.90206884765625,-0.3332749009132385,0.34262552857398987,-0.32356715202331543
1772536755001117000,8.912116943359376,-0.30526003241539,0.3076086938381195,-0.3029015362262726
1772536755011166000,8.922166015625,-0.27870699763298035,0.2331637442111969,-0.25488927960395813
1772536755021215000,8.932215087890626,-0.2598150670528412,0.14633271098136902,-0.1828467845916748
1772536755031263000,8.942262939453125,-0.2407446950674057,0.08016860485076904,-0.09815799444913864
1772536755041312000,8.95231201171875,-0.24040275812149048,0.02167014218866825,-0.025834260508418083
1772536755051360800,8.96236083984375,-0.2352716326713562,-0.03775270655751228,0.023686686530709267
1772536755061410000,8.97241015625,-0.22052837908267975,-0.06805095821619034,0.05932324379682541
1772536755071457800,8.982457763671874,-0.20121221244335175,-0.06988507509231567,0.08493086695671082
1772536755081507000,8.992507080078125,-0.17188841104507446,-0.05611946061253548,0.10038545727729797
1772536755091555800,9.002555908203124,-0.1476200819015503,-0.04571555554866791,0.09915055334568024
1772536755101604000,9.01260400390625,-0.13690698146820068,-0.04819043353199959,0.07509075850248337
1772536755111652900,9.02265283203125,-0.13212980329990387,-0.0626109167933464,0.037820350378751755
1772536755121702000,9.032701904296875,-0.1371956765651703,-0.06155950203537941,-0.002913498319685459
1772536755131750000,9.04275,-0.14591459929943085,-0.05150660127401352,-0.04326384887099266
1772536755141799000,9.052798828125,-0.1582801789045334,-0.0223817378282547,-0.07741490006446838
1772536755151848000,9.062847900390626,-0.15265105664730072,0.011926434002816677,-0.10278816521167755
1772536755161896000,9.07289599609375,-0.12521544098854065,0.06069743633270264,-0.09910474717617035
1772536755171945000,9.082945068359376,-0.08574499934911728,0.1220042034983635,-0.06931249797344208
1772536755181994000,9.092993896484375,-0.037690918892621994,0.17287591099739075,-0.016401875764131546
1772536755192042800,9.103042724609375,0.011802330613136292,0.21642924845218658,0.04388436675071716
1772536755202091000,9.113091064453124,0.05512290820479393,0.2382940649986267,0.0955028235912323
1772536755212139800,9.123139892578125,0.08373324573040009,0.24033750593662262,0.1335223764181137
1772536755222189000,9.13318896484375,0.117520771920681,0.22780252993106842,0.14924274384975433
1772536755232236800,9.14323681640625,0.14679503440856934,0.20156054198741913,0.16125306487083435
1772536755242286000,9.1532861328125,0.1728476732969284,0.16233964264392853,0.1720023900270462
1772536755252334800,9.1633349609375,0.20872551202774048,0.1289350837469101,0.2017083466053009
1772536755262383000,9.173383056640626,0.2441604733467102,0.11416811496019363,0.23454326391220093
1772536755272431900,9.183431884765625,0.2738073170185089,0.09295550733804703,0.2522852420806885
1772536755282481000,9.19348095703125,0.2926875352859497,0.06387405097484589,0.2580887973308563
1772536755292529000,9.20352880859375,0.29953983426094055,0.03557024523615837,0.24778157472610474
1772536755302578000,9.213577880859376,0.2999260127544403,0.0211271233856678,0.22225171327590942
1772536755312627000,9.223626953125,0.298122763633728,0.03417767584323883,0.189726784825325
1772536755322675000,9.233675048828125,0.29927513003349304,0.06920436769723892,0.16744652390480042
1772536755332724000,9.243723876953124,0.3128916025161743,0.10378418862819672,0.15001799166202545
1772536755342773000,9.25377294921875,0.33628666400909424,0.14315849542617798,0.13678927719593048
1772536755352821800,9.26382177734375,0.37126436829566956,0.1843903511762619,0.13849769532680511
1772536755362870000,9.2738701171875,0.41714078187942505,0.2148425281047821,0.14655615389347076
1772536755372918800,9.283918701171874,0.4550181031227112,0.17469698190689087,0.14097602665424347
1772536755382968000,9.293968017578125,0.46001338958740234,0.060085706412792206,0.11410339921712875
1772536755393015800,9.304015869140626,0.43697118759155273,-0.09140101820230484,0.0829382911324501
1772536755403065000,9.314065185546875,0.39029183983802795,-0.22915728390216827,0.045819152146577835
1772536755413113900,9.32411376953125,0.3184157907962799,-0.3370366096496582,-0.0024170849937945604
1772536755423161900,9.334161865234375,0.24229945242404938,-0.38582679629325867,-0.04386013373732567
1772536755433211000,9.3442109375,0.18969616293907166,-0.3278913199901581,-0.06823151558637619
1772536755443260000,9.354260009765625,0.17554731667041779,-0.1539192646741867,-0.05946226045489311
1772536755453307600,9.3643076171875,0.19535565376281738,0.08657989650964737,-0.03287113085389137
1772536755463356700,9.374356689453125,0.2394448071718216,0.3355090320110321,-0.008226238191127777
1772536755473405700,9.38440576171875,0.2991960346698761,0.5144556164741516,-0.006645119283348322
1772536755483454700,9.394454833984375,0.34653183817863464,0.5551785230636597,-0.011061439290642738
1772536755493502700,9.404502685546875,0.37456801533699036,0.48300713300704956,-0.006059490609914064
1772536755503551700,9.4145517578125,0.3780170679092407,0.35316258668899536,0.01840856857597828
1772536755513600500,9.4246005859375,0.37414005398750305,0.2385963350534439,0.07135806977748871
1772536755523648800,9.434648681640626,0.35692375898361206,0.14688850939273834,0.12773585319519043
1772536755533697500,9.444697509765625,0.3326682448387146,0.048716139048337936,0.16829633712768555
1772536755543746800,9.454746826171874,0.31018155813217163,-0.05419585853815079,0.17368178069591522
1772536755553794600,9.464794677734375,0.29818108677864075,-0.11109349876642227,0.13671444356441498
1772536755563843800,9.47484375,0.3050089180469513,-0.09956520795822144,0.08277770131826401
1772536755573892600,9.484892578125,0.32640954852104187,-0.03818946331739426,0.013630857691168785
1772536755583940900,9.49494091796875,0.3467414379119873,0.03501124680042267,-0.05892643332481384
1772536755593989600,9.50498974609375,0.35744255781173706,0.08445096760988235,-0.11238805949687958
1772536755604038700,9.51503857421875,0.35260653495788574,0.09633105993270874,-0.13278627395629883
1772536755614086700,9.525086669921874,0.34228622913360596,0.07686281949281693,-0.11751784384250641
1772536755624135700,9.5351357421875,0.32465532422065735,0.02895521931350231,-0.07914568483829498
1772536755634184700,9.545184814453124,0.30201098322868347,-0.030477747321128845,-0.028193820267915726
1772536755644233700,9.555233642578125,0.2704674303531647,-0.08697804063558578,0.02028556354343891
1772536755654281700,9.56528173828125,0.24095483124256134,-0.12625567615032196,0.06163380295038223
1772536755664330800,9.575330810546875,0.2248019576072693,-0.0973326787352562,0.08116941899061203
1772536755674379500,9.585379638671874,0.21902023255825043,-0.012690761126577854,0.06952954083681107
1772536755684427800,9.595427734375,0.22019149363040924,0.10843992233276367,0.02256895788013935
1772536755694476500,9.6054765625,0.23220661282539368,0.2580832242965698,-0.03358219563961029
1772536755704525800,9.61552587890625,0.25403574109077454,0.397125244140625,-0.08228369057178497
1772536755714573600,9.625573486328125,0.26698243618011475,0.47354891896247864,-0.1129143014550209
1772536755724622800,9.635622802734375,0.2812953293323517,0.48834624886512756,-0.11560915410518646
1772536755734671600,9.645671630859376,0.29495760798454285,0.4442128837108612,-0.09266575425863266
1772536755744719600,9.6557197265625,0.2952854335308075,0.3516749441623688,-0.06387431919574738
1772536755754768600,9.6657685546875,0.28260481357574463,0.24818050861358643,-0.03278431296348572
1772536755764817700,9.675817626953124,0.252616286277771,0.16862043738365173,-0.010625213384628296
1772536755774865700,9.68586572265625,0.2071976661682129,0.10029730945825577,-0.00711809704080224
1772536755784914700,9.695914794921874,0.15186303853988647,0.016268718987703323,-0.02846759371459484
1772536755794963700,9.705963623046875,0.10352319478988647,-0.08308183401823044,-0.0847894549369812
1772536755805011700,9.71601171875,0.07441111654043198,-0.14690662920475006,-0.15390807390213013
1772536755815060700,9.726060791015625,0.0548214353621006,-0.14482030272483826,-0.19914692640304565
1772536755825109800,9.73610986328125,0.03616652637720108,-0.10016415268182755,-0.22153505682945251
1772536755835158500,9.746158447265625,0.020865866914391518,-0.03598036989569664,-0.2265910655260086
1772536755845206800,9.756206787109376,0.014764298684895039,0.0010285128373652697,-0.20867490768432617
1772536755855255600,9.766255615234375,0.01853746548295021,0.006090116687119007,-0.17337578535079956
1772536755865304800,9.776304931640626,0.048160336911678314,0.00993279181420803,-0.12246306240558624
1772536755875352600,9.7863525390625,0.06319894641637802,0.031616780906915665,-0.0226144976913929
1772536755885401600,9.796401611328125,0.0520341731607914,-0.04676031321287155,0.06581682711839676
1772536755895450600,9.80645068359375,0.021395569667220116,-0.1841495931148529,0.1326909363269806
1772536755905498600,9.81649853515625,-0.03399498388171196,-0.30922815203666687,0.16345763206481934
1772536755915547600,9.826547607421874,-0.07389126718044281,-0.30707764625549316,0.18803328275680542
1772536755925596700,9.8365966796875,-0.11872372031211853,-0.2515033483505249,0.19537216424942017
1772536755935644700,9.846644775390626,-0.1644800305366516,-0.21077081561088562,0.18230828642845154
1772536755945693700,9.856693603515625,-0.17080582678318024,-0.1301814317703247,0.18182812631130219
1772536755955742700,9.86674267578125,-0.15532806515693665,-0.03707679361104965,0.18719199299812317
