time,seconds_elapsed,z,y,x
1772461200908619500,0.07661962890625,-1.013031005859375,-0.0130157470703125,0.0307464599609375
1772461200918667500,0.08666748046875,-1.006256103515625,-0.014923095703125,0.0311431884765625
1772461200928716500,0.096716552734375,-0.99420166015625,-0.014617919921875,0.0295257568359375
1772461200938764500,0.1067646484375,-0.996185302734375,-0.011993408203125,0.0278472900390625
1772461200948812500,0.1168125,-1.0066070556640625,-0.009124755859375,0.0286712646484375
1772461200958861600,0.126861572265625,-1.0068511962890625,-0.0098419189453125,0.0281829833984375
1772461200968909600,0.13690966796875,-1.0009613037109375,-0.0102996826171875,0.0255126953125
1772461200978957300,0.146957275390625,-0.998443603515625,-0.0126953125,0.027435302734375
1772461200989006600,0.157006591796875,-1.002838134765625,-0.012176513671875,0.030731201171875
1772461200999054300,0.167054443359375,-1.0067138671875,-0.011505126953125,0.03179931640625
1772461201009102600,0.1771025390625,-1.0032196044921875,-0.01239013671875,0.02838134765625
1772461201019151400,0.1871513671875,-0.999176025390625,-0.011016845703125,0.0279998779296875
1772461201029199400,0.197199462890625,-1.0009307861328125,-0.009521484375,0.02764892578125
1772461201039247600,0.20724755859375,-1.00579833984375,-0.010711669921875,0.02716064453125
1772461201049296400,0.21729638671875,-1.0045318603515625,-0.01080322265625,0.0276031494140625
1772461201059344600,0.2273447265625,-1.001556396484375,-0.011322021484375,0.028656005859375
1772461201069393400,0.237393310546875,-0.9997711181640625,-0.01129150390625,0.0299072265625
1772461201079441700,0.247441650390625,-1.004425048828125,-0.011383056640625,0.029510498046875
1772461201089489400,0.257489501953125,-1.006134033203125,-0.0111083984375,0.027374267578125
1772461201099538700,0.26753857421875,-1.002166748046875,-0.0114288330078125,0.0277862548828125
1772461201109586400,0.27758642578125,-0.9998779296875,-0.010833740234375,0.02825927734375
1772461201119634400,0.287634521484375,-1.0015869140625,-0.0110321044921875,0.029388427734375
1772461201129683500,0.297683349609375,-1.0053253173828125,-0.011810302734375,0.0285491943359375
1772461201139731500,0.3077314453125,-1.0041046142578125,-0.0127716064453125,0.02850341796875
1772461201149779500,0.317779541015625,-1.0017242431640625,-0.012298583984375,0.02911376953125
1772461201159828500,0.327828369140625,-1.00146484375,-0.0105743408203125,0.028839111328125
1772461201169875500,0.33787548828125,-1.001678466796875,-0.01043701171875,0.027923583984375
1772461201179923200,0.347923095703125,-1.0042266845703125,-0.010101318359375,0.0264129638671875
1772461201189972500,0.357972412109375,-1.0016021728515625,-0.0106048583984375,0.028533935546875
1772461201200020200,0.368020263671875,-1.002593994140625,-0.011688232421875,0.0298309326171875
1772461201210068500,0.378068359375,-1.0033111572265625,-0.012451171875,0.029022216796875
1772461201220117200,0.3881171875,-1.0026092529296875,-0.01397705078125,0.028472900390625
1772461201230165200,0.398165283203125,-1.0026702880859375,-0.01165771484375,0.028594970703125
1772461201240214300,0.40821435546875,-1.0037689208984375,-0.010040283203125,0.0288238525390625
1772461201250262300,0.41826220703125,-1.0013885498046875,-0.0104827880859375,0.027496337890625
1772461201260310500,0.428310546875,-1.00189208984375,-0.011474609375,0.02728271484375
1772461201270359300,0.438359375,-1.0044708251953125,-0.010589599609375,0.028839111328125
1772461201280407600,0.448407470703125,-1.003631591796875,-0.01202392578125,0.028961181640625
1772461201290455300,0.458455322265625,-1.002777099609375,-0.0117950439453125,0.0288543701171875
1772461201300504300,0.46850439453125,-1.0018157958984375,-0.01214599609375,0.0290374755859375
1772461201310552300,0.47855224609375,-1.0023040771484375,-0.0122528076171875,0.0293731689453125
1772461201320600300,0.488600341796875,-1.004302978515625,-0.011260986328125,0.029205322265625
1772461201330649300,0.4986494140625,-1.002716064453125,-0.011749267578125,0.0291900634765625
1772461201340697300,0.508697265625,-1.00079345703125,-0.011627197265625,0.027923583984375
1772461201350745300,0.518745361328125,-1.00341796875,-0.010101318359375,0.027862548828125
1772461201360794400,0.52879443359375,-1.0040283203125,-0.010528564453125,0.027862548828125
1772461201370842400,0.53884228515625,-1.00360107421875,-0.0108795166015625,0.02838134765625
1772461201380891400,0.548891357421875,-1.0018768310546875,-0.0108489990234375,0.028411865234375
1772461201390939100,0.558939208984375,-1.002197265625,-0.010894775390625,0.028533935546875
1772461201400987400,0.5689873046875,-1.003448486328125,-0.01165771484375,0.0287322998046875
1772461201411036200,0.5790361328125,-1.0018310546875,-0.0126953125,0.02899169921875
1772461201421084400,0.58908447265625,-1.001617431640625,-0.0129241943359375,0.02923583984375
1772461201431132400,0.59913232421875,-1.0015869140625,-0.011749267578125,0.028045654296875
1772461201441181400,0.609181396484375,-1.0027313232421875,-0.010986328125,0.0286102294921875
1772461201451229400,0.6192294921875,-1.003662109375,-0.0099945068359375,0.026336669921875
1772461201461277200,0.629277099609375,-1.0030059814453125,-0.0099029541015625,0.0268402099609375
1772461201471326500,0.639326416015625,-1.0017242431640625,-0.011199951171875,0.027679443359375
1772461201481374200,0.649374267578125,-1.002197265625,-0.010284423828125,0.0284881591796875
1772461201491422500,0.65942236328125,-1.0027923583984375,-0.011627197265625,0.0288238525390625
1772461201501471200,0.66947119140625,-1.0019378662109375,-0.0128936767578125,0.0291595458984375
1772461201511519500,0.67951953125,-1.001983642578125,-0.01318359375,0.0285186767578125
1772461201521568300,0.689568359375,-1.0016326904296875,-0.0122833251953125,0.0279998779296875
1772461201531616500,0.699616455078125,-1.0036468505859375,-0.0110626220703125,0.029388427734375
1772461201541664300,0.709664306640625,-1.0018310546875,-0.0118255615234375,0.0284271240234375
1772461201551713500,0.719713623046875,-1.0007781982421875,-0.0112762451171875,0.02783203125
1772461201561761300,0.72976123046875,-0.99554443359375,-0.0108489990234375,0.0276641845703125
1772461201571809300,0.739809326171875,-0.97991943359375,-0.010894775390625,0.0275421142578125
1772461201581858300,0.7498583984375,-0.986053466796875,-0.0113372802734375,0.0264434814453125
1772461201591906300,0.75990625,-1.0496826171875,-0.012481689453125,0.0287017822265625
1772461201601954600,0.76995458984375,-1.051025390625,-0.012359619140625,0.0308990478515625
1772461201612003300,0.78000341796875,-0.9754486083984375,-0.0128173828125,0.028564453125
1772461201622051300,0.79005126953125,-0.951263427734375,-0.0127716064453125,0.027130126953125
1772461201632099300,0.800099365234375,-1.001953125,-0.0115509033203125,0.0293426513671875
1772461201642148400,0.8101484375,-1.0309295654296875,-0.0102996826171875,0.0306549072265625
1772461201652196400,0.8201962890625,-1.0088958740234375,-0.0098724365234375,0.0291290283203125
1772461201662245400,0.830245361328125,-0.9864654541015625,-0.0120697021484375,0.027801513671875
1772461201672293400,0.84029345703125,-0.9942474365234375,-0.0134735107421875,0.0272979736328125
1772461201682341400,0.85034130859375,-1.00958251953125,-0.012054443359375,0.029449462890625
1772461201692390400,0.860390380859375,-1.0102996826171875,-0.0110626220703125,0.03216552734375
1772461201702438400,0.8704384765625,-1.001434326171875,-0.0102691650390625,0.0309295654296875
1772461201712486100,0.880486083984375,-0.9958648681640625,-0.010955810546875,0.02813720703125
1772461201722535400,0.890535400390625,-1.0026092529296875,-0.012451171875,0.0261077880859375
1772461201732583200,0.900583251953125,-1.0075836181640625,-0.0124053955078125,0.0271148681640625
1772461201742631400,0.91063134765625,-1.0055694580078125,-0.011444091796875,0.0290679931640625
1772461201752680200,0.92068017578125,-1.002716064453125,-0.0113677978515625,0.0290985107421875
1772461201762728400,0.930728515625,-0.9999847412109375,-0.0114898681640625,0.0282745361328125
1772461201772777200,0.940777099609375,-1.0004119873046875,-0.0111083984375,0.02923583984375
1772461201782825200,0.9508251953125,-1.003662109375,-0.01068115234375,0.029144287109375
1772461201792873500,0.96087353515625,-1.0041656494140625,-0.0114288330078125,0.0281829833984375
1772461201802922200,0.970922119140625,-1.002716064453125,-0.0133819580078125,0.027862548828125
1772461201812970500,0.980970458984375,-1.0013427734375,-0.012847900390625,0.0271453857421875
1772461201823018200,0.991018310546875,-1.002105712890625,-0.01153564453125,0.0292205810546875
1772461201833067500,1.001067626953125,-1.0021209716796875,-0.010772705078125,0.0293731689453125
1772461201843115300,1.011115234375,-1.0001220703125,-0.012359619140625,0.0286407470703125
1772461201853163300,1.021163330078125,-1.0009002685546875,-0.011993408203125,0.0280303955078125
1772461201863212300,1.03121240234375,-1.004241943359375,-0.0117950439453125,0.0280609130859375
1772461201873260300,1.04126025390625,-1.0039825439453125,-0.0120849609375,0.028717041015625
1772461201883308300,1.051308349609375,-1.0019989013671875,-0.0126953125,0.02874755859375
1772461201893357300,1.061357421875,-1.0035858154296875,-0.011871337890625,0.0279388427734375
1772461201903405300,1.0714052734375,-1.0018157958984375,-0.0104522705078125,0.0280609130859375
1772461201913454300,1.081454345703125,-1.0019683837890625,-0.0110321044921875,0.0293731689453125
1772461201923502300,1.09150244140625,-1.0037689208984375,-0.0117340087890625,0.0295867919921875
1772461201933550300,1.10155029296875,-1.005462646484375,-0.013153076171875,0.0286865234375
1772461201943599400,1.111599365234375,-1.0035552978515625,-0.013671875,0.0289459228515625
1772461201953647400,1.1216474609375,-1.0023651123046875,-0.01324462890625,0.03033447265625
1772461201963695400,1.1316953125,-1.003692626953125,-0.0115966796875,0.0296783447265625
1772461201973744400,1.141744384765625,-1.003143310546875,-0.01153564453125,0.0297698974609375
1772461201983792400,1.15179248046875,-1.0019683837890625,-0.011688232421875,0.0294952392578125
1772461201993841400,1.16184130859375,-1.0009613037109375,-0.0113677978515625,0.0284881591796875
1772461202003889400,1.171889404296875,-1.00433349609375,-0.0115814208984375,0.02899169921875
1772461202013937200,1.181937255859375,-1.0033111572265625,-0.012359619140625,0.0297088623046875
1772461202023986400,1.191986328125,-1.0024871826171875,-0.0122222900390625,0.0285186767578125
1772461202034034200,1.2020341796875,-1.00244140625,-0.01171875,0.0294342041015625
1772461202044082400,1.21208251953125,-1.0028533935546875,-0.0120391845703125,0.0291748046875
1772461202054131200,1.222131103515625,-1.0027618408203125,-0.0125274658203125,0.027984619140625
1772461202064179500,1.232179443359375,-1.0012359619140625,-0.0124664306640625,0.0279541015625
1772461202074227500,1.2422275390625,-1.001007080078125,-0.0119171142578125,0.0284271240234375
1772461202084276500,1.2522763671875,-1.00250244140625,-0.01190185546875,0.0279693603515625
1772461202094324200,1.26232421875,-1.004180908203125,-0.0111083984375,0.028350830078125
1772461202104373500,1.27237353515625,-1.005279541015625,-0.011688232421875,0.02850341796875
1772461202114421200,1.282421142578125,-1.0021209716796875,-0.0120697021484375,0.02874755859375
1772461202124469200,1.29246923828125,-0.999114990234375,-0.012359619140625,0.0291290283203125
1772461202134518300,1.302518310546875,-1.0010528564453125,-0.0128021240234375,0.0290069580078125
1772461202144566300,1.312566162109375,-1.0055084228515625,-0.012451171875,0.029327392578125
1772461202154614500,1.322614501953125,-1.0057373046875,-0.012908935546875,0.0286102294921875
1772461202164663600,1.33266357421875,-1.0017852783203125,-0.01287841796875,0.028533935546875
1772461202174711800,1.3427119140625,-0.997161865234375,-0.012542724609375,0.0289306640625
1772461202184760600,1.352760498046875,-1.0003662109375,-0.0128936767578125,0.0272369384765625
1772461202194808600,1.36280859375,-1.006683349609375,-0.012725830078125,0.0268707275390625
1772461202204856600,1.372856689453125,-1.0074462890625,-0.011566162109375,0.0297393798828125
1772461202214905600,1.382905517578125,-1.002899169921875,-0.0108184814453125,0.0300750732421875
1772461202224953600,1.39295361328125,-1.0003662109375,-0.0122528076171875,0.02984619140625
1772461202235001600,1.403001708984375,-1.003387451171875,-0.012664794921875,0.02972412109375
1772461202245050600,1.413050537109375,-1.004119873046875,-0.0126495361328125,0.0299224853515625
1772461202255098600,1.4230986328125,-1.0037689208984375,-0.012451171875,0.029296875
1772461202265147600,1.433147705078125,-1.001373291015625,-0.0124359130859375,0.028594970703125
1772461202275195600,1.443195556640625,-1.0023345947265625,-0.0123291015625,0.028350830078125
1772461202285243400,1.453243408203125,-1.0036773681640625,-0.01220703125,0.0282135009765625
1772461202295292700,1.463292724609375,-1.0048065185546875,-0.01226806640625,0.0288543701171875
1772461202305340400,1.47334033203125,-1.0031280517578125,-0.012908935546875,0.0296173095703125
1772461202315388700,1.483388671875,-1.0006256103515625,-0.01251220703125,0.0292205810546875
1772461202325437400,1.4934375,-0.999237060546875,-0.0123138427734375,0.02886962890625
1772461202335485700,1.503485595703125,-1.0036773681640625,-0.0113372802734375,0.03009033203125
1772461202345534500,1.513534423828125,-1.00604248046875,-0.0117950439453125,0.0288543701171875
1772461202355582700,1.523582763671875,-1.0036468505859375,-0.011627197265625,0.028656005859375
1772461202365630700,1.533630615234375,-1.0013275146484375,-0.0125579833984375,0.0280303955078125
1772461202375679500,1.543679443359375,-1.00054931640625,-0.0125885009765625,0.0292510986328125
1772461202385727700,1.553727783203125,-1.0023040771484375,-0.012481689453125,0.029083251953125
1772461202395775500,1.563775390625,-1.0029754638671875,-0.0132293701171875,0.0284576416015625
1772461202405824800,1.57382470703125,-1.0012664794921875,-0.012451171875,0.028106689453125
1772461202415872500,1.58387255859375,-1.0021514892578125,-0.012054443359375,0.0276336669921875
1772461202425920500,1.59392041015625,-1.002685546875,-0.0119781494140625,0.0281982421875
1772461202435969500,1.603969482421875,-1.0045623779296875,-0.01190185546875,0.0294189453125
1772461202446017500,1.614017578125,-1.0035247802734375,-0.0130157470703125,0.029083251953125
1772461202456066600,1.624066650390625,-1.0026092529296875,-0.012847900390625,0.0293426513671875
1772461202466114600,1.634114501953125,-1.0023040771484375,-0.014007568359375,0.02960205078125
1772461202476162600,1.64416259765625,-1.0029296875,-0.0130462646484375,0.0287322998046875
1772461202486211600,1.654211669921875,-1.0023956298828125,-0.012115478515625,0.0286712646484375
1772461202496259600,1.664259521484375,-1.0030517578125,-0.011505126953125,0.02874755859375
1772461202506308600,1.67430859375,-1.00225830078125,-0.0109710693359375,0.0292510986328125
1772461202516356600,1.684356689453125,-1.001983642578125,-0.01177978515625,0.0287628173828125
1772461202526404600,1.694404541015625,-1.002655029296875,-0.0120391845703125,0.02783203125
1772461202536453400,1.704453369140625,-1.002197265625,-0.0128021240234375,0.02825927734375
1772461202546501600,1.714501708984375,-1.002532958984375,-0.01324462890625,0.0285797119140625
1772461202556549600,1.724549560546875,-1.0021514892578125,-0.01251220703125,0.0292816162109375
1772461202566598700,1.7345986328125,-1.003631591796875,-0.012664794921875,0.029937744140625
1772461202576646700,1.744646728515625,-1.0026702880859375,-0.01287841796875,0.0294036865234375
1772461202586695700,1.75469580078125,-1.003662109375,-0.0123138427734375,0.028961181640625
1772461202596743700,1.76474365234375,-1.003265380859375,-0.0125885009765625,0.0290985107421875
1772461202606791400,1.77479150390625,-1.0012664794921875,-0.0124664306640625,0.028533935546875
1772461202616840700,1.7848408203125,-1.0020904541015625,-0.0115509033203125,0.0286865234375
1772461202626888400,1.794888427734375,-1.0037994384765625,-0.011138916015625,0.0288543701171875
1772461202636936700,1.804936767578125,-1.0050811767578125,-0.01190185546875,0.0289154052734375
1772461202646985500,1.8149853515625,-1.0032196044921875,-0.012420654296875,0.0284576416015625
1772461202657033700,1.82503369140625,-1.0018768310546875,-0.013824462890625,0.0283660888671875
1772461202667082500,1.83508251953125,-1.0015869140625,-0.0133209228515625,0.0285797119140625
1772461202677130800,1.845130859375,-1.0026092529296875,-0.0125579833984375,0.0290985107421875
1772461202687178500,1.855178466796875,-1.0028076171875,-0.0121307373046875,0.029327392578125
1772461202697227800,1.865227783203125,-1.002166748046875,-0.01226806640625,0.0288543701171875
1772461202707275500,1.875275634765625,-1.001220703125,-0.0118255615234375,0.0277557373046875
1772461202717324500,1.885324462890625,-1.0015716552734375,-0.011932373046875,0.0281524658203125
1772461202727372500,1.89537255859375,-1.0032501220703125,-0.01171875,0.0283050537109375
1772461202737420500,1.905420654296875,-1.00286865234375,-0.011444091796875,0.0285186767578125
1772461202747469600,1.915469482421875,-1.0020904541015625,-0.0121307373046875,0.0291900634765625
1772461202757517600,1.925517578125,-1.00262451171875,-0.0116119384765625,0.0292205810546875
1772461202767565600,1.935565673828125,-1.0012054443359375,-0.012481689453125,0.0285797119140625
1772461202777614600,1.945614501953125,-1.002685546875,-0.012786865234375,0.0283966064453125
1772461202787662600,1.95566259765625,-1.00335693359375,-0.0128326416015625,0.0273895263671875
1772461202797711600,1.965711669921875,-1.00262451171875,-0.0124664306640625,0.027587890625
1772461202807759600,1.975759521484375,-1.000732421875,-0.012237548828125,0.0293731689453125
1772461202817807600,1.9858076171875,-1.000885009765625,-0.0116424560546875,0.0292816162109375
1772461202827856600,1.995856689453125,-1.00213623046875,-0.0118408203125,0.0284271240234375
1772461202837904600,2.005904541015625,-1.003509521484375,-0.0121917724609375,0.028289794921875
1772461202847952600,2.01595263671875,-1.003082275390625,-0.0124359130859375,0.0277557373046875
1772461202858001700,2.026001708984375,-1.0018310546875,-0.0123443603515625,0.02923583984375
1772461202868049700,2.036049560546875,-1.0017547607421875,-0.012359619140625,0.0296173095703125
1772461202878098400,2.046098388671875,-1.0018768310546875,-0.0122833251953125,0.0300750732421875
1772461202888146700,2.056146728515625,-1.002777099609375,-0.0125885009765625,0.0289764404296875
1772461202898194400,2.0661943359375,-1.0023651123046875,-0.012420654296875,0.0284576416015625
1772461202908243700,2.07624365234375,-1.0029296875,-0.012481689453125,0.0280914306640625
1772461202918291500,2.08629150390625,-1.00469970703125,-0.0127716064453125,0.028076171875
1772461202928340700,2.0963408203125,-1.003753662109375,-0.0117950439453125,0.029205322265625
1772461202938388500,2.106388427734375,-1.002777099609375,-0.012298583984375,0.0288238525390625
1772461202948436500,2.1164365234375,-1.0015869140625,-0.0119476318359375,0.0277099609375
1772461202958485500,2.126485595703125,-1.0021209716796875,-0.0114288330078125,0.0279693603515625
1772461202968533500,2.136533447265625,-1.0032806396484375,-0.0124359130859375,0.028106689453125
1772461202978582500,2.14658251953125,-1.0039825439453125,-0.0122833251953125,0.0279693603515625
1772461202988630500,2.156630615234375,-1.002288818359375,-0.01287841796875,0.0281829833984375
1772461202998678800,2.1666787109375,-1.0017242431640625,-0.0128021240234375,0.0286865234375
1772461203008727600,2.1767275390625,-1.0030364990234375,-0.012115478515625,0.0297393798828125
1772461203018775800,2.18677587890625,-1.0018463134765625,-0.0125885009765625,0.0286865234375
1772461203028823600,2.196823486328125,-1.0029754638671875,-0.0128631591796875,0.029205322265625
1772461203038872800,2.206872802734375,-1.0026702880859375,-0.0123748779296875,0.02886962890625
1772461203048920600,2.216920654296875,-1.002899169921875,-0.0116729736328125,0.0283050537109375
1772461203058969600,2.226969482421875,-1.0032806396484375,-0.0122833251953125,0.0281219482421875
1772461203069017600,2.237017578125,-1.004119873046875,-0.0113525390625,0.028656005859375
1772461203079065600,2.247065673828125,-1.0029449462890625,-0.011749267578125,0.029327392578125
1772461203089114600,2.257114501953125,-1.001739501953125,-0.0126800537109375,0.029693603515625
1772461203099162600,2.26716259765625,-1.002410888671875,-0.012176513671875,0.0288848876953125
1772461203109211600,2.277211669921875,-1.0034942626953125,-0.012451171875,0.028076171875
1772461203119259600,2.287259765625,-1.00360107421875,-0.0124359130859375,0.028167724609375
1772461203129307400,2.297307373046875,-1.0015869140625,-0.012664794921875,0.028228759765625
1772461203139356700,2.307356689453125,-1.0017852783203125,-0.0123291015625,0.0291748046875
1772461203149404400,2.317404296875,-1.00323486328125,-0.01263427734375,0.02862548828125
1772461203159452700,2.32745263671875,-1.003509521484375,-0.0127716064453125,0.0278778076171875
1772461203169502000,2.337501953125,-1.002197265625,-0.0117340087890625,0.0277252197265625
1772461203179550000,2.347550048828125,-1.0028533935546875,-0.01165771484375,0.0294342041015625
1772461203189599000,2.357598876953125,-1.003143310546875,-0.011993408203125,0.0298309326171875
1772461203199647000,2.36764697265625,-1.003570556640625,-0.012359619140625,0.0294647216796875
1772461203209695000,2.377695068359375,-1.002349853515625,-0.0126190185546875,0.0296783447265625
1772461203219744000,2.387743896484375,-1.0022430419921875,-0.0128631591796875,0.02874755859375
1772461203229792000,2.3977919921875,-1.0018463134765625,-0.0120697021484375,0.0283660888671875
1772461203239841000,2.407841064453125,-1.00286865234375,-0.0122528076171875,0.0290374755859375
1772461203249889000,2.417888916015625,-1.0042572021484375,-0.012786865234375,0.02825927734375
1772461203259937000,2.42793701171875,-1.0029144287109375,-0.011993408203125,0.0289764404296875
1772461203269985800,2.43798583984375,-1.001800537109375,-0.0125274658203125,0.028106689453125
1772461203280033800,2.44803369140625,-1.0029449462890625,-0.0122528076171875,0.02874755859375
1772461203290082800,2.458082763671875,-1.0040435791015625,-0.01190185546875,0.0286865234375
1772461203300130800,2.468130859375,-1.0032501220703125,-0.0126953125,0.02850341796875
1772461203310179000,2.478178955078125,-1.0023193359375,-0.0118255615234375,0.0290985107421875
1772461203320227800,2.488227783203125,-1.00238037109375,-0.012725830078125,0.0289154052734375
1772461203330276000,2.498276123046875,-1.00299072265625,-0.0124053955078125,0.028472900390625
1772461203340324900,2.508324951171875,-1.0020904541015625,-0.012542724609375,0.02862548828125
1772461203350373000,2.518373046875,-1.0032196044921875,-0.0121002197265625,0.0287628173828125
1772461203360420900,2.5284208984375,-1.0032196044921875,-0.0120697021484375,0.0283355712890625
1772461203370470100,2.53847021484375,-1.0020294189453125,-0.0120086669921875,0.02874755859375
1772461203380518000,2.548517822265625,-1.0034027099609375,-0.0123291015625,0.028350830078125
1772461203390567000,2.55856689453125,-1.0020751953125,-0.0119476318359375,0.0287628173828125
1772461203400615000,2.568614990234375,-1.00225830078125,-0.0122528076171875,0.0279693603515625
1772461203410663000,2.578662841796875,-1.003326416015625,-0.0118255615234375,0.027740478515625
1772461203420712000,2.5887119140625,-1.00286865234375,-0.0122222900390625,0.0272369384765625
1772461203430760000,2.598760009765625,-1.0036468505859375,-0.0119476318359375,0.0282440185546875
1772461203440808000,2.608807861328125,-1.0030975341796875,-0.011749267578125,0.0293426513671875
1772461203450857000,2.61885693359375,-1.00244140625,-0.0126495361328125,0.0287017822265625
1772461203460905000,2.628905029296875,-1.00244140625,-0.0126800537109375,0.0284881591796875
1772461203470954000,2.6389541015625,-1.002349853515625,-0.011932373046875,0.0289154052734375
1772461203481001700,2.649001708984375,-1.00286865234375,-0.012237548828125,0.029083251953125
1772461203491050000,2.659050048828125,-1.0029296875,-0.012481689453125,0.0293426513671875
1772461203501098800,2.6690986328125,-1.0018310546875,-0.01287841796875,0.028472900390625
1772461203511147000,2.67914697265625,-1.0022125244140625,-0.012359619140625,0.0278167724609375
1772461203521195800,2.68919580078125,-1.00286865234375,-0.0122833251953125,0.0286865234375
1772461203531244000,2.699244140625,-1.0029754638671875,-0.0121002197265625,0.0281524658203125
1772461203541292000,2.7092919921875,-1.0027923583984375,-0.01190185546875,0.028106689453125
1772461203551340800,2.7193408203125,-1.002197265625,-0.0130462646484375,0.02886962890625
1772461203561389000,2.72938916015625,-1.0023040771484375,-0.012786865234375,0.0296478271484375
1772461203571437800,2.739437744140625,-1.0026397705078125,-0.0129241943359375,0.0293731689453125
1772461203581486000,2.749486083984375,-1.0023040771484375,-0.01318359375,0.0286407470703125
1772461203591533800,2.759533935546875,-1.0025177001953125,-0.0133209228515625,0.0293731689453125
1772461203601583000,2.7695830078125,-1.003204345703125,-0.012451171875,0.0287017822265625
1772461203611630800,2.779630859375,-1.0027008056640625,-0.0124969482421875,0.028411865234375
1772461203621680000,2.78968017578125,-1.003662109375,-0.012542724609375,0.029296875
1772461203631727900,2.799727783203125,-1.0031280517578125,-0.011932373046875,0.0294189453125
1772461203641775900,2.80977587890625,-1.0029754638671875,-0.0118865966796875,0.028961181640625
1772461203651825000,2.819824951171875,-1.00262451171875,-0.012176513671875,0.02874755859375
1772461203661873000,2.829872802734375,-1.0029144287109375,-0.0121612548828125,0.0284271240234375
1772461203671922000,2.839921875,-1.0035247802734375,-0.0121307373046875,0.029022216796875
1772461203681970000,2.849969970703125,-1.00201416015625,-0.0126800537109375,0.0283966064453125
1772461203692018000,2.860017822265625,-1.002838134765625,-0.0124969482421875,0.0285797119140625
1772461203702067000,2.87006689453125,-1.0034942626953125,-0.0130767822265625,0.0287322998046875
1772461203712115000,2.880114990234375,-1.003448486328125,-0.0124664306640625,0.028106689453125
1772461203722164000,2.8901640625,-1.00213623046875,-0.01177978515625,0.029571533203125
1772461203732211700,2.900211669921875,-1.0023193359375,-0.0116424560546875,0.0280609130859375
1772461203742260000,2.910260009765625,-1.0028839111328125,-0.011749267578125,0.0279998779296875
1772461203752308700,2.920308837890625,-1.0045166015625,-0.0122222900390625,0.0286102294921875
1772461203762357000,2.93035693359375,-1.004852294921875,-0.012298583984375,0.02789306640625
1772461203772405800,2.94040576171875,-1.002227783203125,-0.0126800537109375,0.0294952392578125
1772461203782454000,2.9504541015625,-1.0017852783203125,-0.012176513671875,0.0285797119140625
1772461203792502000,2.960501953125,-1.0036468505859375,-0.0126800537109375,0.028564453125
1772461203802551000,2.970551025390625,-1.0032196044921875,-0.01220703125,0.0287628173828125
1772461203812599000,2.98059912109375,-1.00299072265625,-0.0122528076171875,0.0285491943359375
1772461203822648000,2.99064794921875,-1.002532958984375,-0.0122833251953125,0.028289794921875
1772461203832696000,3.000696044921875,-1.00250244140625,-0.0123138427734375,0.029296875
1772461203842743800,3.010743896484375,-1.0024261474609375,-0.012420654296875,0.028289794921875
1772461203852793000,3.02079296875,-1.0017242431640625,-0.0123291015625,0.0283660888671875
1772461203862840800,3.0308408203125,-1.0017852783203125,-0.01165771484375,0.028045654296875
1772461203872890000,3.04089013671875,-1.0029296875,-0.011962890625,0.0279388427734375
1772461203882937900,3.050937744140625,-1.00347900390625,-0.0121002197265625,0.0282135009765625
1772461203892985900,3.06098583984375,-1.0027008056640625,-0.01275634765625,0.0287933349609375
1772461203903035000,3.071034912109375,-1.0017547607421875,-0.0127716064453125,0.0288238525390625
1772461203913083000,3.081082763671875,-1.0025787353515625,-0.01202392578125,0.02880859375
1772461203923132000,3.0911318359375,-1.00262451171875,-0.0113372802734375,0.0290069580078125
1772461203933180000,3.101179931640625,-1.0028228759765625,-0.0114593505859375,0.0282135009765625
1772461203943228000,3.111227783203125,-1.0022430419921875,-0.0121307373046875,0.02825927734375
1772461203953277000,3.12127685546875,-1.0042572021484375,-0.0126190185546875,0.02850341796875
1772461203963325000,3.131324951171875,-1.0024261474609375,-0.01239013671875,0.0296478271484375
1772461203973374000,3.1413740234375,-1.002777099609375,-0.0122222900390625,0.02996826171875
1772461203983422000,3.151421875,-1.002838134765625,-0.0128326416015625,0.0296478271484375
1772461203993470000,3.161469970703125,-1.0019378662109375,-0.013214111328125,0.0289306640625
1772461204003518700,3.171518798828125,-1.0030059814453125,-0.0122222900390625,0.0285491943359375
1772461204013567000,3.18156689453125,-1.0041046142578125,-0.01190185546875,0.02874755859375
1772461204023615700,3.19161572265625,-1.0033416748046875,-0.011871337890625,0.028717041015625
1772461204033664000,3.2016640625,-1.002044677734375,-0.01171875,0.0284271240234375
1772461204043712800,3.211712646484375,-1.0035247802734375,-0.01190185546875,0.029052734375
1772461204053761000,3.221760986328125,-1.00323486328125,-0.0123443603515625,0.0289306640625
1772461204063809000,3.23180908203125,-1.0025634765625,-0.012725830078125,0.028900146484375
1772461204073858000,3.241858154296875,-1.0017852783203125,-0.013031005859375,0.0281829833984375
1772461204083906000,3.251906005859375,-1.0032806396484375,-0.012237548828125,0.028076171875
1772461204093953800,3.261953857421875,-1.0034637451171875,-0.012115478515625,0.0282135009765625
1772461204104003000,3.272003173828125,-1.00341796875,-0.0121917724609375,0.02886962890625
1772461204114050800,3.28205078125,-1.0037689208984375,-0.0124664306640625,0.028350830078125
1772461204124100000,3.29210009765625,-1.0014801025390625,-0.011688232421875,0.028076171875
1772461204134147800,3.30214794921875,-1.0012359619140625,-0.0124359130859375,0.0290374755859375
1772461204144196900,3.31219677734375,-1.003936767578125,-0.0127105712890625,0.028778076171875
1772461204154244900,3.322244873046875,-1.0038604736328125,-0.01226806640625,0.0285491943359375
1772461204164295700,3.332295654296875,-1.002655029296875,-0.0126800537109375,0.0287628173828125
1772461204174344700,3.3423447265625,-1.0020294189453125,-0.0126190185546875,0.029296875
1772461204184392700,3.352392822265625,-1.0019683837890625,-0.01275634765625,0.0293731689453125
1772461204194441700,3.362441650390625,-1.0025482177734375,-0.0127716064453125,0.0287628173828125
1772461204204489700,3.37248974609375,-1.00213623046875,-0.0130615234375,0.0286407470703125
1772461204214537700,3.382537841796875,-1.0022430419921875,-0.012176513671875,0.0280914306640625
1772461204224586800,3.392586669921875,-1.0027618408203125,-0.012664794921875,0.028533935546875
1772461204234634800,3.402634765625,-1.0013275146484375,-0.01171875,0.0294036865234375
1772461204244683800,3.412683837890625,-1.0021820068359375,-0.0127410888671875,0.028656005859375
1772461204254731800,3.422731689453125,-1.0034332275390625,-0.012847900390625,0.0284271240234375
1772461204264779500,3.432779541015625,-1.0028076171875,-0.0122833251953125,0.0287933349609375
1772461204274828800,3.442828857421875,-1.002471923828125,-0.0124359130859375,0.028717041015625
1772461204284876500,3.45287646484375,-1.002593994140625,-0.01220703125,0.0286102294921875
1772461204294925600,3.462925537109375,-1.0030670166015625,-0.012359619140625,0.02911376953125
1772461204304973600,3.4729736328125,-1.0019989013671875,-0.0125579833984375,0.0286102294921875
1772461204315021800,3.483021728515625,-1.0027618408203125,-0.012176513671875,0.028472900390625
1772461204325070600,3.493070556640625,-1.002593994140625,-0.0117645263671875,0.0289306640625
1772461204335118800,3.503118896484375,-1.0030059814453125,-0.01226806640625,0.028717041015625
1772461204345167600,3.513167724609375,-1.0020294189453125,-0.01226806640625,0.029083251953125
1772461204355216000,3.5232158203125,-1.0015411376953125,-0.012359619140625,0.0296173095703125
1772461204365263600,3.533263671875,-1.0025787353515625,-0.012420654296875,0.0292816162109375
1772461204375312600,3.543312744140625,-1.0027923583984375,-0.0121002197265625,0.028533935546875
1772461204385360600,3.553360595703125,-1.002685546875,-0.0124969482421875,0.0279998779296875
1772461204395409700,3.56340966796875,-1.003082275390625,-0.012451171875,0.028656005859375
1772461204405457700,3.573457763671875,-1.0027313232421875,-0.0120391845703125,0.02978515625
1772461204415506700,3.583506591796875,-1.00164794921875,-0.0120697021484375,0.029205322265625
1772461204425554700,3.5935546875,-1.001678466796875,-0.0120697021484375,0.028289794921875
1772461204435602700,3.603602783203125,-1.003662109375,-0.012420654296875,0.028533935546875
1772461204445651700,3.613651611328125,-1.004150390625,-0.011932373046875,0.0295562744140625
1772461204455699700,3.62369970703125,-1.0031585693359375,-0.01263427734375,0.02862548828125
1772461204465748700,3.633748779296875,-1.00323486328125,-0.0125885009765625,0.0291595458984375
1772461204475796700,3.643796630859375,-1.003326416015625,-0.0120697021484375,0.0294647216796875
1772461204485844700,3.6538447265625,-1.00347900390625,-0.0127410888671875,0.0284576416015625
1772461204495893800,3.663893798828125,-1.0032501220703125,-0.0130462646484375,0.0286712646484375
1772461204505941500,3.67394140625,-1.0034332275390625,-0.012847900390625,0.0293731689453125
1772461204515990800,3.68399072265625,-1.0030517578125,-0.0127410888671875,0.0287628173828125
1772461204526038500,3.69403857421875,-1.002044677734375,-0.0123291015625,0.028961181640625
1772461204536086800,3.704086669921875,-1.0022125244140625,-0.012176513671875,0.02783203125
1772461204546135600,3.714135498046875,-1.002410888671875,-0.0123443603515625,0.0289459228515625
1772461204556183600,3.72418359375,-1.0028533935546875,-0.0123138427734375,0.0294952392578125
1772461204566232600,3.734232666015625,-1.003631591796875,-0.012115478515625,0.029327392578125
1772461204576280600,3.744280517578125,-1.0027313232421875,-0.012664794921875,0.0289459228515625
1772461204586329600,3.75432958984375,-1.001739501953125,-0.01239013671875,0.028961181640625
1772461204596377600,3.764377685546875,-1.003021240234375,-0.012542724609375,0.029205322265625
1772461204606425900,3.77442578125,-1.0032501220703125,-0.0118408203125,0.028839111328125
1772461204616474600,3.784474609375,-1.00244140625,-0.012664794921875,0.0289764404296875
1772461204626523000,3.79452294921875,-1.0039215087890625,-0.012298583984375,0.02886962890625
1772461204636571600,3.804571533203125,-1.0031280517578125,-0.01220703125,0.0280914306640625
1772461204646620000,3.814619873046875,-1.00262451171875,-0.0122528076171875,0.029296875
1772461204656667600,3.824667724609375,-1.0028839111328125,-0.011871337890625,0.028900146484375
1772461204666716700,3.834716552734375,-1.0031890869140625,-0.0129547119140625,0.0298309326171875
1772461204676764700,3.8447646484375,-1.0029296875,-0.0125732421875,0.029449462890625
1772461204686813700,3.854813720703125,-1.0022735595703125,-0.011932373046875,0.0286865234375
1772461204696861700,3.86486181640625,-1.0024261474609375,-0.0124053955078125,0.0286407470703125
1772461204706910700,3.87491064453125,-1.0024566650390625,-0.01251220703125,0.028533935546875
1772461204716958700,3.884958740234375,-1.002105712890625,-0.012481689453125,0.0278778076171875
1772461204727006700,3.8950068359375,-1.002349853515625,-0.0119781494140625,0.0273590087890625
1772461204737055700,3.9050556640625,-1.0035247802734375,-0.011932373046875,0.0286865234375
1772461204747103700,3.915103759765625,-1.003448486328125,-0.01214599609375,0.0290374755859375
1772461204757152800,3.92515283203125,-1.0028839111328125,-0.0117645263671875,0.0286865234375
1772461204767200800,3.93520068359375,-1.0030975341796875,-0.0120697021484375,0.0289764404296875
1772461204777248500,3.94524853515625,-1.00201416015625,-0.012725830078125,0.0287322998046875
1772461204787297800,3.9552978515625,-1.0027008056640625,-0.0120697021484375,0.0298614501953125
1772461204797345500,3.965345458984375,-1.0033416748046875,-0.01171875,0.029052734375
1772461204807394800,3.975394775390625,-1.0019683837890625,-0.012725830078125,0.0291290283203125
1772461204817442600,3.985442626953125,-1.0037841796875,-0.0128631591796875,0.0283203125
1772461204827491800,3.995491943359375,-1.0031585693359375,-0.0126190185546875,0.028228759765625
1772461204837539600,4.00553955078125,-1.0032196044921875,-0.012176513671875,0.029052734375
1772461204847587600,4.015587646484375,-1.002197265625,-0.0119171142578125,0.027923583984375
1772461204857636600,4.02563671875,-1.0020904541015625,-0.0118255615234375,0.0283203125
1772461204867684600,4.0356845703125,-1.0038299560546875,-0.012481689453125,0.0290679931640625
1772461204877733600,4.045733642578125,-1.00341796875,-0.012237548828125,0.028594970703125
1772461204887781600,4.05578173828125,-1.003173828125,-0.012451171875,0.0280303955078125
1772461204897830000,4.065829833984375,-1.00225830078125,-0.0119781494140625,0.0284271240234375
1772461204907878700,4.075878662109375,-1.00323486328125,-0.01214599609375,0.0286712646484375
1772461204917927000,4.085927001953125,-1.0030364990234375,-0.0121917724609375,0.02886962890625
1772461204927975700,4.0959755859375,-1.00201416015625,-0.01177978515625,0.02886962890625
1772461204938023700,4.106023681640625,-1.0015411376953125,-0.011871337890625,0.0275115966796875
1772461204948072700,4.11607275390625,-1.0032196044921875,-0.0117645263671875,0.0283203125
1772461204958120700,4.12612060546875,-1.003143310546875,-0.013275146484375,0.028839111328125
1772461204968168700,4.136168701171875,-1.003326416015625,-0.0120697021484375,0.0286407470703125
1772461204978217700,4.1462177734375,-1.0026397705078125,-0.0125274658203125,0.0290985107421875
1772461204988265700,4.156265625,-1.0030670166015625,-0.0126495361328125,0.029083251953125
1772461204998314500,4.166314453125,-1.0027923583984375,-0.0125579833984375,0.0292816162109375
1772461205008362800,4.17636279296875,-1.002655029296875,-0.01287841796875,0.0283966064453125
1772461205018410800,4.18641064453125,-1.0025482177734375,-0.0122222900390625,0.027984619140625
1772461205028459800,4.196459716796875,-1.0024261474609375,-0.012298583984375,0.028167724609375
1772461205038507800,4.2065078125,-1.0030364990234375,-0.011993408203125,0.0288238525390625
1772461205048556500,4.216556640625,-1.00201416015625,-0.012664794921875,0.0282135009765625
1772461205058604800,4.226604736328125,-1.0018310546875,-0.01202392578125,0.0281219482421875
1772461205068653600,4.236653564453125,-1.0027923583984375,-0.012939453125,0.0286712646484375
1772461205078701800,4.246701904296875,-1.00311279296875,-0.01190185546875,0.0287628173828125
1772461205088749600,4.25674951171875,-1.00323486328125,-0.011962890625,0.029449462890625
1772461205098798800,4.266798828125,-1.0033721923828125,-0.012939453125,0.028656005859375
1772461205108846600,4.2768466796875,-1.0028839111328125,-0.0125885009765625,0.028717041015625
1772461205118895900,4.286895751953125,-1.00384521484375,-0.01263427734375,0.0282745361328125
1772461205128943600,4.296943603515625,-1.0036163330078125,-0.0116119384765625,0.0286712646484375
1772461205138993000,4.306992919921875,-1.0021514892578125,-0.01171875,0.0287933349609375
1772461205149040600,4.31704052734375,-1.0026397705078125,-0.0120697021484375,0.0289154052734375
1772461205159088600,4.327088623046875,-1.003662109375,-0.0118865966796875,0.029266357421875
1772461205169134800,4.337134765625,-1.0028228759765625,-0.0125732421875,0.0289154052734375
1772461205179182800,4.347182861328125,-1.0025482177734375,-0.01239013671875,0.0279998779296875
1772461205189231900,4.35723193359375,-1.002532958984375,-0.0122833251953125,0.028961181640625
1772461205199279900,4.36727978515625,-1.00262451171875,-0.0120391845703125,0.0294647216796875
1772461205209327600,4.37732763671875,-1.001922607421875,-0.0120697021484375,0.0289764404296875
1772461205219377000,4.387376953125,-1.0020904541015625,-0.0120391845703125,0.0279693603515625
1772461205229424600,4.397424560546875,-1.0018768310546875,-0.0123748779296875,0.028778076171875
1772461205239474000,4.407473876953125,-1.0031585693359375,-0.0120697021484375,0.0285797119140625
1772461205249521700,4.417521728515625,-1.0032501220703125,-0.012298583984375,0.02850341796875
1772461205259571000,4.427571044921875,-1.0023193359375,-0.0121917724609375,0.0286102294921875
1772461205269618700,4.43761865234375,-1.0016937255859375,-0.0122528076171875,0.029083251953125
1772461205279667000,4.4476669921875,-1.0027618408203125,-0.0128326416015625,0.0282745361328125
1772461205289715700,4.4577158203125,-1.00262451171875,-0.012115478515625,0.028564453125
1772461205299764000,4.467763916015625,-1.0035858154296875,-0.012664794921875,0.029205322265625
1772461205309812700,4.477812744140625,-1.0035858154296875,-0.0124664306640625,0.0293426513671875
1772461205319860700,4.48786083984375,-1.00341796875,-0.0123291015625,0.0281982421875
1772461205329909800,4.49790966796875,-1.0021209716796875,-0.012420654296875,0.0287017822265625
1772461205339957800,4.507957763671875,-1.00274658203125,-0.012298583984375,0.0293121337890625
1772461205350005800,4.518005859375,-1.00286865234375,-0.0121612548828125,0.02874755859375
1772461205360054800,4.5280546875,-1.00335693359375,-0.01220703125,0.0283050537109375
1772461205370102800,4.538102783203125,-1.0030670166015625,-0.0124664306640625,0.028564453125
1772461205380151800,4.54815185546875,-1.0027313232421875,-0.011932373046875,0.0281829833984375
1772461205390199800,4.55819970703125,-1.0025787353515625,-0.0124359130859375,0.0287628173828125
1772461205400247800,4.568247802734375,-1.0026702880859375,-0.0126800537109375,0.0296478271484375
1772461205410296800,4.578296875,-1.0023193359375,-0.011505126953125,0.027862548828125
1772461205420344800,4.5883447265625,-1.0027923583984375,-0.012115478515625,0.028289794921875
1772461205430393600,4.5983935546875,-1.00299072265625,-0.0126953125,0.028656005859375
1772461205440441900,4.60844189453125,-1.0035858154296875,-0.012115478515625,0.0294647216796875
1772461205450490600,4.61849072265625,-1.003997802734375,-0.0116729736328125,0.02947998046875
1772461205460539000,4.628538818359375,-1.0016326904296875,-0.011566162109375,0.0293426513671875
1772461205470587000,4.6385869140625,-1.0025787353515625,-0.012176513671875,0.0290069580078125
1772461205480636000,4.648635986328125,-1.0038299560546875,-0.0116119384765625,0.028106689453125
1772461205490684000,4.658683837890625,-1.0048370361328125,-0.0114898681640625,0.0278472900390625
1772461205500733000,4.66873291015625,-1.0037841796875,-0.012451171875,0.0285797119140625
1772461205510781000,4.678781005859375,-1.0024261474609375,-0.0122833251953125,0.028076171875
1772461205520830000,4.688829833984375,-1.002655029296875,-0.0126953125,0.0282745361328125
1772461205530878000,4.6988779296875,-1.0028228759765625,-0.0124664306640625,0.0290069580078125
1772461205540925700,4.70892578125,-1.002960205078125,-0.0123748779296875,0.029266357421875
1772461205550974700,4.718974609375,-1.003021240234375,-0.0126495361328125,0.028900146484375
1772461205561022700,4.729022705078125,-1.0027618408203125,-0.0128173828125,0.02862548828125
1772461205571071700,4.73907177734375,-1.0023345947265625,-0.0124053955078125,0.0289306640625
1772461205581119700,4.74911962890625,-1.001953125,-0.0122833251953125,0.0289154052734375
1772461205591168800,4.759168701171875,-1.002410888671875,-0.0118255615234375,0.028564453125
1772461205601216800,4.769216796875,-1.00299072265625,-0.012176513671875,0.028839111328125
1772461205611264800,4.7792646484375,-1.0032196044921875,-0.0128326416015625,0.0291748046875
1772461205621313800,4.789313720703125,-1.0030670166015625,-0.0127105712890625,0.028717041015625
1772461205631361800,4.79936181640625,-1.003021240234375,-0.0128631591796875,0.029266357421875
1772461205641410800,4.809410888671875,-1.0032196044921875,-0.011871337890625,0.0285797119140625
1772461205651458800,4.819458740234375,-1.0042724609375,-0.0115509033203125,0.02911376953125
1772461205661507800,4.8295078125,-1.0040130615234375,-0.011993408203125,0.02880859375
1772461205671555800,4.839555908203125,-1.0030975341796875,-0.011505126953125,0.0279998779296875
1772461205681603800,4.849603759765625,-1.003173828125,-0.012115478515625,0.027984619140625
1772461205691652900,4.85965283203125,-1.0033721923828125,-0.0123443603515625,0.029266357421875
1772461205701700900,4.869700927734375,-1.002777099609375,-0.012847900390625,0.028564453125
1772461205711750000,4.87975,-1.002044677734375,-0.0120697021484375,0.02862548828125
1772461205721797600,4.889797607421875,-1.003082275390625,-0.012725830078125,0.028900146484375
1772461205731847000,4.899846923828125,-1.0019378662109375,-0.0124969482421875,0.0286712646484375
1772461205741894700,4.909894775390625,-1.001495361328125,-0.0127410888671875,0.0283660888671875
1772461205751943000,4.91994287109375,-1.0025177001953125,-0.0122528076171875,0.028167724609375
1772461205761991700,4.92999169921875,-1.0035400390625,-0.0118255615234375,0.0287017822265625
1772461205772040000,4.9400400390625,-1.0035552978515625,-0.0123291015625,0.0284881591796875
1772461205782088700,4.950088623046875,-1.0025787353515625,-0.0126800537109375,0.028472900390625
1772461205792137000,4.960136962890625,-1.00244140625,-0.0116729736328125,0.0290679931640625
1772461205802185700,4.970185791015625,-1.003265380859375,-0.0118560791015625,0.0289459228515625
1772461205812234000,4.98023388671875,-1.0031890869140625,-0.012115478515625,0.0290374755859375
1772461205822281700,4.99028173828125,-1.0029144287109375,-0.012237548828125,0.029937744140625
1772461205832330800,5.000330810546875,-1.003448486328125,-0.0119476318359375,0.02935791015625
1772461205842378800,5.010378662109375,-1.002685546875,-0.0122222900390625,0.02886962890625
1772461205852427800,5.020427734375,-1.002593994140625,-0.012237548828125,0.0290374755859375
1772461205862475800,5.030475830078125,-1.0033721923828125,-0.0113525390625,0.0281982421875
1772461205872524800,5.04052490234375,-1.003204345703125,-0.0120086669921875,0.027740478515625
1772461205882572800,5.05057275390625,-1.0028533935546875,-0.01202392578125,0.029022216796875
1772461205892620800,5.060620849609375,-1.002838134765625,-0.0115966796875,0.0284576416015625
1772461205902669800,5.070669921875,-1.0024566650390625,-0.0120697021484375,0.02850341796875
1772461205912717800,5.0807177734375,-1.003387451171875,-0.0127716064453125,0.0277557373046875
1772461205922766800,5.090766845703125,-1.0019073486328125,-0.01239013671875,0.0270843505859375
1772461205932814800,5.10081494140625,-1.0024566650390625,-0.0125274658203125,0.0283660888671875
1772461205942863600,5.110863525390625,-1.002838134765625,-0.0120086669921875,0.0279693603515625
1772461205952912000,5.120911865234375,-1.003326416015625,-0.012481689453125,0.0281219482421875
1772461205962960000,5.1309599609375,-1.0034942626953125,-0.0118560791015625,0.0294036865234375
1772461205973009000,5.1410087890625,-1.002777099609375,-0.0121917724609375,0.0297088623046875
1772461205983057000,5.151056884765625,-1.0024871826171875,-0.0124053955078125,0.0289154052734375
1772461205993106000,5.16110595703125,-1.00323486328125,-0.012939453125,0.0287933349609375
1772461206003154000,5.17115380859375,-1.0032196044921875,-0.01220703125,0.0280609130859375
1772461206013203000,5.181202880859375,-1.0036773681640625,-0.0127410888671875,0.0281982421875
1772461206023251000,5.1912509765625,-1.003631591796875,-0.01275634765625,0.02880859375
1772461206033300000,5.201300048828125,-1.0029754638671875,-0.0128936767578125,0.028778076171875
1772461206043347700,5.21134765625,-1.0018463134765625,-0.011993408203125,0.0290679931640625
1772461206053395700,5.221395751953125,-1.001708984375,-0.0123138427734375,0.02935791015625
1772461206063444700,5.23144482421875,-1.0026397705078125,-0.01226806640625,0.02886962890625
1772461206073492700,5.24149267578125,-1.003570556640625,-0.01165771484375,0.0285797119140625
1772461206083541800,5.251541748046875,-1.0028076171875,-0.0123291015625,0.028656005859375
1772461206093589800,5.26158984375,-1.003265380859375,-0.0113983154296875,0.0291900634765625
1772461206103638800,5.271638671875,-1.0029144287109375,-0.0122833251953125,0.028045654296875
1772461206113686800,5.281686767578125,-1.001678466796875,-0.012786865234375,0.0290985107421875
1772461206123734800,5.29173486328125,-1.00244140625,-0.01220703125,0.0284423828125
1772461206133783800,5.30178369140625,-1.00311279296875,-0.011932373046875,0.028350830078125
1772461206143831800,5.311831787109375,-1.0029296875,-0.01202392578125,0.029266357421875
1772461206153880800,5.321880859375,-1.003204345703125,-0.0125732421875,0.02899169921875
1772461206163928800,5.3319287109375,-1.003509521484375,-0.0126190185546875,0.0278778076171875
1772461206173976800,5.341976806640625,-1.0032806396484375,-0.01239013671875,0.02886962890625
1772461206184025900,5.35202587890625,-1.0029296875,-0.0126495361328125,0.0289154052734375
1772461206194073900,5.362073974609375,-1.0035400390625,-0.0124359130859375,0.0286407470703125
1772461206204123000,5.372122802734375,-1.0024871826171875,-0.0122222900390625,0.0282745361328125
1772461206214170600,5.382170654296875,-1.0029754638671875,-0.0121002197265625,0.0289306640625
1772461206224220000,5.392219970703125,-1.003936767578125,-0.0126800537109375,0.0293731689453125
1772461206234267600,5.402267578125,-1.0025482177734375,-0.0119781494140625,0.0293731689453125
1772461206244316000,5.41231591796875,-1.0028076171875,-0.0128021240234375,0.0291900634765625
1772461206254364700,5.42236474609375,-1.0029754638671875,-0.01239013671875,0.02880859375
1772461206264413000,5.432412841796875,-1.0028076171875,-0.0127105712890625,0.028961181640625
1772461206274461700,5.442461669921875,-1.0030059814453125,-0.0125885009765625,0.0279693603515625
1772461206284510000,5.452510009765625,-1.0017852783203125,-0.0118560791015625,0.028961181640625
1772461206294558700,5.462558837890625,-1.002227783203125,-0.0119171142578125,0.027496337890625
1772461206304607000,5.47260693359375,-1.0036163330078125,-0.0121307373046875,0.029205322265625
1772461206314654700,5.48265478515625,-1.003387451171875,-0.012115478515625,0.0285797119140625
1772461206324703700,5.492703857421875,-1.0023193359375,-0.01275634765625,0.0283203125
1772461206334751700,5.502751708984375,-1.0015411376953125,-0.0118408203125,0.0285186767578125
1772461206344800800,5.51280078125,-1.003021240234375,-0.012969970703125,0.0289459228515625
1772461206354848800,5.522848876953125,-1.0031585693359375,-0.01287841796875,0.02960205078125
1772461206364897800,5.532897705078125,-1.0029754638671875,-0.0120849609375,0.029327392578125
1772461206374945800,5.54294580078125,-1.0033721923828125,-0.012054443359375,0.0283966064453125
1772461206384994800,5.552994873046875,-1.00189208984375,-0.0126953125,0.0281829833984375
1772461206395042800,5.563042724609375,-1.00347900390625,-0.01190185546875,0.02789306640625
1772461206405090800,5.5730908203125,-1.0037841796875,-0.0118865966796875,0.0284881591796875
1772461206415139800,5.583139892578125,-1.0023040771484375,-0.0127105712890625,0.02923583984375
1772461206425187800,5.593187744140625,-1.0028076171875,-0.0127105712890625,0.0291290283203125
1772461206435236600,5.603236572265625,-1.0025482177734375,-0.01220703125,0.0290374755859375
1772461206445284900,5.613284912109375,-1.0015716552734375,-0.011749267578125,0.02880859375
1772461206455333600,5.623333740234375,-1.003662109375,-0.01190185546875,0.029937744140625
1772461206465382000,5.6333818359375,-1.0025482177734375,-0.012603759765625,0.0283660888671875
1772461206475430000,5.643429931640625,-1.0019073486328125,-0.0117950439453125,0.0280303955078125
1772461206485479000,5.65347900390625,-1.0027313232421875,-0.0115814208984375,0.028564453125
1772461206495527000,5.66352685546875,-1.0031585693359375,-0.0126495361328125,0.029632568359375
1772461206505576000,5.673575927734375,-1.0020904541015625,-0.0123291015625,0.0298614501953125
1772461206515623700,5.683623779296875,-1.0012359619140625,-0.012725830078125,0.0284881591796875
1772461206525673000,5.6936728515625,-1.0023193359375,-0.0121917724609375,0.0287017822265625
1772461206535720700,5.703720703125,-1.0034332275390625,-0.01177978515625,0.0274505615234375
1772461206545768700,5.713768798828125,-1.0028533935546875,-0.0118408203125,0.0281219482421875
1772461206555817700,5.723817626953125,-1.0024261474609375,-0.01214599609375,0.028289794921875
1772461206565865700,5.73386572265625,-1.0020904541015625,-0.0121002197265625,0.0290374755859375
1772461206575914800,5.743914794921875,-1.0030059814453125,-0.01177978515625,0.0291748046875
1772461206585962800,5.753962646484375,-1.003204345703125,-0.012054443359375,0.0284576416015625
1772461206596011800,5.76401171875,-1.0030670166015625,-0.012542724609375,0.027801513671875
1772461206606059800,5.774059814453125,-1.0034942626953125,-0.0126953125,0.0286865234375
1772461206616108800,5.78410888671875,-1.0033721923828125,-0.0120697021484375,0.0292816162109375
1772461206626156800,5.79415673828125,-1.0028228759765625,-0.0120086669921875,0.0284576416015625
1772461206636204800,5.804204833984375,-1.0032501220703125,-0.011962890625,0.0286712646484375
1772461206646253800,5.81425390625,-1.002685546875,-0.012176513671875,0.028533935546875
1772461206656301800,5.8243017578125,-1.002197265625,-0.0122222900390625,0.029052734375
1772461206666350800,5.834350830078125,-1.0030517578125,-0.01202392578125,0.02850341796875
1772461206676398800,5.84439892578125,-1.0036468505859375,-0.01226806640625,0.029022216796875
1772461206686447900,5.85444775390625,-1.0029449462890625,-0.0125579833984375,0.0289154052734375
1772461206696495900,5.864495849609375,-1.0026397705078125,-0.012481689453125,0.0287017822265625
1772461206706543900,5.8745439453125,-1.002288818359375,-0.012237548828125,0.0289154052734375
1772461206716593000,5.884593017578125,-1.002227783203125,-0.012115478515625,0.030120849609375
1772461206726640600,5.894640625,-1.0044403076171875,-0.0124359130859375,0.0285797119140625
1772461206736690000,5.90468994140625,-1.0040130615234375,-0.0112152099609375,0.0287017822265625
1772461206746737700,5.914737548828125,-1.0024871826171875,-0.01190185546875,0.0287322998046875
1772461206756787000,5.924786865234375,-1.0023956298828125,-0.012603759765625,0.0287628173828125
1772461206766834700,5.934834716796875,-1.00262451171875,-0.0120849609375,0.02838134765625
1772461206776884000,5.944884033203125,-1.0035858154296875,-0.0125579833984375,0.0285186767578125
1772461206786931700,5.954931640625,-1.0023040771484375,-0.011932373046875,0.0288848876953125
1772461206796980700,5.964980712890625,-1.0009002685546875,-0.0125579833984375,0.028839111328125
1772461206807028700,5.97502880859375,-1.00189208984375,-0.0121917724609375,0.028717041015625
1772461206817077000,5.985076904296875,-1.0028076171875,-0.0117645263671875,0.0283660888671875
1772461206827125800,5.995125732421875,-1.0028533935546875,-0.01190185546875,0.028656005859375
1772461206837173800,6.005173828125,-1.001495361328125,-0.012359619140625,0.0283966064453125
1772461206847222800,6.015222900390625,-1.0027008056640625,-0.0121917724609375,0.028533935546875
1772461206857270800,6.025270751953125,-1.0035400390625,-0.0129852294921875,0.0294189453125
1772461206867319800,6.03531982421875,-1.0043792724609375,-0.0129547119140625,0.0289764404296875
1772461206877367800,6.045367919921875,-1.0025787353515625,-0.01275634765625,0.0286712646484375
1772461206887415800,6.055415771484375,-1.0020751953125,-0.0120086669921875,0.0287933349609375
1772461206897464800,6.06546484375,-1.00299072265625,-0.0122528076171875,0.0287322998046875
1772461206907512800,6.075512939453125,-1.0026702880859375,-0.012176513671875,0.0287628173828125
1772461206917561900,6.085561767578125,-1.0034637451171875,-0.0116119384765625,0.028411865234375
1772461206927609900,6.09560986328125,-1.0030059814453125,-0.0123443603515625,0.02850341796875
1772461206937659000,6.105658935546875,-1.00238037109375,-0.0123291015625,0.0291900634765625
1772461206947706600,6.11570654296875,-1.0022125244140625,-0.01220703125,0.0288543701171875
1772461206957756000,6.125755859375,-1.00238037109375,-0.0125732421875,0.0280914306640625
1772461206967803600,6.1358037109375,-1.0029449462890625,-0.011627197265625,0.0290069580078125
1772461206977853000,6.14585302734375,-1.002532958984375,-0.012176513671875,0.0287933349609375
1772461206987900700,6.155900634765625,-1.0028076171875,-0.0126495361328125,0.0286865234375
1772461206997949000,6.165948974609375,-1.0027618408203125,-0.012237548828125,0.0291290283203125
1772461207007997700,6.175997802734375,-1.0038299560546875,-0.0122528076171875,0.0284881591796875
1772461207018046000,6.1860458984375,-1.0029144287109375,-0.0121612548828125,0.0285797119140625
1772461207028094700,6.1960947265625,-1.0020751953125,-0.0122222900390625,0.0283966064453125
1772461207038143000,6.20614306640625,-1.001983642578125,-0.0126495361328125,0.02886962890625
1772461207048191700,6.216191650390625,-1.003692626953125,-0.01171875,0.0293121337890625
1772461207058239700,6.22623974609375,-1.0030975341796875,-0.0120697021484375,0.0289154052734375
1772461207068288800,6.236288818359375,-1.0033721923828125,-0.012237548828125,0.0277099609375
1772461207078336800,6.246336669921875,-1.0029449462890625,-0.01177978515625,0.0281219482421875
1772461207088384800,6.256384765625,-1.0036163330078125,-0.0118408203125,0.02838134765625
1772461207098433800,6.266433837890625,-1.0041656494140625,-0.0122528076171875,0.0286407470703125
1772461207108481800,6.276481689453125,-1.002349853515625,-0.0121917724609375,0.0286865234375
1772461207118530800,6.28653076171875,-1.0025482177734375,-0.0118255615234375,0.0294342041015625
1772461207128578800,6.296578857421875,-1.0029296875,-0.01239013671875,0.028717041015625
1772461207138627800,6.3066279296875,-1.0025634765625,-0.0120697021484375,0.0283660888671875
1772461207148675800,6.31667578125,-1.0028076171875,-0.01177978515625,0.0285491943359375
1772461207158723800,6.326723876953125,-1.003204345703125,-0.011566162109375,0.0279083251953125
1772461207168772400,6.3367724609375,-1.0023040771484375,-0.0117950439453125,0.0289154052734375
1772461207178820600,6.346820556640625,-1.0027923583984375,-0.01226806640625,0.0284576416015625
1772461207188869400,6.356869384765625,-1.001861572265625,-0.0125274658203125,0.0286102294921875
1772461207198917600,6.366917724609375,-1.0025787353515625,-0.011566162109375,0.0292510986328125
1772461207208966400,6.37696630859375,-1.00421142578125,-0.012664794921875,0.0287933349609375
1772461207219014700,6.3870146484375,-1.0028533935546875,-0.0121612548828125,0.02874755859375
1772461207229063400,6.3970634765625,-1.00372314453125,-0.012603759765625,0.0285797119140625
1772461207239111700,6.407111572265625,-1.001922607421875,-0.012359619140625,0.028350830078125
1772461207249159700,6.41715966796875,-1.0022125244140625,-0.0124053955078125,0.0288543701171875
1772461207259208400,6.42720849609375,-1.0033111572265625,-0.0122528076171875,0.029144287109375
1772461207269256700,6.437256591796875,-1.0038299560546875,-0.0117340087890625,0.028778076171875
1772461207279305500,6.447305419921875,-1.00323486328125,-0.011810302734375,0.02850341796875
1772461207289353700,6.457353759765625,-1.0023193359375,-0.0113372802734375,0.02880859375
1772461207299402500,6.467402587890625,-1.0021209716796875,-0.0123443603515625,0.02813720703125
1772461207309450800,6.47745068359375,-1.0029296875,-0.0124359130859375,0.028839111328125
1772461207319499500,6.48749951171875,-1.0016021728515625,-0.0125885009765625,0.0290679931640625
1772461207329547500,6.497547607421875,-1.0020904541015625,-0.0121612548828125,0.0285491943359375
1772461207339595500,6.507595458984375,-1.0025634765625,-0.0126190185546875,0.029083251953125
1772461207349644500,6.51764453125,-1.0042877197265625,-0.012359619140625,0.028533935546875
1772461207359692500,6.527692626953125,-1.0039825439453125,-0.01190185546875,0.02880859375
1772461207369741300,6.5377412109375,-1.0023651123046875,-0.0122222900390625,0.02789306640625
1772461207379789600,6.54778955078125,-1.003143310546875,-0.0124969482421875,0.0282745361328125
1772461207389838300,6.55783837890625,-1.00445556640625,-0.0112152099609375,0.0284271240234375
1772461207399886600,6.567886474609375,-1.003082275390625,-0.0126800537109375,0.0289306640625
1772461207409935400,6.577935302734375,-1.0028076171875,-0.012054443359375,0.0285797119140625
1772461207419983600,6.587983642578125,-1.0042724609375,-0.0119476318359375,0.0288543701171875
1772461207430031600,6.598031494140625,-1.00311279296875,-0.0117034912109375,0.0284576416015625
1772461207440080600,6.60808056640625,-1.00225830078125,-0.0116729736328125,0.0280609130859375
1772461207450128600,6.618128662109375,-1.0024566650390625,-0.0123138427734375,0.028167724609375
1772461207460177700,6.628177734375,-1.00238037109375,-0.0120391845703125,0.0285491943359375
1772461207470225700,6.6382255859375,-1.0037078857421875,-0.01190185546875,0.0277252197265625
1772461207480274700,6.648274658203125,-1.00433349609375,-0.0116119384765625,0.028656005859375
1772461207490322700,6.65832275390625,-1.0023956298828125,-0.0124053955078125,0.0294036865234375
1772461207500371500,6.668371337890625,-1.0014495849609375,-0.013214111328125,0.028717041015625
1772461207510419700,6.678419677734375,-1.0021514892578125,-0.0124359130859375,0.029144287109375
1772461207520468500,6.688468505859375,-1.0023651123046875,-0.010894775390625,0.0285797119140625
1772461207530516700,6.698516845703125,-1.0026397705078125,-0.012176513671875,0.0284271240234375
1772461207540564500,6.708564453125,-1.0022125244140625,-0.0119476318359375,0.02764892578125
1772461207550613800,6.71861376953125,-1.0023040771484375,-0.01214599609375,0.0287628173828125
1772461207560661500,6.72866162109375,-1.003662109375,-0.0120849609375,0.029205322265625
1772461207570710800,6.738710693359375,-1.002655029296875,-0.012969970703125,0.0290985107421875
1772461207580758500,6.748758544921875,-1.0023956298828125,-0.0125732421875,0.029022216796875
1772461207590807600,6.7588076171875,-1.0028839111328125,-0.011688232421875,0.028350830078125
1772461207600855600,6.76885546875,-1.003448486328125,-0.0118560791015625,0.0292205810546875
1772461207610904600,6.778904541015625,-1.0051727294921875,-0.011932373046875,0.0287933349609375
1772461207620952600,6.78895263671875,-1.00341796875,-0.01177978515625,0.0284881591796875
1772461207631000600,6.79900048828125,-1.002288818359375,-0.0122222900390625,0.028289794921875
1772461207641049600,6.809049560546875,-1.0011749267578125,-0.0123138427734375,0.0277557373046875
1772461207651097600,6.81909765625,-1.002166748046875,-0.011962890625,0.027679443359375
1772461207661146600,6.829146728515625,-1.0026702880859375,-0.0124664306640625,0.028533935546875
1772461207671194600,6.839194580078125,-1.0031585693359375,-0.0123291015625,0.0281982421875
1772461207681243600,6.84924365234375,-1.002777099609375,-0.012847900390625,0.0285186767578125
1772461207691291600,6.859291748046875,-1.0027618408203125,-0.012664794921875,0.0290679931640625
1772461207701340700,6.869340576171875,-1.00213623046875,-0.012054443359375,0.0275726318359375
1772461207711388700,6.879388671875,-1.003265380859375,-0.0121002197265625,0.0287017822265625
1772461207721436400,6.8894365234375,-1.00250244140625,-0.0121307373046875,0.0292816162109375
1772461207731485700,6.899485595703125,-1.003082275390625,-0.0121307373046875,0.029449462890625
1772461207741533400,6.909533447265625,-1.0030364990234375,-0.0121917724609375,0.0283966064453125
1772461207751582700,6.919582763671875,-1.0031890869140625,-0.011932373046875,0.0283050537109375
1772461207761630500,6.92963037109375,-1.0035247802734375,-0.01214599609375,0.0288238525390625
1772461207771679700,6.9396796875,-1.0036468505859375,-0.0126953125,0.0284576416015625
1772461207781727500,6.9497275390625,-1.002532958984375,-0.0124969482421875,0.02850341796875
1772461207791776800,6.95977685546875,-1.0034332275390625,-0.011932373046875,0.0281829833984375
1772461207801824500,6.969824462890625,-1.0037078857421875,-0.0115814208984375,0.0275421142578125
1772461207811873800,6.979873779296875,-1.0020904541015625,-0.0117340087890625,0.027435302734375
1772461207821921500,6.989921630859375,-1.002960205078125,-0.0121917724609375,0.0293731689453125
1772461207831969500,6.999969482421875,-1.0031890869140625,-0.0119171142578125,0.029510498046875
1772461207842018600,7.0100185546875,-1.0030975341796875,-0.0125732421875,0.0288543701171875
1772461207852066600,7.020066650390625,-1.003997802734375,-0.0127410888671875,0.0294189453125
1772461207862115600,7.030115478515625,-1.002960205078125,-0.0123443603515625,0.02899169921875
1772461207872163600,7.04016357421875,-1.00250244140625,-0.011749267578125,0.0288238525390625
1772461207882212600,7.050212646484375,-1.00299072265625,-0.0119171142578125,0.028778076171875
1772461207892260600,7.060260498046875,-1.0030517578125,-0.0120391845703125,0.0291900634765625
1772461207902309600,7.0703095703125,-1.0024261474609375,-0.01226806640625,0.02960205078125
1772461207912357600,7.080357666015625,-1.0024566650390625,-0.0121002197265625,0.0278167724609375
1772461207922405400,7.0904052734375,-1.00274658203125,-0.01220703125,0.028717041015625
1772461207932454700,7.10045458984375,-1.002838134765625,-0.0127716064453125,0.0290374755859375
1772461207942502400,7.11050244140625,-1.0025787353515625,-0.01300048828125,0.0283660888671875
1772461207952551700,7.1205517578125,-1.0029754638671875,-0.0119781494140625,0.0291748046875
1772461207962599400,7.130599365234375,-1.001800537109375,-0.01251220703125,0.0290985107421875
1772461207972648700,7.140648681640625,-1.00274658203125,-0.011749267578125,0.027862548828125
1772461207982696400,7.150696533203125,-1.003509521484375,-0.0118408203125,0.0286712646484375
1772461207992745700,7.160745849609375,-1.0032806396484375,-0.0118255615234375,0.029327392578125
1772461208002793500,7.17079345703125,-1.0030517578125,-0.012786865234375,0.028228759765625
1772461208012842800,7.1808427734375,-1.0026397705078125,-0.01226806640625,0.0273895263671875
1772461208022890500,7.190890380859375,-1.0030364990234375,-0.0128936767578125,0.02825927734375
1772461208032938500,7.2009384765625,-1.0032501220703125,-0.01202392578125,0.0283355712890625
1772461208042987500,7.210987548828125,-1.0028839111328125,-0.0118560791015625,0.0286865234375
1772461208053035500,7.221035400390625,-1.0022735595703125,-0.0126495361328125,0.02874755859375
1772461208063084500,7.23108447265625,-1.0029144287109375,-0.012298583984375,0.0295257568359375
1772461208073132500,7.241132568359375,-1.00311279296875,-0.012664794921875,0.02899169921875
1772461208083181600,7.251181640625,-1.0020599365234375,-0.0118865966796875,0.0286102294921875
1772461208093229600,7.2612294921875,-1.0016326904296875,-0.01226806640625,0.0281829833984375
1772461208103278600,7.271278564453125,-1.002227783203125,-0.0119781494140625,0.0286102294921875
1772461208113326600,7.28132666015625,-1.0030059814453125,-0.011505126953125,0.02880859375
1772461208123375600,7.291375732421875,-1.0024566650390625,-0.01190185546875,0.0282135009765625
1772461208133423600,7.301423583984375,-1.0036773681640625,-0.01220703125,0.0283966064453125
1772461208143471400,7.311471435546875,-1.0035552978515625,-0.0120697021484375,0.0278778076171875
1772461208153520600,7.321520751953125,-1.0032196044921875,-0.012176513671875,0.0289459228515625
1772461208163568400,7.331568359375,-1.0022430419921875,-0.011688232421875,0.0289306640625
1772461208173621000,7.34162109375,-1.002166748046875,-0.01171875,0.0288848876953125
1772461208183669000,7.3516689453125,-1.0034942626953125,-0.0120849609375,0.0292205810546875
1772461208193718000,7.361718017578125,-1.0040435791015625,-0.011627197265625,0.02813720703125
1772461208203766000,7.37176611328125,-1.0026397705078125,-0.0129852294921875,0.029052734375
1772461208213815000,7.38181494140625,-1.0018310546875,-0.0128326416015625,0.0273590087890625
1772461208223863000,7.391863037109375,-1.001922607421875,-0.0119781494140625,0.028076171875
1772461208233912000,7.401912109375,-1.0028076171875,-0.01141357421875,0.0291900634765625
1772461208243960000,7.4119599609375,-1.0019683837890625,-0.0119476318359375,0.02972412109375
1772461208254008000,7.422008056640625,-1.0027923583984375,-0.0118560791015625,0.0286865234375
1772461208264057000,7.43205712890625,-1.0031585693359375,-0.0122833251953125,0.02935791015625
1772461208274105000,7.44210498046875,-1.003082275390625,-0.0122528076171875,0.0299835205078125
1772461208284154000,7.452154052734375,-1.003173828125,-0.0120391845703125,0.0293426513671875
1772461208294202000,7.4622021484375,-1.0031585693359375,-0.012847900390625,0.0292816162109375
1772461208304251000,7.4722509765625,-1.00244140625,-0.0120086669921875,0.0278778076171875
1772461208314299100,7.482299072265625,-1.0023345947265625,-0.0122528076171875,0.0289306640625
1772461208324348000,7.492347900390625,-1.002960205078125,-0.0123748779296875,0.0286407470703125
1772461208334396200,7.502396240234375,-1.003265380859375,-0.0120697021484375,0.0283050537109375
1772461208344444200,7.512444091796875,-1.002685546875,-0.0125274658203125,0.0266876220703125
1772461208354493200,7.5224931640625,-1.002471923828125,-0.0131072998046875,0.028228759765625
1772461208364541000,7.532541015625,-1.0034027099609375,-0.0124053955078125,0.02899169921875
1772461208374590200,7.542590087890625,-1.002471923828125,-0.012481689453125,0.029632568359375
1772461208384638000,7.552637939453125,-1.003082275390625,-0.012603759765625,0.0286865234375
1772461208394687200,7.562687255859375,-1.0025482177734375,-0.011627197265625,0.0286865234375
1772461208404735000,7.57273486328125,-1.0028076171875,-0.013031005859375,0.0287628173828125
1772461208414784000,7.582783935546875,-1.0032806396484375,-0.01226806640625,0.0286407470703125
1772461208424832000,7.59283203125,-1.0026092529296875,-0.011077880859375,0.0283966064453125
1772461208434881000,7.602881103515625,-1.003631591796875,-0.011474609375,0.0287628173828125
1772461208444929000,7.612928955078125,-1.0032501220703125,-0.0123138427734375,0.0280609130859375
1772461208454978000,7.62297802734375,-1.003021240234375,-0.012939453125,0.0277862548828125
1772461208465026000,7.633026123046875,-1.00299072265625,-0.01275634765625,0.02862548828125
1772461208475074000,7.643073974609375,-1.0042877197265625,-0.012298583984375,0.0289459228515625
1772461208485123000,7.653123046875,-1.00347900390625,-0.0122528076171875,0.0294342041015625
1772461208495171000,7.663171142578125,-1.0035552978515625,-0.01202392578125,0.0288848876953125
1772461208505220000,7.67322021484375,-1.0031585693359375,-0.0119171142578125,0.0283050537109375
1772461208515268000,7.68326806640625,-1.0027008056640625,-0.012115478515625,0.0289306640625
1772461208525316900,7.69331689453125,-1.002899169921875,-0.01214599609375,0.028564453125
1772461208535365000,7.703365234375,-1.0032501220703125,-0.0119781494140625,0.0284423828125
1772461208545414000,7.713413818359375,-1.0023651123046875,-0.0126495361328125,0.0286712646484375
1772461208555462100,7.723462158203125,-1.001922607421875,-0.0127105712890625,0.028961181640625
1772461208565511000,7.733510986328125,-1.002166748046875,-0.01171875,0.029022216796875
1772461208575559200,7.74355908203125,-1.00323486328125,-0.0123443603515625,0.0286865234375
1772461208585607200,7.753607177734375,-1.001861572265625,-0.012359619140625,0.0287628173828125
1772461208595656200,7.76365625,-1.0010833740234375,-0.011474609375,0.0279083251953125
1772461208605704200,7.7737041015625,-1.0032958984375,-0.01251220703125,0.02874755859375
1772461208615753200,7.783753173828125,-1.0029296875,-0.0123138427734375,0.0287322998046875
1772461208625801000,7.793801025390625,-1.0029144287109375,-0.011993408203125,0.0288238525390625
1772461208635850000,7.80385009765625,-1.0038299560546875,-0.011871337890625,0.02838134765625
1772461208645898000,7.81389794921875,-1.0026702880859375,-0.013031005859375,0.0293121337890625
1772461208655947000,7.823947021484375,-1.0016326904296875,-0.01220703125,0.0297698974609375
1772461208665995000,7.8339951171875,-1.002166748046875,-0.01214599609375,0.029144287109375
1772461208676044000,7.8440439453125,-1.0035400390625,-0.012451171875,0.028533935546875
1772461208686092000,7.854092041015625,-1.0040283203125,-0.0126190185546875,0.02752685546875
1772461208696140000,7.86414013671875,-1.002777099609375,-0.0126190185546875,0.0291748046875
1772461208706189000,7.87418896484375,-1.0017547607421875,-0.0123291015625,0.0282745361328125
1772461208716237000,7.884237060546875,-1.0021514892578125,-0.0128631591796875,0.0283050537109375
1772461208726286000,7.8942861328125,-1.0027008056640625,-0.013153076171875,0.02783203125
1772461208736334000,7.904333984375,-1.0025177001953125,-0.01263427734375,0.02825927734375
1772461208746382800,7.9143828125,-1.00335693359375,-0.012786865234375,0.0290679931640625
1772461208756431000,7.92443115234375,-1.0030059814453125,-0.0128936767578125,0.0277252197265625
1772461208766480000,7.93447998046875,-1.0038909912109375,-0.0119781494140625,0.0290069580078125
1772461208776528100,7.944528076171875,-1.00439453125,-0.01251220703125,0.028900146484375
1772461208786577000,7.954576904296875,-1.0037078857421875,-0.011566162109375,0.029876708984375
1772461208796625200,7.964625244140625,-1.00518798828125,-0.0115966796875,0.0288238525390625
1772461208806673200,7.974673095703125,-1.0062408447265625,-0.01214599609375,0.0282745361328125
1772461208816722200,7.98472216796875,-1.006317138671875,-0.0123748779296875,0.02801513671875
1772461208826770200,7.994770263671875,-1.006500244140625,-0.012298583984375,0.0283203125
1772461208836819200,8.004819091796875,-1.005706787109375,-0.0118560791015625,0.0287933349609375
1772461208846867200,8.0148671875,-1.00286865234375,-0.0132598876953125,0.02862548828125
1772461208856916000,8.024916015625,-1.0023345947265625,-0.01361083984375,0.0301055908203125
1772461208866964200,8.034964111328126,-1.0037384033203125,-0.0142974853515625,0.0305023193359375
1772461208877013000,8.045012939453125,-1.0006561279296875,-0.0142059326171875,0.0301055908203125
1772461208887061000,8.05506103515625,-1.0005035400390625,-0.01361083984375,0.029296875
1772461208897110000,8.065110107421875,-1.011016845703125,-0.0135345458984375,0.0298614501953125
1772461208907158000,8.075157958984375,-0.9963531494140625,-0.0112457275390625,0.0283203125
1772461208917207000,8.08520703125,-0.97613525390625,-0.0093841552734375,0.0254974365234375
1772461208927255000,8.095255126953125,-1.0325775146484375,-0.01080322265625,0.02935791015625
1772461208937303000,8.105302978515626,-1.04083251953125,-0.01214599609375,0.0305328369140625
1772461208947352000,8.11535205078125,-0.9711456298828125,-0.0116424560546875,0.027374267578125
1772461208957400000,8.125400146484376,-0.9473114013671875,-0.0113372802734375,0.0244140625
1772461208967448800,8.13544873046875,-1.00286865234375,-0.0107574462890625,0.026702880859375
1772461208977497000,8.1454970703125,-1.0485382080078125,-0.010467529296875,0.0283050537109375
1772461208987545900,8.1555458984375,-1.0198974609375,-0.0105438232421875,0.0291595458984375
1772461208997594000,8.165593994140625,-0.971832275390625,-0.01165771484375,0.02703857421875
1772461209007643000,8.175642822265624,-0.977569580078125,-0.0139923095703125,0.0259857177734375
1772461209017691100,8.185691162109375,-1.021209716796875,-0.013671875,0.029052734375
1772461209027740000,8.195739990234374,-1.0306243896484375,-0.011566162109375,0.0307159423828125
1772461209037788200,8.2057880859375,-0.9976654052734375,-0.00933837890625,0.02899169921875
1772461209047836200,8.215836181640626,-0.9791412353515625,-0.01171875,0.025390625
1772461209057885200,8.22588525390625,-0.9989013671875,-0.012298583984375,0.0253448486328125
1772461209067933200,8.23593310546875,-1.0216064453125,-0.0124053955078125,0.02947998046875
1772461209077982000,8.24598193359375,-1.0129852294921875,-0.0117340087890625,0.0305328369140625
1772461209088030200,8.2560302734375,-0.992279052734375,-0.0128173828125,0.03009033203125
1772461209098079000,8.266078857421874,-0.990142822265625,-0.013519287109375,0.028106689453125
1772461209108127200,8.276127197265625,-1.0079345703125,-0.0124359130859375,0.0282745361328125
1772461209118176000,8.286176025390626,-1.0156097412109375,-0.01068115234375,0.029632568359375
1772461209128224300,8.296224365234375,-1.0034942626953125,-0.0109100341796875,0.0284881591796875
1772461209138273000,8.30627294921875,-0.993255615234375,-0.0122222900390625,0.025238037109375
1772461209148321000,8.316321044921875,-0.9993133544921875,-0.01251220703125,0.026397705078125
1772461209158370000,8.3263701171875,-1.0084686279296875,-0.011077880859375,0.0291290283203125
1772461209168418000,8.33641796875,-1.008331298828125,-0.01019287109375,0.0316009521484375
1772461209178462000,8.3464619140625,-0.9993133544921875,-0.0121612548828125,0.0283660888671875
1772461209188511000,8.356510986328125,-0.9964752197265625,-0.01312255859375,0.0267181396484375
1772461209198559000,8.36655908203125,-1.0034942626953125,-0.0124053955078125,0.0281982421875
1772461209208608000,8.37660791015625,-1.0091400146484375,-0.0109710693359375,0.030731201171875
1772461209218656000,8.386656005859376,-1.004852294921875,-0.0125885009765625,0.027862548828125
1772461209228705000,8.396705078125,-0.9977264404296875,-0.013031005859375,0.026031494140625
1772461209238753000,8.4067529296875,-1.00048828125,-0.0117340087890625,0.0283355712890625
1772461209248802000,8.416802001953124,-1.0064544677734375,-0.01019287109375,0.030242919921875
1772461209258849800,8.426849853515625,-1.0059967041015625,-0.0119781494140625,0.0279083251953125
1772461209268899000,8.436899169921874,-1.00079345703125,-0.0125274658203125,0.0261077880859375
1772461209278946800,8.44694677734375,-1,-0.0112762451171875,0.0277252197265625
1772461209288995000,8.4569951171875,-1.0030059814453125,-0.010894775390625,0.0298309326171875
1772461209299043800,8.4670439453125,-1.0054473876953125,-0.01141357421875,0.0293121337890625
1772461209309092000,8.477092041015625,-1.0028076171875,-0.0126190185546875,0.0275726318359375
1772461209319140900,8.487140869140624,-1.0003814697265625,-0.0117950439453125,0.0281219482421875
1772461209329189000,8.497189208984375,-1.00189208984375,-0.0110321044921875,0.028533935546875
1772461209339238000,8.50723779296875,-1.005126953125,-0.0108642578125,0.028778076171875
1772461209349286100,8.5172861328125,-1.00396728515625,-0.01171875,0.0276031494140625
1772461209359335000,8.5273349609375,-1.0016021728515625,-0.0118560791015625,0.0281829833984375
1772461209369383000,8.5373828125,-1.0015716552734375,-0.0111083984375,0.02886962890625
1772461209379432000,8.547431884765626,-1.0027313232421875,-0.01220703125,0.0282745361328125
1772461209389480000,8.55747998046875,-1.0006256103515625,-0.01239013671875,0.027923583984375
1772461209399529000,8.567529052734375,-0.9638519287109375,-0.0117950439453125,0.0283203125
1772461209409577000,8.577576904296874,-1.022705078125,-0.0102691650390625,0.0297088623046875
1772461209419625000,8.587625,-1.0705413818359375,-0.01171875,0.030670166015625
1772461209429674000,8.597674072265624,-0.99163818359375,-0.0126495361328125,0.028106689453125
1772461209439722000,8.607721923828125,-0.9402618408203125,-0.012786865234375,0.0259857177734375
1772461209449771000,8.61777099609375,-0.9911041259765625,-0.0122222900390625,0.03045654296875
1772461209459819000,8.627819091796875,-1.0478973388671875,-0.011474609375,0.0324554443359375
1772461209469868000,8.637867919921876,-1.0259552001953125,-0.010833740234375,0.029632568359375
1772461209479915800,8.647915771484374,-0.9759521484375,-0.0108184814453125,0.0251617431640625
1772461209489965000,8.657965087890625,-0.9755096435546875,-0.012176513671875,0.0244903564453125
1772461209500012800,8.6680126953125,-1.0151519775390625,-0.0123748779296875,0.0269012451171875
1772461209510062000,8.67806201171875,-1.0268096923828125,-0.0106048583984375,0.0297088623046875
1772461209520109800,8.68810986328125,-1.0018310546875,-0.00921630859375,0.031158447265625
1772461209530159000,8.6981591796875,-0.9836578369140625,-0.0113372802734375,0.028167724609375
1772461209540206800,8.708206787109376,-0.9988250732421875,-0.0127105712890625,0.0253448486328125
1772461209550255000,8.718255126953125,-1.017669677734375,-0.0128936767578125,0.0273590087890625
1772461209560303900,8.728303955078125,-1.0131072998046875,-0.0125579833984375,0.029541015625
1772461209570352000,8.73835205078125,-0.9951019287109375,-0.0118255615234375,0.0289764404296875
1772461209580401000,8.74840087890625,-0.9936065673828125,-0.01214599609375,0.0275115966796875
1772461209590449000,8.758448974609376,-1.0074920654296875,-0.0129852294921875,0.0291290283203125
1772461209600498000,8.768497802734375,-1.0122833251953125,-0.0108489990234375,0.0304107666015625
1772461209610546000,8.7785458984375,-1.0022125244140625,-0.011199951171875,0.0281524658203125
1772461209620595000,8.788594970703125,-0.9946136474609375,-0.0126800537109375,0.0267333984375
1772461209630643000,8.798642822265625,-1.0005645751953125,-0.0118408203125,0.026153564453125
1772461209640692000,8.80869189453125,-1.00860595703125,-0.010986328125,0.028900146484375
1772461209650740000,8.818739990234375,-1.0064849853515625,-0.0100250244140625,0.030120849609375
1772461209660789000,8.8287890625,-0.99993896484375,-0.0115814208984375,0.028472900390625
1772461209670837000,8.8388369140625,-0.9987030029296875,-0.0130615234375,0.0279693603515625
1772461209680885000,8.848885009765626,-1.0044097900390625,-0.0133209228515625,0.0287628173828125
1772461209690934000,8.85893408203125,-1.0064239501953125,-0.01177978515625,0.0298309326171875
1772461209700982000,8.86898193359375,-1.0055999755859375,-0.0109100341796875,0.0297393798828125
1772461209711031000,8.879031005859375,-0.99969482421875,-0.0119476318359375,0.028350830078125
1772461209721078800,8.889078857421875,-1.000030517578125,-0.0119476318359375,0.02789306640625
1772461209731128000,8.899128173828124,-1.0040130615234375,-0.0110015869140625,0.0287322998046875
1772461209741175800,8.90917578125,-1.0057220458984375,-0.0106353759765625,0.0291900634765625
1772461209751225000,8.91922509765625,-1.0027618408203125,-0.0125732421875,0.02752685546875
1772461209761272800,8.92927294921875,-1.000457763671875,-0.0126495361328125,0.0276641845703125
1772461209771322000,8.939322021484376,-1.0018157958984375,-0.0100250244140625,0.0286865234375
1772461209781369900,8.949369873046875,-1.0052032470703125,-0.0115814208984375,0.0297393798828125
1772461209791419100,8.959419189453126,-1.0047760009765625,-0.01251220703125,0.0291290283203125
1772461209801467000,8.969466796875,-1.0035858154296875,-0.01287841796875,0.027313232421875
1772461209811515100,8.97951513671875,-1.002655029296875,-0.0117645263671875,0.0285186767578125
1772461209821564000,8.98956396484375,-1.0021209716796875,-0.0117950439453125,0.0290374755859375
1772461209831612000,8.99961181640625,-1.002716064453125,-0.011566162109375,0.028564453125
1772461209841661000,9.009660888671876,-1.0025482177734375,-0.01123046875,0.0279541015625
1772461209851709000,9.019708984375,-1.0024871826171875,-0.0110931396484375,0.028472900390625
1772461209861758000,9.029758056640626,-1.0022735595703125,-0.010894775390625,0.028778076171875
1772461209871806000,9.039805908203125,-1.0036468505859375,-0.011474609375,0.02728271484375
1772461209881855000,9.04985498046875,-1.0036468505859375,-0.01373291015625,0.02789306640625
1772461209891903000,9.059903076171874,-1.0025482177734375,-0.01324462890625,0.0284271240234375
1772461209901952000,9.069951904296875,-1.001800537109375,-0.0116424560546875,0.0284271240234375
1772461209912000000,9.08,-1.0035858154296875,-0.0113677978515625,0.0294952392578125
1772461209922049000,9.090049072265625,-1.00341796875,-0.01129150390625,0.0277099609375
1772461209932097000,9.100096923828126,-1.0032196044921875,-0.0119781494140625,0.027099609375
1772461209942146000,9.11014599609375,-1.0026092529296875,-0.0113067626953125,0.0286712646484375
1772461209952194000,9.120194091796876,-1.0030975341796875,-0.010986328125,0.0286712646484375
1772461209962241800,9.13024169921875,-1.00299072265625,-0.0112152099609375,0.0286865234375
1772461209972291000,9.140291015625,-1.003509521484375,-0.01129150390625,0.028289794921875
1772461209982338800,9.1503388671875,-1.002838134765625,-0.011962890625,0.0290985107421875
1772461209992388000,9.16038818359375,-1.00341796875,-0.0127105712890625,0.0284881591796875
1772461210002435800,9.170435791015626,-1.0027313232421875,-0.012847900390625,0.028289794921875
1772461210012485000,9.180485107421875,-1.001708984375,-0.013214111328125,0.02740478515625
1772461210022532900,9.190532958984376,-1.001861572265625,-0.0118255615234375,0.027496337890625
1772461210032582100,9.20058203125,-1.0040435791015625,-0.0107574462890625,0.028900146484375
1772461210042630000,9.2106298828125,-1.00408935546875,-0.01129150390625,0.028839111328125
1772461210052679200,9.22067919921875,-1.0030517578125,-0.0117645263671875,0.0284881591796875
1772461210062727000,9.230726806640625,-1.0024566650390625,-0.012939453125,0.027496337890625
1772461210072776200,9.240776123046874,-1.0028533935546875,-0.0128631591796875,0.0286407470703125
1772461210082824000,9.250823974609375,-1.002593994140625,-0.0117645263671875,0.0286865234375
1772461210092872000,9.260871826171876,-1.0029144287109375,-0.012115478515625,0.027984619140625
1772461210102921000,9.2709208984375,-1.003265380859375,-0.013031005859375,0.028228759765625
1772461210112969000,9.280968994140625,-1.00213623046875,-0.01177978515625,0.02880859375
1772461210123018000,9.29101806640625,-1.003143310546875,-0.0116424560546875,0.028717041015625
1772461210133066000,9.30106591796875,-1.0046234130859375,-0.0115814208984375,0.0286407470703125
1772461210143115000,9.311114990234374,-1.0035552978515625,-0.0117950439453125,0.0283660888671875
1772461210153163000,9.3211630859375,-1.0016021728515625,-0.0108489990234375,0.0282440185546875
1772461210163212000,9.3312119140625,-1.0022735595703125,-0.0113677978515625,0.0281219482421875
1772461210173260800,9.3412607421875,-1.0040130615234375,-0.0121307373046875,0.028167724609375
1772461210183309800,9.351309814453124,-1.003570556640625,-0.01220703125,0.0284881591796875
1772461210193357800,9.36135791015625,-1.0028839111328125,-0.0123138427734375,0.0290069580078125
1772461210203405800,9.37140576171875,-1.003082275390625,-0.011444091796875,0.028564453125
1772461210213454800,9.381454833984375,-1.002593994140625,-0.0119781494140625,0.02899169921875
1772461210223502800,9.3915029296875,-1.0017547607421875,-0.011810302734375,0.028106689453125
1772461210233551600,9.401551513671874,-1.002471923828125,-0.011138916015625,0.028045654296875
1772461210243600000,9.411599853515625,-1.0032806396484375,-0.0121002197265625,0.028656005859375
1772461210253648600,9.421648681640624,-1.0028228759765625,-0.0131988525390625,0.02850341796875
1772461210263697000,9.43169677734375,-1.0032196044921875,-0.011993408203125,0.0283050537109375
1772461210273745700,9.44174560546875,-1.002532958984375,-0.0126495361328125,0.0282135009765625
1772461210283794000,9.4517939453125,-1.0025787353515625,-0.01202392578125,0.028778076171875
1772461210293842700,9.4618427734375,-1.0017852783203125,-0.012054443359375,0.028656005859375
1772461210303890700,9.471890625,-1.0030975341796875,-0.012054443359375,0.0285491943359375
1772461210313939700,9.481939697265625,-1.0045623779296875,-0.01239013671875,0.028472900390625
1772461210323987700,9.49198779296875,-1.0023040771484375,-0.0121612548828125,0.028228759765625
1772461210334036700,9.50203662109375,-1.002685546875,-0.0116424560546875,0.0293731689453125
1772461210344084700,9.512084716796876,-1.004119873046875,-0.0112457275390625,0.0291748046875
1772461210354133000,9.522133056640625,-1.0035400390625,-0.0120391845703125,0.028564453125
1772461210364181800,9.532181640625,-1.0040435791015625,-0.01171875,0.0284423828125
1772461210374230000,9.54222998046875,-1.00244140625,-0.0111541748046875,0.028839111328125
1772461210384278800,9.55227880859375,-1.00225830078125,-0.0113372802734375,0.028167724609375
1772461210394327000,9.5623271484375,-1.0038909912109375,-0.011322021484375,0.028106689453125
1772461210404375800,9.572375732421875,-1.003570556640625,-0.011322021484375,0.0291595458984375
1772461210414423800,9.582423828125,-1.00341796875,-0.01165771484375,0.02874755859375
1772461210424472800,9.592472900390625,-1,-0.0118865966796875,0.028472900390625
1772461210434520800,9.602520751953126,-1.0010528564453125,-0.0111846923828125,0.028228759765625
1772461210444569900,9.61256982421875,-1.0026702880859375,-0.0113067626953125,0.0293731689453125
1772461210454617900,9.622617919921876,-1.00537109375,-0.011688232421875,0.02978515625
1772461210464667000,9.6326669921875,-1.0054931640625,-0.01177978515625,0.0291748046875
1772461210474715000,9.64271484375,-1.00128173828125,-0.012725830078125,0.02777099609375
1772461210484764000,9.652763916015624,-1.0003204345703125,-0.0115509033203125,0.0280303955078125
1772461210494811600,9.662811767578125,-1.0023193359375,-0.0116424560546875,0.0277099609375
1772461210504860000,9.67285986328125,-1.0054931640625,-0.011444091796875,0.0284881591796875
1772461210514908700,9.68290869140625,-1.00439453125,-0.0110626220703125,0.029022216796875
1772461210524956700,9.692956787109376,-1.001190185546875,-0.011810302734375,0.028961181640625
1772461210535005700,9.703005615234375,-1.0014495849609375,-0.0116729736328125,0.0290069580078125
1772461210545053700,9.7130537109375,-1.0032958984375,-0.0113983154296875,0.030181884765625
