time,seconds_elapsed,z,y,x
1772461200924947500,0.092947509765625,0.0003266911953687668,0.002926279790699482,0.0006678067147731781
1772461200934996500,0.10299658203125,0.0017333379946649075,-0.0005960338748991489,0.0004683299921452999
1772461200945044500,0.11304443359375,-0.0004421984776854515,-0.002167298924177885,0.002006571739912033
1772461200955092500,0.123092529296875,0.0012064026668667793,0.0009412337094545364,-0.0005923121934756637
1772461200965141500,0.1331416015625,-0.0007054805755615234,0.0006924942135810852,0.0013206363655626774
1772461200975189500,0.143189453125,0.0006583239883184433,0.0005337698385119438,-0.0003251971211284399
1772461200985238500,0.153238525390625,0.00106019526720047,-0.0009908895008265972,0.003341975621879101
1772461200995286500,0.16328662109375,0.0000428883358836174,0.00001718848943710327,0.0014037990476936102
1772461201005334300,0.173334228515625,-0.0008593909442424774,-0.00033008772879838943,0.0003289473243057728
1772461201015383600,0.183383544921875,0.0005865213461220264,-0.0023053339682519436,-0.002010883064940572
1772461201025431300,0.193431396484375,-0.0006683599203824997,0.0021701077930629253,0.0011889049783349037
1772461201035479600,0.2034794921875,0.0007127728313207626,-0.00011574244126677513,0.00017284112982451916
1772461201045528300,0.2135283203125,0.00045311450958251953,0.0009250212460756302,0.0001829611137509346
1772461201055576600,0.22357666015625,-0.002100486308336258,-0.0003762426786124706,0.00023965630680322647
1772461201065624600,0.23362451171875,0.0007504275999963284,0.0012352359481155872,-0.0009939197916537523
1772461201075673600,0.243673583984375,0.000912264920771122,-0.0002453667111694813,0.001035511028021574
1772461201085721600,0.2537216796875,0.0018603503704071045,-0.00040196068584918976,0.00005892966873943806
1772461201095769300,0.263769287109375,0.0004345560446381569,0.0009251730516552925,-0.0008616335690021515
1772461201105818600,0.273818603515625,0.000024695880711078644,-0.0001989472657442093,0.00009577278979122639
1772461201115866400,0.283866455078125,-0.001226562075316906,-0.0020932103507220745,0.0024958441499620676
1772461201125914600,0.29391455078125,0.0006352541968226433,-0.00110278045758605,0.000807666452601552
1772461201135963400,0.30396337890625,0.00018108543008565903,-0.0009205820970237255,-0.001539332326501608
1772461201146011600,0.31401171875,0.00010145734995603561,-0.001323518343269825,-0.0015433270018547773
1772461201156059400,0.324059326171875,0.0008571804501116276,0.0014590644277632236,-0.0011535881785675883
1772461201166107400,0.334107421875,0.00017168279737234116,-0.00018250802531838417,0.0018880083225667477
1772461201176155400,0.3441552734375,0.0007762191817164421,0.0009782323613762856,0.00022126082330942154
1772461201186204400,0.354204345703125,0.0012499955482780933,0.00015584798529744148,0.0010361880995333195
1772461201196252400,0.36425244140625,0.0001832563430070877,0.00013910047709941864,-0.0010535514447838068
1772461201206300200,0.374300048828125,0.000015476718544960022,-0.000014564022421836853,0.0007360926829278469
1772461201216349400,0.384349365234375,-0.0008195871487259865,0.0036834594793617725,-0.001221110811457038
1772461201226397200,0.394397216796875,0.0003705797716975212,-0.00029077567160129547,-0.00177478208206594
1772461201236445400,0.404445556640625,0.0010969876311719418,-0.0015622610226273537,0.0009761678520590067
1772461201246494200,0.414494140625,-0.0018980028107762337,0.0013198121450841427,-0.00007338402792811394
1772461201256542500,0.42454248046875,0.0023978794924914837,-0.0010118670761585236,0.0021758463699370623
1772461201266590500,0.434590576171875,-0.0008735470473766327,0.0011852411553263664,0.0020615968387573957
1772461201276639500,0.444639404296875,-0.0011981287971138954,-0.00047209160402417183,-0.0013662218116223812
1772461201286687500,0.4546875,-0.0020657870918512344,0.0012967796064913273,0.002550222910940647
1772461201296735200,0.4647353515625,-0.00029717758297920227,-0.00007634935900568962,0.0031009798403829336
1772461201306784500,0.474784423828125,-0.000023138709366321564,0.00042432500049471855,-0.00029002316296100616
1772461201316832300,0.484832275390625,-0.00039096176624298096,-0.0003939419984817505,-0.0005021557444706559
1772461201326881500,0.494881591796875,-0.0006080102175474167,-0.00004746485501527786,0.0001729554496705532
1772461201336929300,0.50492919921875,-0.001790519803762436,0.0003806944005191326,-0.00017838855274021626
1772461201346977300,0.514977294921875,0.0008294982835650444,-0.000587098766118288,-0.0009435147512704134
1772461201357026300,0.5250263671875,-0.0025208350270986557,-0.0014682314358651638,-0.0006744366837665439
1772461201367074300,0.53507421875,-0.0009727394208312035,-0.000836795661598444,-0.0008760379860177636
1772461201377122300,0.545122314453125,-0.000650293193757534,-0.00001662224531173706,0.0005438853986561298
1772461201387171300,0.55517138671875,-0.0005440330132842064,0.0024795588105916977,0.002278135623782873
1772461201397219300,0.56521923828125,-0.0006961273029446602,0.00021833647042512894,0.0014723357744514942
1772461201407267300,0.575267333984375,0.0004940396174788475,-0.0008013877086341381,0.00004647928290069103
1772461201417316400,0.58531640625,0.0007646046578884125,0.0012614177539944649,0.002114064060151577
1772461201427364400,0.5953642578125,-0.0002564508467912674,0.001133585348725319,0.0019899606704711914
1772461201437412400,0.605412353515625,0.001220084261149168,-0.000750445295125246,-0.0004815530264750123
1772461201447461400,0.61546142578125,-0.0007935315370559692,0.0005755424499511719,0.000186101533472538
1772461201457509400,0.62550927734375,0.0008797324262559414,-0.0011853394098579884,0.002461239928379655
1772461201467558400,0.635558349609375,0.00011753570288419724,-0.001531283836811781,-0.00019393162801861763
1772461201477606400,0.6456064453125,0.0002723904326558113,0.00035053398460149765,-0.0011499810498207808
1772461201487654400,0.655654296875,-0.0005712993443012238,0.0001566559076309204,-0.002340680453926325
1772461201497703400,0.665703369140625,-0.0008230078965425491,0.00027875136584043503,-0.00046862312592566013
1772461201507751400,0.67575146484375,0.00007474329322576523,-0.0032121199183166027,-0.003055617678910494
1772461201517799400,0.68579931640625,0.000686220359057188,0.002357825171202421,-0.002778166439384222
1772461201527848200,0.69584814453125,-0.0007148683071136475,-0.00036126282066106796,-0.00035682041198015213
1772461201537896400,0.705896484375,-0.0006542885676026344,-0.0006017186678946018,0.0009795785881578922
1772461201547944200,0.715944091796875,0.0023553501814603806,-0.0022928258404135704,-0.00125294947065413
1772461201557993500,0.725993408203125,0.002061461564153433,0.00016290415078401566,0.002297069411724806
1772461201568041200,0.736041259765625,-0.0004091523587703705,0.00501971086487174,0.008076395839452744
1772461201578089200,0.746089111328125,0.00020984094589948654,0.004406013526022434,0.006042973604053259
1772461201588138200,0.75613818359375,0.002069260459393263,-0.0029254029504954815,0.0014812450390309095
1772461201598186200,0.766186279296875,0.0009110704995691776,-0.008594402112066746,-0.005334244109690189
1772461201608235300,0.7762353515625,0.0016684732399880886,-0.0004890710115432739,0.00020433170720934868
1772461201618283300,0.786283203125,0.0005549266934394836,0.006579467561095953,-0.0006428438937291503
1772461201628331500,0.79633154296875,-0.00008396618068218231,0.004978907760232687,0.004455511458218098
1772461201638380300,0.80638037109375,-0.00005584303289651871,0.0014792941510677338,0.0013897295575588942
1772461201648428500,0.816428466796875,0.0012256698682904243,-0.0005689430981874466,0.0019082468934357166
1772461201658476300,0.826476318359375,0.0004293043166399002,0.003533367533236742,0.000043476931750774384
1772461201668525600,0.836525634765625,0.00008469168096780777,0.0016092336736619473,0.0030797466170042753
1772461201678573300,0.8465732421875,0.001967733260244131,0.0016409014351665974,0.0014714396093040705
1772461201688621300,0.856621337890625,0.001222048420459032,0.001261401455849409,0.004188130609691143
1772461201698670300,0.86667041015625,-0.002255546860396862,0.0036003109999001026,0.0025594623293727636
1772461201708718300,0.87671826171875,0.0018830057233572006,0.0023409021086990833,0.00324336183257401
1772461201718767400,0.886767333984375,0.0023205424658954144,0.0010595829226076603,0.0013985172845423222
1772461201728815400,0.8968154296875,-0.0008712559938430786,0.0017719785682857037,0.0008826630655676126
1772461201738863400,0.90686328125,0.0007434017024934292,-0.0010804752819240093,0.005040174350142479
1772461201748912400,0.916912353515625,0.0004930645227432251,0.0005507105961441994,0.0043946243822574615
1772461201758960000,0.926960205078125,0.00031872931867837906,0.0028323340229690075,0.001590411877259612
1772461201769008400,0.93700830078125,-0.0008061900734901428,0.0005337591283023357,0.004464761354029179
1772461201779057200,0.94705712890625,-0.00040957052260637283,0.0003775935620069504,0.0013756630942225456
1772461201789105400,0.95710546875,-0.0018644556403160095,0.002619975246489048,0.0019311986397951841
1772461201799153400,0.9671533203125,-0.001945297233760357,0.0013189231976866722,-0.00031793746165931225
1772461201809202400,0.977202392578125,0.001287780236452818,-0.001831596251577139,0.00048473943024873734
1772461201819250400,0.98725048828125,-0.0025262832641601562,0.003566534724086523,0.0017690868116915226
1772461201829299500,0.997299560546875,-0.0006024148315191269,0.00023145833984017372,-0.0014733118005096912
1772461201839347500,1.007347412109375,0.0003348523750901222,-0.0006714849732816219,0.0014043545816093683
1772461201849395200,1.017395263671875,-0.0001857951283454895,0.003600225318223238,-0.00013122404925525188
1772461201859444500,1.027444580078125,0.0008329511620104313,0.0022090966813266277,0.003155503189191222
1772461201869492200,1.0374921875,-0.0006983662024140358,0.0008436939679086208,0.0010135227348655462
1772461201879540500,1.04754052734375,0.00014422833919525146,-0.0010141478851437569,0.002467050449922681
1772461201889589200,1.05758935546875,0.00024915672838687897,0.0017901607789099216,0.001922966679558158
1772461201899637500,1.067637451171875,0.000004949048161506653,0.0019660587422549725,0.00043118628673255444
1772461201909685200,1.077685302734375,0.000982861965894699,0.0005263541825115681,-0.0006761560216546059
1772461201919734300,1.087734375,0.0009392998181283474,0.00001692958176136017,0.004661131650209427
1772461201929782300,1.0977822265625,0.0009363703429698944,-0.0005420679226517677,0.001101018162444234
1772461201939831300,1.107831298828125,0.0002676593139767647,0.0025466172955930233,0.0002857793588191271
1772461201949879300,1.11787939453125,0.0012365169823169708,0.001978564541786909,-0.0017440819647163153
1772461201959927300,1.12792724609375,0.0009189415723085403,-0.00009855302050709724,0.0012470562942326069
1772461201969976300,1.137976318359375,-0.0013844268396496773,0.0017912262119352818,0.002226833486929536
1772461201980024300,1.1480244140625,-0.00003898795694112778,0.001994640100747347,0.0011836260091513395
1772461201990072300,1.158072265625,-0.0009106406942009926,0.0013123382814228535,0.0006834843661636114
1772461202000121300,1.168121337890625,0.0004811142571270466,0.0005835783667862415,-0.0002652502153068781
1772461202010169300,1.17816943359375,-0.000957791693508625,0.0010155434720218182,-0.0014713959535583854
1772461202020217300,1.18821728515625,0.0000010291114449501038,0.0023619644343852997,-0.0004134002374485135
1772461202030266400,1.198266357421875,0.000822081696242094,-0.0002913428470492363,-0.001438717357814312
1772461202040314400,1.208314453125,0.00018251687288284302,0.0009060408920049667,0.0002465553116053343
1772461202050363400,1.21836328125,0.00019583292305469513,0.0018328214064240456,-0.0010048641124740243
1772461202060411400,1.228411376953125,-0.0031455354765057564,-0.0005942890420556068,0.002360136481001973
1772461202070459400,1.23845947265625,-0.0005457578226923943,-0.000842229463160038,0.0012330866884440184
1772461202080508200,1.248508056640625,-0.0024954676628112793,0.00009854137897491455,0.001185829285532236
1772461202090556400,1.258556396484375,0.0019394946284592152,0.0010290504433214664,0.0015373665373772383
1772461202100604400,1.2686044921875,0.0008967616595327854,-0.001919260248541832,-0.0002087913453578949
1772461202110653400,1.2786533203125,-0.0000707646831870079,-0.0012920857407152653,0.000766990939155221
1772461202120701400,1.288701416015625,-0.0009749121963977814,0.00039720581844449043,0.0014352207072079182
1772461202130749400,1.29874951171875,-0.0004872875288128853,0.0007271715439856052,0.0006919323932379484
1772461202140798200,1.308798095703125,0.00033988431096076965,0.0013588727451860905,-0.0011887876316905022
1772461202150846200,1.31884619140625,0.0009444216266274452,0.000007584225386381149,-0.000989316962659359
1772461202160895200,1.328895263671875,-0.00009712111204862595,-0.0012837094254791737,-0.00026805978268384933
1772461202170943500,1.338943603515625,-0.00011682789772748947,0.0007293745875358582,-0.0002989524509757757
1772461202180991700,1.34899169921875,0.0015831892378628254,0.0009672669693827629,-0.0006192625733092427
1772461202191040500,1.35904052734375,-0.0006938129663467407,0.00026818690821528435,-0.0008152712834998965
1772461202201088800,1.3690888671875,-0.000024947337806224823,-0.00040229829028248787,0.0007241326384246349
1772461202211136500,1.379136474609375,0.0000903671607375145,0.001833958551287651,-0.0011717717861756682
1772461202221185800,1.389185791015625,0.0005660722963511944,-0.0016037258319556713,-0.0016864110948517919
1772461202231233500,1.399233642578125,-0.0010065240785479546,-0.000334995798766613,-0.0011596378171816468
1772461202241282800,1.40928271484375,-0.00009476114064455032,-0.0006482345052063465,-0.0005266583757475019
1772461202251330600,1.41933056640625,0.0013007353991270065,0.00044286251068115234,-0.001347977202385664
1772461202261378600,1.429378662109375,0.0004552607424557209,0.0013137399218976498,-0.002739454386755824
1772461202271427600,1.439427490234375,0.0008344948291778564,0.0006189211271703243,-0.0003636484034359455
1772461202281475600,1.4494755859375,0.0007715914398431778,-0.0010982835665345192,-0.0007335579721257091
1772461202291523600,1.459523681640625,-0.00045372918248176575,-0.0010487488470971584,-0.0017554129008203745
1772461202301572600,1.469572509765625,0.00009480491280555725,-0.0008889841847121716,-0.002689674962311983
1772461202311620600,1.47962060546875,-0.0014626123011112213,-0.0008370527066290379,-0.0010752668604254723
1772461202321669600,1.489669677734375,0.0007049739360809326,-0.000699047464877367,-0.0022542024962604046
1772461202331717400,1.49971728515625,-0.00022952910512685776,0.00039817439392209053,-0.0012286192504689097
1772461202341765600,1.509765625,-0.0018914779648184776,0.000165530014783144,-0.0017534061335027218
1772461202351814400,1.519814453125,0.0012446609325706959,-0.002013468649238348,0.0005584838800132275
1772461202361862700,1.529862548828125,0.000049192458391189575,0.0006020502187311649,0.001779572805389762
1772461202371910700,1.53991064453125,-0.0006640022620558739,-0.0003369799815118313,0.0012831597123295069
1772461202381959700,1.549959716796875,0.00006353389471769333,-0.0006066383793950081,-0.0011801441432908177
1772461202392007700,1.560007568359375,-0.000575624406337738,-0.0005595004186034203,0.0003093618433922529
1772461202402056700,1.570056640625,0.001439682673662901,0.00026214634999632835,0.0016836125869303942
1772461202412104700,1.580104736328125,0.0011872146278619766,0.003618262242525816,-0.003205951303243637
1772461202422152400,1.59015234375,-0.0008525783196091652,-0.001149805262684822,-0.0005038511008024216
1772461202432201700,1.60020166015625,-0.0012760208919644356,-0.0016739154234528542,-0.0011549938935786486
1772461202442249500,1.61024951171875,-0.00023670122027397156,-0.000032158102840185165,0.00022594747133553028
1772461202452297700,1.620297607421875,-0.0008241944015026093,-0.0025789388455450535,-0.0014292070409283042
1772461202462346500,1.630346435546875,-0.00016292836517095566,-0.0016591260209679604,0.0019969071727246046
1772461202472394800,1.640394775390625,-0.0005456246435642242,-0.0012591192498803139,-0.002785863820463419
1772461202482443500,1.650443603515625,0.00030567310750484467,-0.003110188990831375,0.0007407877128571272
1772461202492491500,1.660491455078125,0.0010873107239603996,-0.0013053645379841328,0.001347189536318183
1772461202502539500,1.67053955078125,-0.000367041677236557,0.0016712509095668793,-0.001990550197660923
1772461202512588500,1.680588623046875,-0.0008605252951383591,0.0011498034000396729,0.00007925857789814472
1772461202522636500,1.690636474609375,-0.0014180196449160576,0.0008183661848306656,-0.001018370734527707
1772461202532684500,1.7006845703125,0.0013900171034038067,0.000940338708460331,0.00170950498431921
1772461202542733600,1.710733642578125,0.003739078063517809,-0.0019704028964042664,-0.0009146805386990309
1772461202552781600,1.720781494140625,0.00105301383882761,0.0009745205752551556,0.0006635086610913277
1772461202562830600,1.73083056640625,-0.0014549624174833298,-0.0017456980422139168,-0.00029529561288654804
1772461202572878600,1.740878662109375,0.00030884891748428345,-0.0014599408023059368,0.0011137828696519136
1772461202582926600,1.750926513671875,-0.0030291806906461716,-0.0004007886163890362,0.0004570591263473034
1772461202592975600,1.7609755859375,-0.0019087893888354301,0.00005248142406344414,-0.001224993378855288
1772461202603023600,1.771023681640625,-0.0002782074734568596,0.0009704018011689186,-0.0031494637951254845
1772461202613072600,1.78107275390625,0.0023793610744178295,0.0006726598367094994,0.000589081784710288
1772461202623120600,1.79112060546875,-0.0008303364738821983,-0.0008863499388098717,-0.0010554151376709342
1772461202633168600,1.801168701171875,0.00023838970810174942,0.0005616103298962116,-0.0007286452455446124
1772461202643217700,1.8112177734375,-0.0014843130484223366,-0.0014974451623857021,0.00006374460645020008
1772461202653265700,1.821265625,-0.00019188132137060165,0.0002692956477403641,0.0013694926165044308
1772461202663313700,1.831313720703125,0.0005100136622786522,0.000701886136084795,0.0014782431535422802
1772461202673362400,1.841362548828125,0.0003555500879883766,-0.002759690396487713,0.0012353628408163786
1772461202683410700,1.85141064453125,0.0019069751724600792,-0.0007255882956087589,-0.00048212986439466476
1772461202693459500,1.86145947265625,-0.0018696533516049385,0.001447018701583147,0.0006806063465774059
1772461202703507700,1.8715078125,-0.00027744751423597336,-0.00008302461355924606,-0.00035382271744310856
1772461202713555500,1.881555419921875,0.0021415017545223236,-0.0012196614407002926,-0.001075006672181189
1772461202723604700,1.891604736328125,-0.00018166564404964447,0.0017405659891664982,-0.0010535770561546087
1772461202733652500,1.901652587890625,0.00039916951209306717,-0.0013974369503557682,-0.0017997948452830315
1772461202743700500,1.911700439453125,0.0005778479389846325,0.0007628463208675385,-0.0012065155897289515
1772461202753749500,1.92174951171875,0.00018236879259347916,-0.000008405186235904694,0.00013065757229924202
1772461202763797500,1.931797607421875,-0.001115105114877224,-0.00046563614159822464,-0.0011284525971859694
1772461202773846500,1.941846435546875,0.0017382060177624226,0.0021690288558602333,0.0013344387989491224
1772461202783894500,1.95189453125,-0.0007981881499290466,0.002293931320309639,0.002689721528440714
1772461202793942800,1.96194287109375,-0.000168616883456707,-0.00018573785200715065,0.0007125905249267817
1772461202803991600,1.971991455078125,0.0005589397624135017,0.00034176092594861984,-0.00030773947946727276
1772461202814039800,1.982039794921875,0.00045294594019651413,-0.0020572147332131863,-0.0007492915028706193
1772461202824088600,1.992088623046875,0.00038301944732666016,0.0011955169029533863,-0.0010793103137984872
1772461202834136600,2.002136474609375,0.0009920843876898289,0.0016336063854396343,-0.0008846331620588899
1772461202844184600,2.0121845703125,0.00025653839111328125,-0.0012886072508990765,-0.0024060241412371397
1772461202854233600,2.022233642578125,0.001136979553848505,-0.00063373614102602,-0.0013010784750804305
1772461202864281600,2.032281494140625,0.001857114490121603,-0.00025712838396430016,-0.0010381905594840646
1772461202874329600,2.04232958984375,0.002415579278022051,-0.001313870307058096,-0.0013061045901849866
1772461202884378600,2.052378662109375,-0.000047312118113040924,0.0038739675655961037,-0.001066153752617538
1772461202894426600,2.062426513671875,0.00009569991379976273,0.0011564772576093674,-0.0009503061883151531
1772461202904475600,2.0724755859375,0.000032300129532814026,-0.0027594715356826782,0.0028987263794988394
1772461202914523600,2.082523681640625,-0.00014133751392364502,0.00003764685243368149,-0.001505076652392745
1772461202924571400,2.0925712890625,-0.0008120555430650711,-0.0026678377762436867,0.0006342614069581032
1772461202934620700,2.10262060546875,-0.0010546697303652763,-0.0004603434354066849,0.0006584960501641035
1772461202944668400,2.11266845703125,0.0005177753046154976,0.001211229246109724,0.0011476250365376472
1772461202954717700,2.1227177734375,0.000950805377215147,-0.0015707090497016907,0.00021791551262140274
1772461202964765400,2.132765380859375,0.0007588863372802734,-0.002017221413552761,0.0020558624528348446
1772461202974813700,2.142813720703125,0.0006201355718076229,0.0015362347476184368,-0.00031701382249593735
1772461202984862500,2.152862548828125,0.0023363218642771244,-0.0021739881485700607,-0.0003636700566858053
1772461202994910700,2.16291064453125,-0.0006099333986639977,0.0004697320982813835,-0.00174531782977283
1772461203004958700,2.172958740234375,0.0010759346187114716,-0.00007324200123548508,-0.002427811035886407
1772461203015007500,2.183007568359375,-0.0002423301339149475,-0.002493523061275482,-0.0001393565908074379
1772461203025055700,2.1930556640625,-0.0003608446568250656,0.0008070417679846287,0.0007791612297296524
1772461203035104500,2.2031044921875,-0.001147010363638401,0.00303903641179204,0.0011828963179141283
1772461203045152800,2.21315283203125,0.0008560786955058575,-0.00026591308414936066,-0.0011888013686984777
1772461203055200500,2.223200439453125,-0.0009269071742892265,0.0006416919641196728,0.0008256137371063232
1772461203065249800,2.233249755859375,-0.0010362854227423668,0.0010199816897511482,-0.0008630235679447651
1772461203075297500,2.243297607421875,0.0011914484202861786,0.002589914947748184,-0.00045422837138175964
1772461203085346800,2.253346923828125,0.0007814695127308369,-0.0010086921975016594,-0.001320873387157917
1772461203095394600,2.26339453125,0.0011761500500142574,-0.002463577315211296,0.0031705477740615606
1772461203105442600,2.273442626953125,0.0004784264601767063,-0.00045089516788721085,0.0032870620489120483
1772461203115491600,2.28349169921875,0.0013085338287055492,0.002437036484479904,-0.0014043627306818962
1772461203125539600,2.29353955078125,0.001039417926222086,-0.0005770535208284855,0.0005892293993383646
1772461203135588600,2.303588623046875,-0.0008458336815237999,-0.0003072754479944706,0.0003202499356120825
1772461203145636600,2.31363671875,-0.0017669135704636574,-0.003502476494759321,0.0012375658843666315
1772461203155684600,2.3236845703125,-0.000567425973713398,-0.0005772607401013374,0.0016085440292954445
1772461203165734000,2.33373388671875,0.0007388358935713768,0.00030444609001278877,0.0013317337725311518
1772461203175782000,2.343781982421875,0.00005307141691446304,-0.0012202137149870396,0.0008297278545796871
1772461203185830000,2.353829833984375,-0.0016920575872063637,0.002198874019086361,0.0005204728804528713
1772461203195879000,2.36387890625,0.00014792010188102722,-0.0000720038078725338,0.0007239384576678276
1772461203205927000,2.373927001953125,0.0007632221095263958,0.0009452067315578461,0.0014993518125265837
1772461203215976000,2.383975830078125,-0.0005334708839654922,0.00022428855299949646,-0.00001598685048520565
1772461203226024000,2.39402392578125,-0.0007453970611095428,0.0007508215494453907,0.001961011905223131
1772461203236072000,2.404072021484375,-0.0008532553911209106,-0.0002744956873357296,0.0013793776743113995
1772461203246121000,2.414120849609375,0.0008319960907101631,0.0037152422592043877,-0.0004456151509657502
1772461203256169000,2.4241689453125,-0.00021862145513296127,-0.002744254656136036,0.00032590259797871113
1772461203266218000,2.434218017578125,-0.0007737055420875549,-0.0002430337481200695,-0.0017484885174781084
1772461203276266000,2.444265869140625,0.0021035741083323956,-0.0001727263443171978,-0.0009178485488519073
1772461203286314000,2.45431396484375,0.0006789509207010269,-0.00221918523311615,-0.002486421726644039
1772461203296362800,2.46436279296875,0.0005513858050107956,0.001356375403702259,-0.0024035973474383354
1772461203306411000,2.474410888671875,-0.0017736675217747688,0.002326694317162037,-0.0012678828788921237
1772461203316459800,2.484459716796875,0.0007153227925300598,-0.0013585877604782581,-0.0014955832157284021
1772461203326508000,2.494508056640625,0.002574580255895853,-0.002137055154889822,0.002097268821671605
1772461203336556000,2.50455615234375,0.000040582381188869476,-0.0014614113606512547,-0.00026122655253857374
1772461203346604800,2.514604736328125,-0.0017412574961781502,0.0014553782530128956,0.0007533838506788015
1772461203356653000,2.524653076171875,0.0006910078227519989,0.00145244924351573,-0.0003992323763668537
1772461203366700800,2.53470068359375,-0.000340842641890049,-0.0012639053165912628,-0.0006802539573982358
1772461203376750000,2.54475,-0.0002931719645857811,0.0012570428662002087,0.0003027187194675207
1772461203386797800,2.5547978515625,-0.0017063776031136513,-0.0015771463513374329,0.002761624986305833
1772461203396847000,2.56484716796875,-0.00044776778668165207,-0.0033436212688684464,0.0006276341155171394
1772461203406894800,2.574894775390625,-0.0008940789848566055,-0.00041455868631601334,0.0015975746791809797
1772461203416942800,2.58494287109375,0.0004239194095134735,-0.0003493111580610275,-0.0020498905796557665
1772461203426991900,2.594991943359375,0.0009345021098852158,0.00034386245533823967,-0.0028166037518531084
1772461203437039900,2.605039794921875,-0.0004932181909680367,-0.0001536160707473755,-0.0010043225483968854
1772461203447089000,2.6150888671875,-0.0007878569886088371,-0.0003648079000413418,-0.0007213597418740392
1772461203457137000,2.625136962890625,0.001057713758200407,0.001262117177248001,0.00045123009476810694
1772461203467185000,2.635184814453125,-0.0011009788140654564,-0.0018122945912182331,-0.0023585183080285788
1772461203477234000,2.64523388671875,-0.00034117884933948517,0.0007049255073070526,0.00176751718390733
1772461203487282000,2.655281982421875,0.0003385618329048157,0.0004595438949763775,-0.0025817735586315393
1772461203497331000,2.6653310546875,-0.002687321975827217,0.0010001654736697674,0.0025517356116324663
1772461203507379000,2.67537890625,-0.0003488538786768913,-0.00008652545511722565,-0.00021036900579929352
1772461203517427000,2.685427001953125,-0.0005808146670460701,0.0009305360727012157,0.0022338801063597202
1772461203527475700,2.695475830078125,-0.001927914097905159,-0.0015958212316036224,0.0005191960372030735
1772461203537524000,2.70552392578125,-0.0008376166224479675,-0.0010826298967003822,0.0003711243625730276
1772461203547572700,2.71557275390625,0.000056123360991477966,0.0036538918502628803,-0.0012929982040077448
1772461203557621000,2.72562109375,0.000020969659090042114,-0.0013957279734313488,0.00044205121230334044
1772461203567669000,2.7356689453125,0.0011490220203995705,0.001416767481714487,-0.00027453352231532335
1772461203577718000,2.745718017578125,-0.00023422390222549438,-0.0015310849994421005,-0.000791453174315393
1772461203587766000,2.75576611328125,-0.0007000155746936798,-0.00042663561180233955,-0.0021672637667506933
1772461203597815000,2.76581494140625,0.0000019939616322517395,-0.00011770892888307571,0.0000455568078905344
1772461203607863000,2.775863037109375,0.0017434782348573208,0.0008774148300290108,0.0009504437912255526
1772461203617910800,2.785910888671875,-0.0007271366193890572,0.00008885283023118973,0.00001700583379715681
1772461203627960000,2.7959599609375,-0.0018578078597784042,3.809109330177307e-7,0.00012696709018200636
1772461203638007800,2.8060078125,0.0011153449304401875,0.0007716328836977482,0.002518751658499241
1772461203648057000,2.81605712890625,0.0005111843347549438,-0.000374737661331892,0.0004573003388941288
1772461203658104800,2.826104736328125,-0.00030720513314008713,0.0024820351973176003,0.0012250898871570826
1772461203668153000,2.836153076171875,-0.0001417640596628189,0.0009654676541686058,0.0013445246731862426
1772461203678201900,2.846201904296875,-0.0009100856259465218,-0.0001759631559252739,0.0026651863008737564
1772461203688249900,2.856249755859375,-0.001346345990896225,-0.0010198457166552544,-0.002347447443753481
1772461203698299000,2.866298828125,-0.00006296858191490173,-0.002176456619054079,0.0010731167858466506
1772461203708347000,2.876346923828125,-0.001379956491291523,0.0006001116707921028,-0.0012696030316874385
1772461203718395000,2.886394775390625,0.000962293241173029,-0.00042706914246082306,-0.0006293790647760034
1772461203728444000,2.89644384765625,-0.00041744764894247055,-0.0013828398659825325,0.003337461268529296
1772461203738492000,2.906491943359375,0.0011740578338503838,0.001411881297826767,-0.00022691336926072836
1772461203748541000,2.916541015625,-0.0010216813534498215,0.0004845703952014446,-0.0020419976208359003
1772461203758589000,2.9265888671875,-0.00041581224650144577,0.0004193233326077461,0.00037721777334809303
1772461203768637000,2.936636962890625,-0.0018967827782034874,0.0010025925002992153,-0.00014532578643411398
1772461203778686000,2.94668603515625,0.0020644026808440685,-0.001564960926771164,0.0025378090795129538
1772461203788734000,2.95673388671875,-0.0010262560099363327,-0.0013014394789934158,0.00035908666905015707
1772461203798782700,2.96678271484375,-0.001683257520198822,0.0005819485522806644,0.0029836315661668777
1772461203808831000,2.9768310546875,0.00023386254906654358,0.0018699993379414082,-0.001724676345475018
1772461203818879000,2.98687890625,-0.0006694812327623367,-0.001966550014913082,0.0008852214086800814
1772461203828928000,2.996927978515625,-0.0003685206174850464,-0.0018794499337673187,0.0014629813376814127
1772461203838976000,3.00697607421875,0.0007553333416581154,-0.0012109968811273575,-0.002371704438701272
1772461203849025000,3.01702490234375,0.000917467288672924,-0.0013515106402337551,0.0008084024302661419
1772461203859073000,3.027072998046875,-0.0013350341469049454,0.0013976707123219967,-0.00022410496603697538
1772461203869120800,3.037120849609375,0.0008306708186864853,0.0011038994416594505,-0.0011620244476944208
1772461203879170000,3.047170166015625,-0.001173091121017933,0.0018067080527544022,0.0016598609508946538
1772461203889217800,3.0572177734375,0.0004985323175787926,-0.0007046107202768326,-0.0018473562086001039
1772461203899267000,3.06726708984375,0.0011760406196117401,0.0018232613801956177,-0.0007482696091756225
1772461203909314800,3.077314697265625,-0.0002030031755566597,0.001562291756272316,-0.0011071672197431326
1772461203919363000,3.087363037109375,-0.0005854330956935883,-0.003548847511410713,-0.0002879789099097252
1772461203929411800,3.097411865234375,-0.001397191546857357,0.0020769471302628517,-0.0027321570087224245
1772461203939460000,3.107460205078125,-0.0003716079518198967,0.0007701348513364792,-0.001019478077068925
1772461203949508900,3.1175087890625,-0.0030499668791890144,0.00033417344093322754,0.002197097986936569
1772461203959556900,3.127556884765625,0.0004994943737983704,0.0008468315936625004,0.0013877633027732372
1772461203969604900,3.13760498046875,-0.0006226897239685059,0.002655413933098316,0.0018802147824317217
1772461203979654000,3.14765380859375,-0.0007161665707826614,-0.0007640854455530643,0.0017225556075572968
1772461203989702000,3.157701904296875,-0.0008792392909526825,0.0004983711987733841,0.0001370767131447792
1772461203999751000,3.1677509765625,-0.001519729383289814,-0.00008779065683484077,0.0005754330195486546
1772461204009799000,3.177798828125,0.0012543555349111557,-0.0011530453339219093,-0.0001626303419470787
1772461204019847000,3.187846923828125,0.0002034725621342659,0.0013492610305547714,-0.001056387205608189
1772461204029896000,3.19789599609375,0.0015773442573845387,0.001374395564198494,-0.0019592056050896645
1772461204039944000,3.20794384765625,-0.0004748879000544548,0.0012878431007266045,-0.001038284506648779
1772461204049993000,3.217992919921875,0.0012859520502388477,0.000542433001101017,0.001324889250099659
1772461204060041000,3.228041015625,-0.00016254093497991562,-0.00010791094973683357,0.00010516145266592503
1772461204070089000,3.2380888671875,-0.0006594546139240265,0.001615237444639206,0.00034722662530839443
1772461204080138000,3.248137939453125,0.0008028876036405563,0.0023465417325496674,0.0027105160988867283
1772461204090186000,3.25818603515625,0.00002401694655418396,-0.0007353257387876511,0.0024696681648492813
1772461204100235000,3.268235107421875,-0.0011208755895495415,-0.0014884676784276962,-0.00020574347581714392
1772461204110283000,3.278282958984375,-0.0004846472293138504,0.0015888810157775879,0.0008143717423081398
1772461204120332000,3.28833203125,-0.0013861274346709251,0.0005896631628274918,-0.000291639007627964
1772461204130380000,3.298380126953125,-0.0013895509764552116,-0.0014154445379972458,-0.0015696475747972727
1772461204140427800,3.308427734375,-0.00037541892379522324,-0.0006242194212973118,-0.0011270302347838879
1772461204150477000,3.31847705078125,-0.0009775767102837563,0.0016066082753241062,-0.0035351463593542576
1772461204160524800,3.32852490234375,0.000015516765415668488,-0.00034895073622465134,-0.0008331032004207373
1772461204170576600,3.33857666015625,-0.00306503102183342,0.0009777490049600601,-0.00243434333242476
1772461204180624600,3.348624755859375,-0.0005872268229722977,0.0008049095049500465,0.0011598588898777962
1772461204190672600,3.358672607421875,-0.0010424461215734482,0.001761061605066061,-0.0019067536341026425
1772461204200721700,3.3687216796875,-0.0003838464617729187,0.00006915489211678505,0.0003145888913422823
1772461204210769700,3.378769775390625,-0.0020439811050891876,-0.001478999387472868,0.0024355812929570675
1772461204220818700,3.388818603515625,-0.0016935095191001892,0.0008568591438233852,-0.0004896349273622036
1772461204230866700,3.39886669921875,-0.0012773703783750534,0.0015606139786541462,0.0032377266325056553
1772461204240914700,3.408914794921875,-0.0005077170208096504,0.002878346014767885,0.001697620376944542
1772461204250963700,3.418963623046875,-0.001709049567580223,0.000593169592320919,0.0016590210143476725
1772461204261011700,3.42901171875,-0.0023545995354652405,-0.002587976399809122,-0.0022638151422142982
1772461204271060700,3.439060791015625,-0.0005669919773936272,0.002331911586225033,0.00020966073498129845
1772461204281108700,3.449108642578125,-0.0010018860921263695,0.00007195258513092995,0.0005606652703136206
1772461204291156700,3.45915673828125,0.0011957562528550625,0.00020222831517457962,0.0003239661455154419
1772461204301205800,3.469205810546875,0.0002793623134493828,-0.0007660971023142338,-0.0002803050447255373
1772461204311253800,3.479253662109375,-0.0018561417236924171,0.0014710640534758568,-0.00037043914198875427
1772461204321302500,3.489302490234375,0.0005588126368820667,0.0005850307643413544,-0.0018029535422101617
1772461204331350500,3.4993505859375,-0.00035305600613355637,0.0009969142265617847,0.0022401632741093636
1772461204341398800,3.509398681640625,-0.0009900843724608421,0.0006477744318544865,0.0015647856052964926
1772461204351447600,3.519447509765625,0.002344154752790928,0.00011476781219244003,0.0029038742650300264
1772461204361495800,3.529495849609375,0.0005435915663838387,0.001169645693153143,-0.00132788869086653
1772461204371544600,3.539544677734375,-0.0007868921384215355,-0.0008683423511683941,-0.0008084927685558796
1772461204381592800,3.5495927734375,-0.0011442881077528,0.0035429177805781364,0.0002897947560995817
1772461204391641600,3.5596416015625,0.0007942765951156616,0.0011659511364996433,0.003323510754853487
1772461204401689900,3.56968994140625,-0.000010796822607517242,0.000829061958938837,0.0008329227566719055
1772461204411737600,3.579737548828125,0.0002206508070230484,-0.0023737186565995216,0.0002625775523483753
1772461204421787000,3.589786865234375,-0.0009926846250891685,-0.002547090407460928,0.0012106630019843578
1772461204431834600,3.599834716796875,-0.002025144174695015,-0.0011269329115748405,-0.0007091505685821176
1772461204441883600,3.609883544921875,-0.0012693395838141441,-0.0007439707405865192,-0.00014402775559574366
1772461204451931600,3.619931640625,-0.0005065137520432472,0.0013019856996834278,-0.000772616476751864
1772461204461979600,3.629979736328125,0.00029563019052147865,0.0005275378935039043,0.0007166231516748667
1772461204472028700,3.640028564453125,-0.0011239787563681602,-0.0009355088695883751,0.0006684956606477499
1772461204482076700,3.65007666015625,0.0010148053988814354,-0.0014122147113084793,-0.0012239464558660984
1772461204492125700,3.660125732421875,0.0010647973977029324,-0.0017203297466039658,-0.0009933261899277568
1772461204502173700,3.670173583984375,-0.0021198103204369545,0.0013028904795646667,-0.00018931785598397255
1772461204512221700,3.6802216796875,-0.0020077498629689217,0.000001207459717988968,0.001143291825428605
1772461204522270700,3.690270751953125,-0.0006298311054706573,-0.0009873579256236553,0.0009779096581041813
1772461204532318700,3.700318603515625,0.0008876570500433445,-0.0010231374762952328,0.001769453752785921
1772461204542367700,3.71036767578125,-0.000568559393286705,0.0021183276548981667,-0.0011829265858978033
1772461204552415500,3.72041552734375,-0.0002922099083662033,-0.00005646608769893646,0.0017090532928705215
1772461204562463700,3.730463623046875,-0.0001942059025168419,0.0006194440647959709,0.0013162370305508375
1772461204572512500,3.740512451171875,0.0010806848295032978,-0.001048743724822998,-0.0011097865644842386
1772461204582560800,3.750560791015625,-0.001641332171857357,0.002370222471654415,0.0008766651153564453
1772461204592609500,3.760609619140625,-0.0018278751522302628,-0.0008336487226188183,0.0022583715617656708
1772461204602657800,3.77065771484375,-0.0004920335486531258,-0.001406494528055191,-0.0012900243746116757
1772461204612706600,3.78070654296875,-0.0030010920017957687,0.0025324723683297634,0.00027803005650639534
1772461204622754600,3.790754638671875,-0.0024407627061009407,-0.0009818347170948982,-0.0008724555373191833
1772461204632802800,3.800802734375,-0.0029483111575245857,-0.000658093485981226,0.001563892001286149
1772461204642851600,3.8108515625,-0.0016542812809348106,-0.0000010915100574493408,0.0015569678507745266
1772461204652899800,3.82089990234375,-0.0010461583733558655,0.001451736781746149,0.0009611824061721563
1772461204662948600,3.830948486328125,0.0014460277743637562,-0.0023075812496244907,0.003001696430146694
1772461204672996900,3.840996826171875,-0.001980477012693882,0.0013702935539186,0.000019570346921682358
1772461204683045600,3.851045654296875,0.002780456095933914,0.00011780951172113419,-0.0006342356791719794
1772461204693094000,3.861093994140625,0.00046536093577742577,0.0015675942413508892,0.001575555419549346
1772461204703141600,3.8711416015625,0.002579911146312952,-0.001266275066882372,0.0010144275147467852
1772461204713191000,3.88119091796875,0.0021084537729620934,0.001256085466593504,0.0000970764085650444
1772461204723238700,3.89123876953125,-0.001811453141272068,0.00020866421982645988,-0.00023688399232923985
1772461204733287700,3.90128759765625,-0.00024216901510953903,-0.0010568886063992977,-0.0024987023789435625
1772461204743335700,3.911335693359375,0.00010457448661327362,-0.0003756522201001644,0.0002515439409762621
1772461204753383700,3.9213837890625,0.0010792287066578865,-0.0005170991644263268,-0.0007855769945308566
1772461204763432700,3.9314326171875,0.00022941362112760544,0.0009178123436868191,0.0014751804992556572
1772461204773480700,3.941480712890625,0.0003863014280796051,-0.00044729234650731087,-0.0001910170540213585
1772461204783529700,3.95152978515625,-0.0009306315332651138,-0.0002970900386571884,-0.00014201493468135595
1772461204793577700,3.96157763671875,-0.0012242086231708527,0.0003923526965081692,0.0005742087960243225
1772461204803625500,3.97162548828125,-0.0009475061669945717,-0.001429782249033451,0.002187018981203437
1772461204813674800,3.9816748046875,-0.0016175070777535439,0.0006689704023301601,-0.0002671369584277272
1772461204823722500,3.991722412109375,0.0012054434046149254,-0.001611493993550539,-0.0003928381484001875
1772461204833771800,4.001771728515625,-0.00004448927938938141,0.001169433817267418,0.0000606318935751915
1772461204843819500,4.011819580078125,-0.00042691919952630997,0.0002397242933511734,0.0009099140297621489
1772461204853868800,4.021868896484375,0.0005365759134292603,0.0004792069084942341,0.0037530383560806513
1772461204863916500,4.03191650390625,0.0000819740816950798,0.0011793519370257854,-0.0012883255258202553
1772461204873964800,4.04196484375,-0.001554371789097786,-0.0021723941899836063,0.0005393566098064184
1772461204884013600,4.052013671875,0.0019205203279852867,0.0025959955528378487,-0.00015120103489607573
1772461204894061600,4.0620615234375,0.00038542458787560463,0.0007457723841071129,-0.0014779828488826752
1772461204904110600,4.072110595703125,0.0012717247009277344,-0.00006595905870199203,-0.0015584102366119623
1772461204914158600,4.08215869140625,0.002153258305042982,-0.0019531543366611004,0.0025937375612556934
1772461204924206800,4.092206787109375,-0.0030092792585492134,0.00044741900637745857,-0.0009999318281188607
1772461204934255600,4.102255615234375,-0.0009088208898901939,-0.001585266087204218,0.002028444781899452
1772461204944303900,4.112303955078125,0.00019079819321632385,0.0005609751679003239,0.002085436601191759
1772461204954352600,4.1223525390625,-0.0017438773065805435,-0.0007474697194993496,0.003643851727247238
1772461204964401000,4.13240087890625,-0.0003254776820540428,0.001186517532914877,0.0011687097139656544
1772461204974449700,4.14244970703125,-0.0028692763298749924,0.001756617333739996,0.0005484714638441801
1772461204984497700,4.15249755859375,-0.0010426146909594536,-0.0007784450426697731,0.0006225071847438812
1772461204994545700,4.162545654296875,0.000994719099253416,0.0009713536128401756,0.00005294289439916611
1772461205004594700,4.1725947265625,-0.0007613692432641983,0.0013236897066235542,-0.0010695795062929392
1772461205014642700,4.182642578125,0.0020655766129493713,0.001054820604622364,-0.0010928015690296888
1772461205024691500,4.19269140625,-0.0015744315460324287,-0.0022938381880521774,0.00046221818774938583
1772461205034739700,4.20273974609375,0.00003466755151748657,0.003178325481712818,-0.0008222149917855859
1772461205044788500,4.21278857421875,0.001697278581559658,0.00031089968979358673,-0.0020938743837177753
1772461205054836700,4.222836669921875,-0.0007448801770806313,0.0012954194098711014,-0.0013555075274780393
1772461205064884700,4.232884765625,0.0008330424316227436,-0.0001695854589343071,-0.002856731414794922
1772461205074933800,4.242933837890625,0.0015647509135305882,0.0004699854180216789,0.000001434236764907837
1772461205084981800,4.252981689453125,0.0030771601013839245,0.0006335042417049408,0.001423029461875558
1772461205095030800,4.26303076171875,-0.0013549448922276497,0.0001966557465493679,0.004862136207520962
1772461205105078800,4.273078857421875,0.0007944926619529724,0.0013372870162129402,-0.00006471131928265095
1772461205115126500,4.28312646484375,-0.0009445445612072945,-0.00004164502024650574,0.0004789070226252079
1772461205125175800,4.29317578125,0.0010720007121562958,0.00042360927909612656,0.0005457524675875902
1772461205135223600,4.3032236328125,-0.0017614476382732391,-0.0016292789950966835,0.001245576422661543
1772461205145272800,4.31327294921875,0.0005107615143060684,0.0013119163922965527,0.0007515598554164171
1772461205155320600,4.323320556640625,-0.001593482680618763,0.0009879493154585361,-0.0009692629100754857
1772461205165369900,4.333369873046875,-0.0003503188490867615,-0.0012419153936207294,-0.000013187993317842484
1772461205175414800,4.343414794921875,0.0006892401725053787,0.0024014529772102833,-0.0034711617045104504
1772461205185462800,4.353462890625,0.001394178718328476,-0.000030545517802238464,0.0008178590796887875
1772461205195511800,4.36351171875,-0.0012363642454147339,0.0014554490335285664,0.0015763519331812859
1772461205205559800,4.373559814453125,-0.0005093216896057129,-0.00004630768671631813,-0.0002513754880055785
1772461205215608800,4.38360888671875,-0.0016007712110877037,0.0005543292500078678,0.001316930167376995
1772461205225656800,4.39365673828125,-0.0018788054585456848,0.000839287880808115,-0.0017813914455473423
1772461205235704800,4.403704833984375,-0.0006639445200562477,-0.0012403782457113266,0.0015097649302333593
1772461205245753900,4.41375390625,0.0017001437954604626,0.0008395505137741566,0.0023284205235540867
1772461205255801900,4.4238017578125,0.00025530997663736343,0.0021772263571619987,0.0024595034774392843
1772461205265851000,4.433850830078125,0.0006273542530834675,-0.00012001674622297287,0.002743928926065564
1772461205275898600,4.443898681640625,0.0006948867812752724,-0.00039498787373304367,-0.000008744187653064728
1772461205285948000,4.453947998046875,-0.0003679804503917694,0.0020487289875745773,-0.0013949195854365826
1772461205295995600,4.46399560546875,0.0007246681489050388,-0.0014001615345478058,0.0008708352688699961
1772461205306045000,4.474044921875,0.001131598837673664,-0.00041212886571884155,-0.0035758446902036667
1772461205316092700,4.4840927734375,-0.0010447446256875992,0.00011511798948049545,0.00021387962624430656
1772461205326141000,4.494140869140625,-0.0006881467998027802,-0.000284622423350811,0.0003209388814866543
1772461205336189700,4.504189697265625,0.002073319163173437,-0.0025776689872145653,-0.0013463249197229743
1772461205346238000,4.514238037109375,-0.0015363292768597603,0.0021073641255497932,-0.000580932479351759
1772461205356286700,4.52428662109375,0.0005946983583271503,-0.00085050193592906,-0.0003030721563845873
1772461205366335000,4.5343349609375,-0.00035631656646728516,0.0015580607578158379,0.003264498198404908
1772461205376382700,4.5443828125,-0.0003776373341679573,-0.00016461918130517006,-0.0013148323632776737
1772461205386431700,4.554431640625,-0.0013670017942786217,0.0011320742778480053,2.3655593395233154e-7
1772461205396479700,4.564479736328125,-0.0019472455605864525,0.0005171839147806168,0.0025462352205067873
1772461205406528800,4.57452880859375,-0.00024948082864284515,-0.00026498641818761826,0.0008950752671808004
1772461205416576800,4.58457666015625,0.0006967582739889622,-0.0020109382458031178,-0.001296523492783308
1772461205426625800,4.594625732421875,0.0005846391431987286,0.00008417060598731041,0.0003354616928845644
1772461205436673800,4.604673828125,-0.0006540734320878983,-0.0013163606636226177,-0.0008433943148702383
1772461205446721800,4.6147216796875,0.0011896323412656784,0.002482905052602291,-0.00042953912634402514
1772461205456770800,4.624770751953125,0.000242721289396286,-0.0026285811327397823,0.0005550491623580456
1772461205466818800,4.63481884765625,0.00034285616129636765,0.002346203662455082,-0.00023830647114664316
1772461205476867800,4.644867919921875,0.000027878209948539734,-0.0020304694771766663,0.0020039272494614124
1772461205486915800,4.654915771484375,-0.0017210198566317558,0.0016992874443531036,0.003982123453170061
1772461205496964600,4.664964599609375,0.0014540785923600197,-0.0005019516684114933,0.0008171906229108572
1772461205507012900,4.675012939453125,-0.00023622997105121613,0.0019031488336622715,0.0027772770263254642
1772461205517060900,4.685060791015625,-0.0005718208849430084,-0.0004700501449406147,0.000319900456815958
1772461205527110000,4.69510986328125,0.0022412757389247417,-0.0013337130658328533,0.00007861806079745293
1772461205537158000,4.705157958984375,0.0008736331947147846,0.0005064085125923157,-0.00170505593996495
1772461205547207000,4.71520703125,0.00033327750861644745,-0.0004936084151268005,-0.0006874620448797941
1772461205557255000,4.7252548828125,-0.0013796202838420868,0.000930428970605135,0.0010615696664899588
1772461205567304000,4.735303955078125,-0.0005103638395667076,-0.00012950925156474113,0.0005039037205278873
1772461205577352000,4.74535205078125,0.0006115669384598732,0.0017703762277960777,0.0017047550063580275
1772461205587399700,4.755399658203125,0.0009884042665362358,0.0001399889588356018,-0.003309710882604122
1772461205597448700,4.76544873046875,-0.001783459447324276,0.0006328863091766834,0.0025313564110547304
1772461205607496700,4.77549658203125,-0.001463080756366253,-0.0006198645569384098,0.0007094880566000938
1772461205617545700,4.785545654296875,0.0011353990994393826,-0.0019452250562608242,0.0015797149389982224
1772461205627593700,4.79559375,-0.00010084081441164017,0.000048683956265449524,0.0025845253840088844
1772461205637642800,4.805642822265625,-0.001966129057109356,0.0007910169661045074,0.001269322820007801
1772461205647690800,4.815690673828125,-0.0016904911026358604,0.0005984706804156303,-0.0004689224297180772
1772461205657739000,4.825739013671875,0.001118603628128767,0.0015860209241509438,-0.00013612420298159122
1772461205667787800,4.835787841796875,0.0011478983797132969,0.0024526137858629227,0.0007770736701786518
1772461205677835800,4.845835693359375,-0.00011095218360424042,-0.00040517933666706085,0.0016558740753680468
1772461205687884800,4.855884765625,0.0003100931644439697,0.0016537103801965714,0.001978649292141199
1772461205697932800,4.865932861328125,-0.0007606269791722298,0.002656188327819109,-0.0007784584304317832
1772461205707981800,4.87598193359375,0.000947791151702404,0.0011592251248657703,-0.001322009600698948
1772461205718029800,4.88602978515625,0.00012782495468854904,0.0013880180194973946,-0.002076302655041218
1772461205728077800,4.896077880859375,0.0007709786295890808,-0.0007137483917176723,-0.0009596392046660185
1772461205738126800,4.906126953125,0.0010629137977957726,0.0006854063831269741,-0.0006038787541911006
1772461205748174800,4.9161748046875,-0.00002392195165157318,0.0010396060533821583,-0.0014603513991460204
1772461205758224000,4.926223876953125,-0.0008101733401417732,0.00039305444806814194,-0.0005357369082048535
1772461205768272000,4.93627197265625,0.0007698801346123219,-0.0001459694467484951,-0.001051857485435903
1772461205778321000,4.94632080078125,-0.0007901685312390327,-0.0003708614967763424,0.0004676769021898508
1772461205788368600,4.95636865234375,0.0020405054092407227,0.0012731077149510384,0.00042932736687362194
1772461205798417000,4.9664169921875,0.0020978525280952454,-0.0003751353360712528,0.0000936225987970829
1772461205808465700,4.976465576171875,-0.0018966225907206535,-0.0012542447075247765,-0.0009958765003830194
1772461205818514000,4.986513916015625,0.0011474909260869026,0.0004990734159946442,0.0007528143469244242
1772461205828562700,4.996562744140625,0.0009629339911043644,0.0007036039605736732,0.0016455058939754963
1772461205838611000,5.00661083984375,-0.0005511902272701263,-0.00021783402189612389,-0.0002248765667900443
1772461205848659700,5.01665966796875,0.00047812191769480705,0.0012764660641551018,-0.000017416197806596756
1772461205858708000,5.0267080078125,-0.0011771256104111671,-0.002644868567585945,-0.0008284068899229169
1772461205868755700,5.036755615234375,-0.0006109373643994331,-0.0005841143429279327,0.0006485823541879654
1772461205878805000,5.046804931640625,0.0005211797542870045,-0.00018802005797624588,0.0006195346359163523
1772461205888852700,5.056852783203125,-0.0010000178590416908,0.0019297259859740734,0.0015186178497970104
1772461205898901800,5.06690185546875,-0.0003650309517979622,-0.0013537555932998657,-0.0015123554039746523
1772461205908949800,5.07694970703125,-0.0008111102506518364,0.00028009340167045593,0.0012722457759082317
1772461205918998800,5.086998779296875,0.0009551206603646278,-0.0008937236852943897,-0.0016729505732655525
1772461205929046800,5.097046875,-0.0007623517885804176,-0.0015699001960456371,0.000836279708892107
1772461205939094800,5.1070947265625,0.0029989411123096943,0.0010351836681365967,0.0025903983041644096
1772461205949143800,5.117143798828125,-0.00006316136568784714,-0.00214835861697793,-0.0012746471911668777
1772461205959191800,5.12719189453125,0.0007068798877298832,0.0011241571046411991,0.0012473142705857754
1772461205969240800,5.13724072265625,0.0021854666993021965,-0.000684129074215889,0.0030452145729213953
1772461205979288800,5.147288818359375,0.0009417077526450157,0.000411077868193388,0.0010819220915436745
1772461205989337900,5.157337890625,-0.001314789056777954,0.0007026935927569866,0.0018814029172062874
1772461205999385900,5.1673857421875,0.0009147459641098976,0.00025008944794535637,-0.0006104442290961742
1772461206009433900,5.177433837890625,0.002923035528510809,-0.0012492700479924679,0.0003027536440640688
1772461206019483000,5.18748291015625,0.0008085193112492561,0.0002886606380343437,-0.0004146371502429247
1772461206029531000,5.19753076171875,0.00016296934336423874,0.002377644646912813,0.0004189321771264076
1772461206039580000,5.207579833984375,0.0010123448446393013,-0.0011819847859442234,0.0007970589213073254
1772461206049628000,5.2176279296875,-0.00026890262961387634,0.0030606971122324467,0.0006170293781906366
1772461206059677000,5.227677001953125,0.0012483932077884674,0.0011454988270998001,-0.0018413151847198606
1772461206069724700,5.237724609375,0.0007658284157514572,-0.0018857112154364586,0.0012673926539719105
1772461206079772700,5.247772705078125,0.00012101791799068451,0.0012145191431045532,0.0001131715252995491
1772461206089821700,5.25782177734375,0.000466163270175457,-0.0004893713630735874,0.0004242288414388895
1772461206099869700,5.26786962890625,0.000917323399335146,0.0008636293932795525,0.002497004810720682
1772461206109918700,5.277918701171875,-0.0007133297622203827,-0.0006567696109414101,-0.001817316166125238
1772461206119966700,5.287966796875,-0.0017989985644817352,0.001296942587941885,-0.00006599887274205685
1772461206130015700,5.298015625,0.0008069048635661602,-0.0013853935524821281,-0.0014950509648770094
1772461206140063700,5.308063720703125,-0.000013174489140510559,0.00034806085750460625,-0.0004067118279635906
1772461206150112000,5.318112060546875,-0.00029520317912101746,-0.0010961713269352913,0.0008585560135543346
1772461206160160800,5.328160888671875,-0.00029920879751443863,-0.00033280719071626663,0.0009228624403476715
1772461206170208800,5.338208740234375,0.00007789488881826401,-0.001514451578259468,-0.00004599546082317829
1772461206180257800,5.3482578125,0.0011028554290533066,0.00018211780115962029,0.0010580241214483976
1772461206190305800,5.358305908203125,0.00028473231941461563,0.00002232799306511879,-0.00006556371226906776
1772461206200354800,5.368354736328125,-0.0003391904756426811,-0.0009111496619880199,0.0003508224617689848
1772461206210402800,5.37840283203125,0.002070437651127577,-0.0014152857474982738,-0.0017538737738505006
1772461206220450800,5.388450927734375,-0.0009218547493219376,-0.00022866390645503998,0.000237687723711133
1772461206230499800,5.398499755859375,0.0004502055235207081,-0.0014121728017926216,0.0008193221874535084
1772461206240547800,5.4085478515625,-0.001810363493859768,-0.000026759225875139236,0.0001887069083750248
1772461206250596900,5.418596923828125,-0.0027222298085689545,-0.0007063979282975197,-0.0010499294148758054
1772461206260644900,5.428644775390625,0.000470675528049469,-0.0003794468939304352,0.0009150444529950619
1772461206270694000,5.43869384765625,0.0000959690660238266,-0.0008849147707223892,-0.0014011068269610405
1772461206280741600,5.44874169921875,-0.0008564172312617302,-0.0004855431616306305,-0.0014986334135755897
1772461206290790000,5.458789794921875,0.0016251164488494396,-0.0015247082337737083,0.00022283382713794708
1772461206300838700,5.468838623046875,0.0000954335555434227,-0.0017192121595144272,-0.00013564922846853733
1772461206310887000,5.478886962890625,0.0005223383195698261,-0.00036259787157177925,-0.000022997381165623665
1772461206320935700,5.488935791015625,0.0010215830989181995,0.0006106561049818993,-0.002640333492308855
1772461206330984000,5.49898388671875,0.0021419748663902283,0.0008673844859004021,0.0003245638217777014
1772461206341032700,5.50903271484375,-0.0007452256977558136,0.001396283507347107,-0.0002187287900596857
1772461206351081000,5.5190810546875,-0.0014989003539085388,0.00108336191624403,-0.0020336729940027
1772461206361128700,5.529128662109375,0.0005048606544733047,-0.0008913688361644745,-0.0004995372146368027
1772461206371178000,5.539177978515625,0.00046411436051130295,-0.00020800158381462097,-0.002663621911779046
1772461206381225700,5.549225830078125,-0.0006078248843550682,0.0026064165867865086,-0.0000467121135443449
1772461206391274800,5.559274658203125,-0.000022195279598236084,0.0009784265421330929,-0.0037458427250385284
1772461206401322800,5.56932275390625,0.00260073971003294,0.00024397484958171844,0.00015298440121114254
1772461206411371800,5.579371826171875,-0.0006595021113753319,0.0014583761803805828,-0.0017844652757048607
1772461206421419800,5.589419677734375,-0.0012786174193024635,0.0002463073469698429,0.00040218071080744267
1772461206431468800,5.59946875,-0.0006429208442568779,-0.000867160502821207,-0.0001616103108972311
1772461206441516800,5.609516845703125,0.0017637996934354305,-0.00033632153645157814,0.000023267697542905807
1772461206451564800,5.619564697265625,-0.00010866858065128326,0.001754526048898697,0.0020371503196656704
1772461206461613800,5.62961376953125,-0.00013550277799367905,0.0011618174612522125,0.0006474659312516451
1772461206471661800,5.639661865234375,0.00013214536011219025,-0.0010115881450474262,0.0005481301341205835
1772461206481710800,5.6497109375,0.0004854714497923851,0.0010157870128750801,-0.00031161413062363863
1772461206491758800,5.6597587890625,0.0009523234330117702,0.00048395339399576187,-0.0009483760222792625
1772461206501807600,5.6698076171875,-0.0007543284446001053,0.00010315561667084694,-0.0013247779570519924
1772461206511855900,5.67985595703125,0.0006693974137306213,0.0003982339985668659,0.0009237290360033512
1772461206521903900,5.68990380859375,-0.0006056521087884903,-0.0023808409459888935,-0.0022515677846968174
1772461206531953000,5.699952880859375,-0.002294096164405346,-0.00005909707397222519,0.0024832661729305983
1772461206542001000,5.7100009765625,-0.0002857474610209465,0.00038485974073410034,0.0018624793738126755
1772461206552050000,5.7200498046875,0.00016326084733009338,0.00046848319470882416,0.0015423675067722797
1772461206562097700,5.73009765625,0.0007656202651560307,0.0008857562206685543,0.0013340604491531849
1772461206572147000,5.74014697265625,0.0007863929495215416,0.0014580697752535343,0.0012379204854369164
1772461206582194700,5.750194580078125,-0.0019504465162754059,0.00007492443546652794,0.0015527275390923023
1772461206592244000,5.760243896484375,0.0007356181740760803,0.0013218168169260025,-0.0008595638209953904
1772461206602291700,5.770291748046875,-0.0018394822254776955,0.00035170698538422585,0.0007607245352119207
1772461206612339700,5.780339599609375,0.000011947005987167358,0.0019674464128911495,0.0004363514017313719
1772461206622388700,5.790388671875,0.0006392225623130798,-0.0008054664358496666,0.0003822485450655222
1772461206632436700,5.800436767578125,-0.0009408304467797279,-0.0005197091959416866,0.00009862193837761879
1772461206642485800,5.81048583984375,-0.0007850909605622292,-0.001386853400617838,0.0008903807029128075
1772461206652533800,5.82053369140625,0.0004181251861155033,-0.0009189359843730927,0.0012025032192468643
1772461206662582800,5.830582763671875,-0.0019776104018092155,0.0000605960376560688,0.0011661674361675978
1772461206672630800,5.840630859375,-0.0019736159592866898,0.00010586995631456375,0.0011725591029971838
1772461206682678800,5.8506787109375,-0.0005172686651349068,0.0007875743322074413,0.001035973895341158
1772461206692727800,5.860727783203125,0.00005451124161481857,0.0013779974542558193,0.0036634483840316534
1772461206702775800,5.87077587890625,-0.000014776363968849182,0.0013931491412222385,-0.0014880653470754623
1772461206712824800,5.880824951171875,0.0009245206601917744,-0.0007949043065309525,0.0002624304033815861
1772461206722872800,5.890872802734375,0.0007585198618471622,0.000018216203898191452,-0.0011045041028410196
1772461206732921900,5.900921875,0.0009153797291219234,0.00025763455778360367,0.0009194982703775167
1772461206742969900,5.910969970703125,0.0013115368783473969,0.0012889187783002853,0.0010723802261054516
1772461206753019000,5.921018798828125,-0.0007484182715415955,-0.0009278967045247555,-0.001571073429659009
1772461206763067000,5.93106689453125,-0.0007803793996572495,-0.0003004353493452072,0.0012030089274048805
1772461206773115000,5.941114990234375,-0.001107947900891304,-0.0008213496766984463,-0.0015384491998702288
1772461206783164000,5.951163818359375,0.002127828076481819,-0.0004121311940252781,-0.0009407391771674156
1772461206793211600,5.961211669921875,-0.0023470818996429443,0.00009333668276667595,0.00368250859901309
1772461206803261000,5.971260986328125,0.001701238565146923,0.0006470475345849991,0.002192615531384945
1772461206813308700,5.98130859375,-0.0000772206112742424,-0.0018267631530761719,-0.0009344682330265641
1772461206823357700,5.991357666015625,-0.0008441507816314697,0.0018134703859686852,0.00003057369031012058
1772461206833405700,6.00140576171875,0.0016437745653092861,0.000740748830139637,0.0021491185761988163
1772461206843454700,6.011454833984375,0.0019330857321619987,0.0037520541809499264,-0.001136386999860406
1772461206853502700,6.021502685546875,-0.0007684249430894852,-0.00043736398220062256,-0.0005923031130805612
1772461206863551000,6.031551025390625,-0.000489700585603714,-0.0004892777651548386,0.0011522432323545218
1772461206873599700,6.041599853515625,0.00044959643855690956,0.001040708739310503,-0.0019418173469603062
1772461206883648000,6.05164794921875,-0.00042751245200634,-0.000541056040674448,-0.000128632178530097
1772461206893696800,6.06169677734375,0.0010023382492363453,0.00032819947227835655,-0.001303086057305336
1772461206903744800,6.071744873046875,-0.002507544122636318,0.0010071243159472942,0.00027445959858596325
1772461206913793800,6.081793701171875,-0.0010622469708323479,0.00006995769217610359,-0.002270457101985812
1772461206923841800,6.091841796875,-0.0008896393701434135,-0.0009333551861345768,0.0007592954207211733
1772461206933889800,6.101889892578125,-0.00045501161366701126,0.0013921172358095646,-0.002457270398736
1772461206943938800,6.111938720703125,-0.0016727885231375694,-0.00013795727863907814,0.000009180046617984772
1772461206953986800,6.12198681640625,-0.00013667717576026917,0.0018018889240920544,0.0013317058328539133
1772461206964035800,6.132035888671875,0.00003511644899845123,0.00029637012630701065,0.0022978128399699926
1772461206974083800,6.142083740234375,-0.001758788712322712,-0.0005574394017457962,-0.0003901156596839428
1772461206984132900,6.1521328125,-0.0010443897917866707,0.00020238244906067848,0.0003843416925519705
1772461206994180900,6.162180908203125,0.002239287830889225,-0.0006780587136745453,0.0011436089407652617
1772461207004230000,6.17222998046875,-0.00022161472588777542,-0.00018672645092010498,0.0024696302134543657
1772461207014277600,6.182277587890625,0.000034848228096961975,-0.0024693217128515244,0.001346841687336564
1772461207024326000,6.192325927734375,-0.0024512792006134987,0.0003062640316784382,-0.0016567657003179193
1772461207034374700,6.202374755859375,0.001051842700690031,0.0005382252857089043,-0.00005753757432103157
1772461207044423000,6.2124228515625,0.0007187048904597759,-0.00015121465548872948,0.0016670282930135727
1772461207054471700,6.2224716796875,-0.0016448507085442543,-0.00023110955953598022,-0.0002094348892569542
1772461207064520000,6.23252001953125,0.00024588778614997864,-0.0016805925406515598,-0.0007303468883037567
1772461207074568700,6.242568603515625,0.00004561804234981537,-0.0003751106560230255,0.00009390152990818024
1772461207084617000,6.252616943359375,-0.0039950162172317505,-0.0034974415320903063,0.001571335131302476
1772461207094665700,6.262665771484375,-0.0014133481308817863,0.0018605724908411503,0.002234728541225195
1772461207104714000,6.2727138671875,0.0015202201902866364,-0.0014078198000788689,0.0005483210552483797
1772461207114761700,6.28276171875,-0.0015898188576102257,0.001031635794788599,-0.0001507587730884552
1772461207124810800,6.292810791015625,-0.0018818555399775505,0.0002005118876695633,0.002792197046801448
1772461207134858800,6.302858642578125,-0.0002157827839255333,-0.00009083794429898262,0.0007466231472790241
1772461207144907800,6.31290771484375,0.00043969834223389626,-0.0007976451888680458,0.0006861789152026176
1772461207154955800,6.322955810546875,-0.0003701690584421158,-0.0009608971886336803,-0.0009540618630126119
1772461207165004800,6.3330048828125,-0.0005097910761833191,0.0001168600283563137,-0.0012399848783388734
1772461207175052500,6.343052490234375,0.0017160791903734207,-0.0016014114953577518,-0.0008061559638008475
1772461207185101600,6.3531015625,0.0005075526423752308,0.0008959644474089146,0.0007647050078958273
1772461207195149600,6.363149658203125,-0.0022171279415488243,0.0014118184335529804,-0.0016835388960316777
1772461207205197600,6.373197509765625,0.0007167784497141838,-0.0012554801069200039,-0.0012153720017522573
1772461207215246600,6.38324658203125,0.00013168249279260635,-0.0004277699626982212,-0.0026649306528270245
1772461207225294600,6.393294677734375,-0.001940350979566574,0.002628639340400696,-0.0005136576946824789
1772461207235343400,6.40334326171875,-0.001478026621043682,-0.001191665418446064,-0.0011810458963736892
1772461207245391600,6.4133916015625,-0.00044487975537776947,0.0011602984741330147,-0.0002080488484352827
1772461207255440400,6.4234404296875,-0.0005604606121778488,-0.0001286715269088745,0.0008545524906367064
1772461207265488600,6.433488525390625,0.0012356494553387165,-0.0013963477686047554,-0.0010456070303916931
1772461207275537400,6.443537353515625,0.00047345273196697235,-0.0014671878889203072,-0.0013004714855924249
1772461207285585700,6.453585693359375,-0.0006135646253824234,0.0005306345410645008,0.0014394477475434542
1772461207295633700,6.463633544921875,0.0006836610846221447,0.0004310314543545246,-0.0015896315453574061
1772461207305682700,6.4736826171875,-0.0006225248798727989,0.000027379952371120453,0.0007582597900182009
1772461207315730700,6.483730712890625,0.0011167852208018303,0.0008971681818366051,0.0009177832398563623
1772461207325779700,6.49377978515625,0.00006065052002668381,-0.0002062222920358181,-0.0011180214351043105
1772461207335827700,6.50382763671875,-0.0008445577695965767,0.0000941823236644268,0.000546720577403903
1772461207345876500,6.51387646484375,-0.0019236374646425247,0.000769016332924366,-0.000528872013092041
1772461207355924500,6.523924560546875,0.0005887881852686405,0.00038179242983460426,-0.00016162218526005745
1772461207365973500,6.533973388671875,0.0022431924007833004,0.00154540641233325,-0.0026826970279216766
1772461207376021500,6.544021484375,0.0010663415305316448,-0.000356889795511961,-0.00024244259111583233
1772461207386069500,6.554069580078125,-0.0010168487206101418,-0.00019627483561635017,-0.0012478126445785165
1772461207396118500,6.564118408203125,0.00001912098377943039,-0.0018101506866514683,0.0007487591356039047
1772461207406166500,6.57416650390625,-0.005133206956088543,-0.00020462973043322563,0.001012162771075964
1772461207416215600,6.584215576171875,-0.0011837389320135117,0.0002782009541988373,0.001204975415021181
1772461207426263600,6.594263671875,-0.00020399969071149826,-0.0022077462635934353,-0.0002493245992809534
1772461207436312600,6.6043125,0.0008841683156788349,-0.0011382205411791801,0.0002500182017683983
1772461207446360600,6.614360595703125,0.0008727479726076126,-0.0014967224560678005,-0.002405748004093766
1772461207456409300,6.624409423828125,0.0009662248194217682,0.0006359373219311237,0.0010829928796738386
1772461207466457600,6.63445751953125,0.0017027873545885086,0.0003402060829102993,0.0021085762418806553
1772461207476506400,6.64450634765625,0.0008319336920976639,0.0035165580920875072,-0.00035245087929069996
1772461207486554600,6.6545546875,-0.0008780071511864662,-0.00021890131756663322,-0.001415147795341909
1772461207496602600,6.6646025390625,0.001129749696701765,0.0004953588359057903,0.0005318892654031515
1772461207506651600,6.674651611328125,-0.0004988899454474449,-0.0013830396346747875,0.00002834061160683632
1772461207516699600,6.68469970703125,-0.0011582886800169945,0.00013203267008066177,-0.001325876684859395
1772461207526748700,6.694748779296875,-0.002001856453716755,0.0014234911650419235,0.00033373874612152576
1772461207536796700,6.704796630859375,-0.0006460417062044144,-0.00001940922811627388,-0.00041753891855478287
1772461207546845700,6.714845703125,0.0009733410552144051,0.002296711318194866,0.0009415645617991686
1772461207556893700,6.724893798828125,0.00020528584718704224,-0.0026178862899541855,-0.0014757865574210882
1772461207566942500,6.7349423828125,0.000015683472156524658,0.0013165376149117947,-0.00018199719488620758
1772461207576990700,6.74499072265625,-0.0010618316009640694,0.0010187956504523754,0.0018228304106742144
1772461207587038500,6.75503857421875,-0.0004574200138449669,-0.0019394690170884132,-0.00040987622924149036
1772461207597087700,6.765087646484375,0.0008866768330335617,0.002084834035485983,-0.0012628866825252771
1772461207607135500,6.775135498046875,-0.0008486099541187286,-0.0005888687446713448,-0.0017396332696080208
1772461207617184500,6.7851845703125,-0.0007692473009228706,0.0011190162040293217,-0.0006599877960979939
1772461207627232500,6.795232421875,0.0006404509767889977,-0.0028626704588532448,-0.001149857067503035
1772461207637281500,6.805281494140625,0.00016427785158157349,0.00014377199113368988,-0.004893728997558355
1772461207647329500,6.81532958984375,0.0005320301279425621,0.001387658528983593,-0.00047042081132531166
1772461207657378600,6.825378662109375,-0.000787033699452877,-0.000048051122575998306,0.0005311940331012011
1772461207667426600,6.835426513671875,0.0003454210236668587,-0.0016011660918593407,0.00042553641833364964
1772461207677474600,6.845474609375,0.0006879032589495182,0.0012790425680577755,-0.0022938172332942486
1772461207687523600,6.855523681640625,-0.0029180319979786873,0.0014672335237264633,-0.0016495760064572096
1772461207697571600,6.865571533203125,-0.0023744814097881317,0.004436924122273922,0.003189387731254101
1772461207707620600,6.87562060546875,0.001147143542766571,0.0014786794781684875,0.000795816769823432
1772461207717668600,6.885668701171875,-0.0005985591560602188,-0.002091820351779461,0.0007939527276903391
1772461207727717600,6.895717529296875,-0.001160264015197754,0.0021792487241327763,0.0010483020450919867
1772461207737765600,6.905765625,-0.0014220522716641426,-0.0006279889494180679,-0.0016992813907563686
1772461207747814700,6.915814697265625,-0.001245107501745224,-0.0001492784358561039,0.0012300375383347273
1772461207757862700,6.925862548828125,0.0007035271264612675,0.00024247262626886368,-0.001743115484714508
1772461207767911700,6.93591162109375,-0.00030972063541412354,-0.0005450565367937088,-0.00007270439527928829
1772461207777959700,6.945959716796875,0.0019273348152637482,0.0009923866018652916,0.0005185173358768225
1772461207788007400,6.95600732421875,-0.0014848653227090836,-0.00046202121302485466,-0.0014903380069881678
1772461207798056700,6.966056640625,-0.00010135304182767868,-0.0005211434327065945,-0.0025398898869752884
1772461207808104400,6.9761044921875,0.002173225861042738,-0.0025862245820462704,-0.001565331593155861
1772461207818153700,6.98615380859375,0.0003929026424884796,-0.00021334784105420113,-0.0007935476023703814
1772461207828201500,6.996201416015625,0.002581141423434019,-0.0017623044550418854,0.0015013255178928375
1772461207838250800,7.006250732421875,0.002012290060520172,0.001914456021040678,-0.0005791359581053257
1772461207848298500,7.016298583984375,-0.0017020488157868385,-0.000036827754229307175,0.0022093099541962147
1772461207858347800,7.02634765625,0.00004844646900892258,-0.0003612004220485687,-0.0011342887300997972
1772461207868395500,7.0363955078125,0.00020146556198596954,-0.0002334071323275566,-0.0012504057958722115
1772461207878443500,7.046443603515625,-0.0009498186409473419,-0.002789242658764124,0.00014668842777609825
1772461207888492500,7.056492431640625,-0.00039378367364406586,0.00015784194692969322,-0.0002795080654323101
1772461207898540500,7.06654052734375,-0.00020017195492982864,-0.0018224846571683884,0.0012012093793600798
1772461207908589600,7.076589599609375,0.0006425324827432632,0.0007099597714841366,-0.0013711737701669335
1772461207918637600,7.086637451171875,0.0003679608926177025,-0.0024932906962931156,-0.00001509208232164383
1772461207928686600,7.0966865234375,0.0006524329073727131,-0.0016920608468353748,-0.0010608917800709605
1772461207938734600,7.106734619140625,-0.0009712968021631241,0.00045205000787973404,-0.0017136326059699059
1772461207948783600,7.11678369140625,-0.0018984470516443253,-0.0004416373558342457,0.0035714651457965374
1772461207958831600,7.12683154296875,-0.00003742985427379608,0.0004388038069009781,-0.0015175691805779934
1772461207968880600,7.136880615234375,0.0006239390932023525,0.0015987148508429527,0.00045069772750139236
1772461207978928600,7.1469287109375,-0.0001318659633398056,-0.0002545788884162903,-0.001546406652778387
1772461207988976400,7.156976318359375,0.0004604845307767391,-0.0013025086373090744,0.0013841320760548115
1772461207999025700,7.167025634765625,-0.002565133385360241,0.00022827601060271263,-0.002458809409290552
1772461208009073400,7.177073486328125,-0.0002741394564509392,0.0007125595584511757,-0.0004553053295239806
1772461208019122700,7.187122802734375,0.000026265159249305725,0.002135219983756542,-0.0013615790521726012
1772461208029170400,7.19717041015625,0.001421601977199316,-0.0000410350039601326,-0.001250058994628489
1772461208039219700,7.2072197265625,-0.0006423480808734894,0.001702803187072277,-0.0006029107607901096
1772461208049267500,7.217267333984375,-0.0007863231003284454,-0.0013239379040896893,0.0020081810653209686
1772461208059316700,7.227316650390625,0.001145799644291401,0.003223409876227379,0.0010792703833431005
1772461208069364500,7.237364501953125,0.0010191788896918297,-0.0004064152017235756,-0.003803060855716467
1772461208079412500,7.24741259765625,0.0015360983088612556,-0.00015634438022971153,0.0011826427653431892
1772461208089461500,7.25746142578125,0.0017662402242422104,0.0012065698392689228,-0.00006956118158996105
1772461208099509500,7.267509521484375,0.00011028628796339035,0.001313628163188696,-0.0012421510182321072
1772461208109558500,7.27755859375,-0.0002429727464914322,-0.00043518422171473503,0.0012019809801131487
1772461208119606500,7.2876064453125,0.0011157714761793613,0.0025382349267601967,0.0004485726822167635
1772461208129655600,7.297655517578125,-0.0002702130004763603,-0.0014087730087339878,-0.0009830229682847857
1772461208139703600,7.30770361328125,0.002628904767334461,0.00043999357149004936,0.0034428841900080442
1772461208149752600,7.317752685546875,0.0010034479200839996,0.000828091986477375,0.003602782730013132
1772461208159800600,7.327800537109375,0.0010018502362072468,-0.0008574230596423149,0.0007526674307882786
1772461208169849600,7.337849609375,-0.0009858766570687294,-0.0000925394706428051,0.0011721521150320768
1772461208179901200,7.347901123046875,-0.0014732349663972855,0.000595620833337307,-0.0018830262124538422
1772461208189949000,7.357948974609375,0.0001523047685623169,-0.0010883025825023651,0.00022937031462788582
1772461208199998200,7.367998291015625,-0.000025860965251922607,0.0019761971198022366,-0.002265478949993849
1772461208210046000,7.3780458984375,0.0012197010219097137,0.001366475597023964,0.0003878772258758545
1772461208220095200,7.38809521484375,-0.0012927250936627388,0.002055967226624489,-0.0009546222863718867
1772461208230143000,7.39814306640625,-0.00008997879922389984,0.0013072951696813107,-0.002130922395735979
1772461208240192300,7.408192138671875,-0.0018191691488027573,0.0014337957836687565,0.0012150730472058058
1772461208250240000,7.418239990234375,0.001060516107827425,0.0019036084413528442,0.0030554651748389006
1772461208260289000,7.4282890625,-0.00035948120057582855,-0.000037303194403648376,0.0004945695400238037
1772461208270337000,7.4383369140625,0.000240192748606205,-0.0014368603006005287,0.0013670630287379026
1772461208280386000,7.448385986328125,0.0004063742235302925,-0.0020142332650721073,0.0014858399517834187
1772461208290434000,7.45843408203125,-0.0003859447315335274,0.0004549045115709305,0.0008582393638789654
1772461208300482000,7.46848193359375,-0.0019902335479855537,0.0004085651598870754,0.0020012680906802416
1772461208310531000,7.478531005859375,0.0017140195704996586,-0.0005573821254074574,-0.001050455728545785
1772461208320579000,7.4885791015625,0.00011372659355401993,0.0012117554433643818,-0.0003987802192568779
1772461208330628000,7.498628173828125,-0.0016208402812480927,0.0004453216679394245,0.002661585807800293
1772461208340676000,7.508676025390625,0.0015296787023544312,0.0005798111669719219,-0.0007153023034334183
1772461208350725000,7.51872509765625,0.0009745997376739979,-0.0029380670748651028,-0.0008474400965496898
1772461208360773000,7.528773193359375,0.001185521949082613,0.0036247610114514828,-0.0007513000164180994
1772461208370822000,7.53882177734375,0.0009220386855304241,0.0004842192865908146,0.00016531068831682205
1772461208380870100,7.5488701171875,-0.0006777225062251091,0.000010442454367876053,-0.002462164033204317
1772461208390919000,7.5589189453125,-0.001613399013876915,-0.00050345528870821,0.0020843034144490957
1772461208400967200,7.56896728515625,0.0016827955842018127,0.002436408307403326,-0.00003876839764416218
1772461208411015000,7.579014892578125,0.0019371858797967434,-0.002532348968088627,-0.001603966229595244
1772461208421064200,7.589064208984375,0.001042097806930542,-0.000020188745111227036,0.0036038451362401247
1772461208431112000,7.59911181640625,0.0017845979891717434,0.0005428935401141644,0.0007222290150821209
1772461208441161200,7.6091611328125,-0.00032462552189826965,-0.0014920281246304512,-0.0014823356177657843
1772461208451209000,7.619208984375,0.00039904937148094177,0.0010863402858376503,0.0014865212142467499
1772461208461258200,7.62925830078125,-0.0009141555055975914,-0.000954706221818924,0.0004420294426381588
1772461208471306000,7.639305908203125,-0.0016318392008543015,0.002277298830449581,0.0007392130792140961
1772461208481355000,7.64935498046875,0.00013037491589784622,-0.00008172960951924324,-0.000027244677767157555
1772461208491403000,7.659403076171875,0.00020906142890453339,0.0013031987473368645,-0.0005230510141700506
1772461208501452000,7.6694521484375,0.0006546084769070148,0.00085418950766325,-0.0024682239163666964
1772461208511500000,7.6795,0.0004526805132627487,0.0006022951565682888,0.0012556598521769047
1772461208521548000,7.689548095703125,0.0020172875374555588,0.0006923102773725986,-0.0006061560707166791
1772461208531597000,7.69959716796875,-0.0007912116125226021,0.0026880078949034214,0.00027523981407284737
1772461208541645000,7.70964501953125,0.0006452975794672966,-0.0007216376252472401,-0.0016459645703434944
1772461208551694000,7.719694091796875,-0.00036790408194065094,-0.0006721545942127705,-0.002417304553091526
1772461208561742000,7.7297421875,0.003406327683478594,0.0016141687519848347,0.001185419736430049
1772461208571791000,7.739791015625,-0.00047121942043304443,-0.0004968559369444847,0.0010697997640818357
1772461208581839000,7.749839111328125,-0.0008059786632657051,0.002009444870054722,0.0017238722648471594
1772461208591888000,7.759887939453125,0.000512971542775631,-0.00029740482568740845,0.0012120760511606932
1772461208601936100,7.76993603515625,-0.002272695302963257,0.0007691914215683937,0.0008051448967307806
1772461208611985000,7.77998486328125,-0.0008024489507079124,0.001137684565037489,0.0004176746588200331
1772461208622033200,7.790033203125,0.0005776016041636467,-0.0010945769026875496,0.0006251349113881588
1772461208632081200,7.8000810546875,0.000820536632090807,0.0008153659291565418,-0.002774179447442293
1772461208642130200,7.810130126953125,-0.0007672403007745743,0.0019288337789475918,-0.0033017515670508146
1772461208652178200,7.82017822265625,-0.0005517788231372833,0.004110060166567564,-0.002341014100238681
1772461208662227200,7.830227294921875,-0.000014087185263633728,-0.0015670000575482845,0.00020416895858943462
1772461208672275000,7.84027490234375,0.0002402598038315773,0.0026505980640649796,-0.000608231988735497
1772461208682324200,7.85032421875,0.0006655664183199406,-0.0008860798552632332,0.0016687707975506783
1772461208692372000,7.8603720703125,0.0007435129955410957,0.0011985269375145435,-0.002602766966447234
1772461208702421000,7.8704208984375,-0.0006860718131065369,-0.0011455873027443886,0.0024021114222705364
1772461208712469000,7.880468994140625,-0.0003218315541744232,-0.001918897032737732,0.0009225043468177319
1772461208722518000,7.89051806640625,-0.0005186395719647408,0.0024681277573108673,-0.0003800478298217058
1772461208732566000,7.90056591796875,-0.0007607098668813705,0.000234976876527071,0.0005647123325616121
1772461208742615000,7.910614990234375,0.001262493897229433,0.00218467740342021,0.0018041476141661406
1772461208752663000,7.9206630859375,0.0002576960250735283,-0.0012016845867037773,-0.0002464405260980129
1772461208762711000,7.9307109375,0.0007341355085372925,0.0014383071102201939,-0.001071221544407308
1772461208772760000,7.940760009765625,-0.002713448368012905,-0.0007179118692874908,-0.0004618242383003235
1772461208782808000,7.95080810546875,0.0013904832303524017,-0.0017219232395291328,-0.0014344106893986464
1772461208792857000,7.960857177734375,0.0000974489375948906,-0.000907145906239748,-0.0028054334688931704
1772461208802905000,7.970905029296875,0.0005067768506705761,-0.001479459460824728,-0.00417669489979744
1772461208812953900,7.980953857421875,0.00041750725358724594,-0.001491122879087925,-0.0019467647653073072
1772461208823002000,7.991002197265625,0.002496903296560049,-0.006983093451708555,-0.005263998173177242
1772461208833051000,8.00105078125,-0.0012029968202114105,-0.002531979698687792,-0.0030097332783043385
1772461208843099100,8.01109912109375,-0.0000858008861541748,-0.004776491783559322,-0.004718150943517685
1772461208853148000,8.02114794921875,-0.00043772347271442413,-0.0022792834788560867,-0.0034116420429199934
1772461208863196200,8.031196044921876,-0.0003559645265340805,-0.0031405501067638397,-0.0032132365740835667
1772461208873244200,8.041244140625,0.0007854062132537365,-0.002259385772049427,-0.003076158929616213
1772461208883293200,8.051293212890625,-0.0028583304956555367,-0.005132137797772884,-0.0058106929063797
1772461208893341200,8.061341064453124,-0.0016977731138467789,-0.002016201615333557,-0.0017988727195188403
1772461208903390200,8.07139013671875,0.0017041489481925964,-0.0017666635103523731,0.0008262051269412041
1772461208913438200,8.081438232421876,0.002201841678470373,0.0027859718538820744,-0.007366523612290621
1772461208923487000,8.091487060546875,0.0005858354270458221,-0.001996266655623913,-0.006433618254959583
1772461208933535000,8.101534912109376,-0.0025569256395101547,-0.006051764823496342,-0.009217469953000546
1772461208943584000,8.111583984375,0.0003139618784189224,-0.0030748830176889896,0.0016303842421621084
1772461208953632000,8.121632080078125,0.0026887566782534122,0.0028425850905478,0.0036551381926983595
1772461208963681000,8.131680908203125,0.0009289397858083248,0.003958981949836016,0.004219728522002697
1772461208973729000,8.14172900390625,0.001049540936946869,-0.00418736319988966,-0.000047744251787662506
1772461208983777000,8.151777099609374,0.002139572985470295,-0.004670992959290743,-0.002358302939683199
1772461208993826000,8.161825927734375,-0.00016925856471061707,-0.0001777075231075287,-0.0017177964327856898
1772461209003874000,8.1718740234375,0.003277404699474573,0.004145401529967785,0.0036085257306694984
1772461209013923000,8.181923095703125,0.0033408659510314465,0.0010410300455987453,-0.00034806353505700827
1772461209023971000,8.19197119140625,0.0006987438537180424,-0.0031593074090778828,-0.00328153558075428
1772461209034019800,8.202019775390625,-0.00046826619654893875,-0.0013916529715061188,-0.00041958701331168413
1772461209044068000,8.212068115234375,0.0007980666123330593,-0.0002944306470453739,0.00451471796259284
1772461209054116900,8.222116943359374,0.0010939878411591053,0.0015331069007515907,0.0033637811429798603
1772461209064165000,8.2321650390625,-0.0018501365557312965,-0.00021232850849628448,-0.00046477909199893475
1772461209074214000,8.2422138671875,0.001717949751764536,-0.00010614423081278801,-0.0033469272311776876
1772461209084262100,8.25226220703125,0.0008923695422708988,0.00011436548084020615,0.00048189936205744743
1772461209094311000,8.262310791015626,-0.0011443300172686577,0.0007007927633821964,0.001172450603917241
1772461209104359200,8.272359130859375,0.0022946097888052464,-0.0024689016863703728,-0.00006458768621087074
1772461209114407200,8.2824072265625,0.0006321603432297707,0.001042970921844244,0.0002754521556198597
1772461209124456200,8.292456298828125,0.00029686838388442993,-0.0005099182017147541,-0.0018414946971461177
1772461209134504200,8.302504150390625,0.0011232434771955013,0.002041085157543421,0.0004125651903450489
1772461209144553000,8.312552978515624,0.0011554677039384842,0.0008658324368298054,0.0007739560678601265
1772461209154601200,8.322601318359375,-0.0015864251181483269,-0.00029001664370298386,-0.00035977561492472887
1772461209164650000,8.33264990234375,-0.0013249032199382782,0.0011992226354777813,-0.00227325689047575
1772461209174694100,8.342694091796876,0.0002772454172372818,-0.0008108546026051044,-0.0003485152265056968
1772461209184743000,8.352742919921875,-0.001081232912838459,-0.0013999459333717823,-0.0016100546345114708
1772461209194791200,8.362791259765626,-0.0007104175165295601,-0.0006559733301401138,-0.00111535529140383
1772461209204840000,8.37283984375,-0.0016438551247119904,-0.0014988640323281288,0.000678816344588995
1772461209214888000,8.382887939453125,0.0005699447356164455,-0.000517026986926794,-0.0016110227443277836
1772461209224937000,8.39293701171875,0.00006261281669139862,-0.0014656446874141693,-0.0007002216298133135
1772461209234985000,8.40298486328125,-0.0008674096316099167,0.001250055618584156,0.0006205146200954914
1772461209245033000,8.413032958984376,-0.0002647368237376213,0.0006361976265907288,0.0006540704052895308
1772461209255082000,8.42308203125,-0.0015892423689365387,0.00013323593884706497,-0.00024065724574029446
1772461209265130000,8.4331298828125,-0.000035021454095840454,0.00021179905161261559,-0.002659872639924288
1772461209275179000,8.443178955078125,0.00006169266998767853,0.002484425902366638,0.00039678183384239674
1772461209285227000,8.45322705078125,0.0007557123899459839,0.0013661645352840424,0.0008013159967958927
1772461209295276000,8.463276123046874,0.00014280062168836594,0.0009685931727290154,0.00036645238287746906
1772461209305324000,8.473323974609375,0.0004192367196083069,-0.0010937592014670372,-0.00011318293400108814
1772461209315373000,8.483373046875,-0.00033284537494182587,-0.002142778132110834,-0.0013848263770341873
1772461209325420800,8.4934208984375,0.0013167168945074081,0.001608551014214754,-0.00014459225349128246
1772461209335470000,8.503469970703126,-0.0015583857893943787,-0.00025680428370833397,-0.00308320508338511
1772461209345517800,8.513517822265625,-0.001567441038787365,-0.0011407071724534035,0.00048223487101495266
1772461209355566000,8.523566162109375,-0.000020323321223258972,-0.0000487728975713253,0.00034164940007030964
1772461209365614800,8.53361474609375,-0.0006022239103913307,0.000949379988014698,0.0022253033239394426
1772461209375663000,8.5436630859375,0.0005989121273159981,0.000998382456600666,0.0002833434846252203
1772461209385711900,8.5537119140625,-0.00014357734471559525,0.0012468555942177773,0.0030245352536439896
1772461209395760000,8.563760009765625,0.001241876743733883,0.0017519420944154263,-0.0038508037105202675
1772461209405809000,8.573808837890626,-0.00009636115282773972,-0.0009008324705064297,0.0027357260696589947
1772461209415857200,8.583857177734375,-0.0016889367252588272,-0.002064824104309082,-0.005410275422036648
1772461209425906000,8.593906005859376,-0.0015741540119051933,-0.0064515830017626286,-0.004711461719125509
1772461209435954200,8.6039541015625,-0.0008178623393177986,0.0022203163243830204,0.0016741096042096615
1772461209446003000,8.6140029296875,-0.00012890249490737915,0.0031766570173203945,0.003085851203650236
1772461209456051000,8.624051025390624,-0.0025476422160863876,-0.00022781360894441605,-0.0024872245267033577
1772461209466100000,8.634099853515625,-0.00037290528416633606,-0.005911531858146191,-0.002844887087121606
1772461209476148000,8.64414794921875,-0.0005058664828538895,-0.001560417003929615,0.0005104851443320513
1772461209486196000,8.654196044921875,-0.0007554050534963608,0.003784547559916973,0.002696674084290862
1772461209496245000,8.664244873046876,-0.0013499828055500984,0.0009026997722685337,0.001543210120871663
1772461209506293000,8.67429296875,-0.0021981997415423393,-0.0005686972290277481,-0.0011841329978778958
1772461209516342000,8.684342041015626,0.0023454357869923115,-0.0009686280973255634,-0.0021140342578291893
1772461209526390000,8.69439013671875,0.0005318229086697102,0.003436506725847721,0.001781371422111988
1772461209536439000,8.70443896484375,-0.0015728389844298363,0.0010920115746557713,0.0029716885183006525
1772461209546487000,8.714487060546874,-0.0006561782211065292,-0.00007418636232614517,-0.002154629910364747
1772461209556536000,8.7245361328125,-0.0032198838889598846,-0.0017219986766576767,-0.00023808516561985016
1772461209566583800,8.734583740234376,0.0012630154378712177,-0.0020841886289417744,-0.000300669576972723
1772461209576633000,8.744633056640625,-0.0020843781530857086,0.0024346644058823586,-0.0001480474602431059
1772461209586680800,8.754680908203126,0.0003838399425148964,0.0016101496294140816,-0.0001267420593649149
1772461209596730000,8.764730224609375,0.0011302996426820755,-0.0003580045886337757,-0.0008813091553747654
1772461209606777900,8.77477783203125,-0.0017690835520625114,0.0007671811617910862,-0.0001111228484660387
1772461209616826000,8.784826171875,-0.00025900546461343765,0.0005238824523985386,0.00021389336325228214
1772461209626875000,8.794875,0.0014957515522837639,-0.00044497521594166756,-0.0022250295151025057
1772461209636923100,8.804923095703124,-0.0006046099588274956,0.0001863841898739338,0.0017254326958209276
1772461209646972000,8.814971923828125,-0.00012817047536373138,-0.0008730213157832623,0.0003107616212219
1772461209657020200,8.825020263671876,0.0002175755798816681,-0.0004742313176393509,0.00046454789116978645
1772461209667069000,8.83506884765625,0.000998414121568203,-0.00016716867685317993,0.004075794480741024
1772461209677117000,8.845116943359375,0.00018515437841415405,-0.0004170122556388378,-0.00030595576390624046
1772461209687166000,8.855166015625,-0.0001474739983677864,-0.00011820532381534576,0.000033064745366573334
1772461209697214000,8.8652138671875,0.0011022244580090046,-0.000501890666782856,0.0006312963087111712
1772461209707263000,8.875262939453124,-0.0004472024738788605,0.001643818337470293,0.0002989338245242834
1772461209717311000,8.88531103515625,0.0006533712148666382,0.002575239632278681,0.0010026567615568638
1772461209727360000,8.895360107421874,0.0009905272163450718,0.0009563039056956768,0.00131877395324409
1772461209737408000,8.905407958984375,0.0008692345581948757,-0.000708932988345623,-0.0005190385272726417
1772461209747456000,8.9154560546875,0.0017795027233660221,-0.0022540991194546223,0.0014415807090699673
1772461209757505000,8.925505126953125,-0.0002006934955716133,-0.0003182068467140198,-0.0015299523947760463
1772461209767553000,8.935552978515625,-0.0009008385241031647,-0.0012322035618126392,-0.0014774880837649107
1772461209777602000,8.94560205078125,0.001219145953655243,0.0010672821663320065,-0.0011479207314550877
1772461209787649800,8.95564990234375,0.00015707779675722122,0.00009043421596288681,-0.0006080979947000742
1772461209797699000,8.965698974609374,0.00042468588799238205,0.0003807186149060726,0.0002523581497371197
1772461209807746800,8.975746826171875,-0.0011545680463314056,0.0007229344919323921,-0.0007031840505078435
1772461209817796000,8.985796142578126,-0.0018683206290006638,-0.0010841721668839455,-0.0005589858628809452
1772461209827843800,8.99584375,-0.001545279286801815,-0.0009206542745232582,0.0008721968624740839
1772461209837893000,9.00589306640625,-0.0005759531632065773,-0.0006622513756155968,0.00017425185069441795
1772461209847940900,9.01594091796875,-0.0007898053154349327,-0.00014799460768699646,0.003182558808475733
1772461209857990100,9.025990234375,-0.001809651032090187,0.001798318699002266,-0.00022567389532923698
1772461209868038000,9.036037841796874,0.0004207463935017586,0.0008030962198972702,-0.001805727370083332
1772461209878086100,9.046086181640625,0.0013669547624886036,-0.000986053142696619,-0.001253965892829001
1772461209888135000,9.056135009765624,-0.00026662833988666534,0.00036816392093896866,-0.0023080450482666492
1772461209898183000,9.066182861328125,-0.0004383418709039688,0.0016535953618586063,-0.0004428372485563159
1772461209908232000,9.07623193359375,-0.0014716479927301407,-0.00004310440272092819,-0.0019504528027027845
1772461209918280000,9.086280029296875,0.0006137858144938946,-0.0005522994324564934,-0.0002329680137336254
1772461209928329000,9.096328857421875,0.00014799926429986954,0.0006639659404754639,-0.0010630753822624683
1772461209938377000,9.106376953125,0.00014804210513830185,0.0010119639337062836,0.00241758837364614
1772461209948426000,9.116426025390625,0.0009978567250072956,-0.0003819344565272331,-0.0008240112802013755
1772461209958474000,9.126473876953124,0.0015219817869365215,0.000845516100525856,0.0013512587174773216
1772461209968523000,9.13652294921875,0.003750514704734087,-0.0011404026299715042,0.0007025126833468676
1772461209978571000,9.146571044921876,0.0019988566637039185,0.0012594866566359997,0.0021404752042144537
1772461209988620000,9.1566201171875,0.002339741215109825,0.0000805053859949112,0.0010493779554963112
1772461209998668000,9.16666796875,0.00016247015446424484,-4.521571099758148e-7,-0.00013361219316720963
1772461210008717000,9.176717041015625,0.0015707500278949738,-0.0012039346620440483,-0.002288642106577754
1772461210018765000,9.18676513671875,-0.0014851121231913567,-0.00066419318318367,0.0004989136941730976
1772461210028812800,9.196812744140624,-0.0009620673954486847,0.0011155977845191956,0.000931677408516407
1772461210038862000,9.206862060546875,-0.0007797339931130409,0.0031936438754200935,-0.0025629012379795313
1772461210048909800,9.216909912109376,0.0033806567080318928,0.0018245130777359009,0.0006486047059297562
1772461210058959000,9.226958984375,0.00021401047706604004,-0.0012721186503767967,-0.0015096665592864156
1772461210069006800,9.2370068359375,0.0005349209532141685,-0.0000633099116384983,0.0005644033662974834
1772461210079056100,9.24705615234375,-0.0009274641051888466,0.00037835678085684776,-0.0017347184475511312
1772461210089104000,9.257103759765625,-0.0015447856858372688,-0.0011766627430915833,0.0006647896952927113
1772461210099153200,9.267153076171875,0.0010419338941574097,-0.001168068964034319,-0.00017456943169236183
1772461210109201000,9.277200927734375,-0.00073226448148489,0.0006460761651396751,0.001965546514838934
1772461210119250200,9.287250244140624,-0.0002282438799738884,0.0007595638744533062,0.002693956485018134
1772461210129298000,9.2972978515625,0.00021490640938282013,0.0027236458845436573,-0.002599608851596713
1772461210139347200,9.30734716796875,-0.0011929608881473541,-0.00009253481402993202,0.0034771175123751163
1772461210149395000,9.31739501953125,-0.0007849643006920815,-0.001716530416160822,0.002244340255856514
1772461210159443000,9.32744287109375,0.0005597569979727268,0.0016059977933764458,-0.0006700018420815468
1772461210169492000,9.337491943359375,0.0008982447907328606,-0.0010726097971200943,-0.0014814671594649553
1772461210179541000,9.347541015625,-0.0011901110410690308,0.0015157870948314667,0.0010236520320177078
1772461210189589800,9.35758984375,0.0017678625881671906,-0.0008214032277464867,0.0012545480858534575
1772461210199638000,9.367637939453125,0.0028582150116562843,-0.0012442315928637981,0.001420312561094761
1772461210209686800,9.377686767578124,-0.002396734431385994,0.00040293391793966293,-0.0010931789875030518
1772461210219734800,9.38773486328125,-0.00017696432769298553,0.0005544368177652359,0.0013477485626935959
1772461210229783800,9.39778369140625,-0.0005990751087665558,0.0009858692064881325,0.0004483989905565977
1772461210239831800,9.407831787109375,-0.0016052508726716042,-0.0005515054799616337,0.0007233123760670424
1772461210249880800,9.417880859375,-0.0014334768056869507,0.0001845923252403736,-0.00022743619047105312
1772461210259928600,9.427928466796875,-0.0000521242618560791,0.001569666899740696,0.0034731850028038025
1772461210269977900,9.437977783203126,-0.0006084581837058067,0.0002849576994776726,0.0011652896646410227
1772461210280025600,9.448025634765624,0.0003453977406024933,0.0006616986356675625,0.0020348108373582363
1772461210290073900,9.458073974609375,-0.0005680667236447334,0.001734419260174036,0.0020023202523589134
1772461210300122600,9.46812255859375,-0.0017742672935128212,0.0005480130203068256,0.0007153188344091177
1772461210310171000,9.4781708984375,0.0014747888781130314,0.002361892256885767,-0.001110278069972992
1772461210320219600,9.4882197265625,0.0005577299743890762,0.0023381952196359634,-0.0031549239065498114
1772461210330268000,9.498267822265625,-0.0007722526788711548,-0.002593180164694786,0.00013487902469933033
1772461210340316700,9.508316650390626,0.0014625480398535728,0.00011461880058050156,0.002457619644701481
1772461210350365000,9.518364990234375,-0.0006986074149608612,-0.0009088339284062386,0.000481021823361516
1772461210360413700,9.52841357421875,0.0004757368005812168,0.004235533997416496,-0.0031910024117678404
1772461210370461700,9.538461669921874,-0.0014542555436491966,-0.002347000874578953,0.0011217205319553614
1772461210380510700,9.5485107421875,-0.0017691412940621376,-0.0015283557586371899,-0.00037532090209424496
1772461210390558700,9.558558837890626,-0.0001451456919312477,0.0007345317862927914,0.0019464229699224234
1772461210400607700,9.568607666015625,-0.000743587501347065,-0.0010986612178385258,0.0020151652861386538
1772461210410655700,9.57865576171875,0.0010479209013283253,0.0016846084035933018,0.0003837128169834614
1772461210420704800,9.588704833984375,-0.002930539660155773,0.0028087846003472805,0.00028693140484392643
1772461210430752800,9.598752685546875,0.00007563643157482147,0.001909435261040926,0.002026508329436183
1772461210440801000,9.608801025390624,0.0003888718783855438,0.0024531185626983643,0.0009500060696154833
1772461210450849800,9.618849853515625,0.000005110166966915131,0.0027298210188746452,0.0006101867184042931
1772461210460898000,9.62889794921875,-0.0005326475948095322,0.00010841246694326401,-0.0016005246434360743
1772461210470946800,9.63894677734375,-0.0006695333868265152,-0.0022021462209522724,-0.00031741359271109104
1772461210480994800,9.648994873046876,-0.00037079770117998123,0.0013581281527876854,-0.0011313129216432571
1772461210491043800,9.6590439453125,0.0026255249977111816,-0.0010845237411558628,-0.0024229460395872593
1772461210501091800,9.669091796875,-0.00004666391760110855,-0.0007647434249520302,-0.0020064283162355423
1772461210511140900,9.679140869140625,0.0010604122653603554,-0.002666506916284561,-0.0037990021519362926
1772461210521188600,9.689188720703125,-0.0014292458072304726,0.00022085243836045265,0.0018026763573288918
1772461210531238000,9.69923779296875,-0.0030092988163232803,-0.0010649217292666435,0.00224289670586586
1772461210541285600,9.70928564453125,-0.0003832373768091202,-0.00041198311373591423,-0.0005169048672541976
