time,seconds_elapsed,z,y,x
1772536724053613600,0.079613525390625,-1.076011859932542,-0.15928981372416018,-0.2590093577025458
1772536724063662800,0.089662841796875,-1.2253303147405386,0.015358897173404693,-0.29469328655675053
1772536724073711900,0.0997119140625,-1.1746943524807691,0.2183013901412487,-0.30296697470955547
1772536724083760600,0.1097607421875,-1.001916696152091,0.3506722172796726,-0.21881167775094507
1772536724093810000,0.119809814453125,-0.9114601801574229,0.4324652420863509,-0.1005051779307425
1772536724103857700,0.129857666015625,-0.9113649030894041,0.5249728453919291,0.052822348121833056
1772536724113907000,0.139906982421875,-0.8522802614361047,0.566301757863164,0.09233531547859311
1772536724123955700,0.149955810546875,-0.6063122812122106,0.6649345660507678,0.02448933001970872
1772536724134004700,0.160004638671875,-0.38881694675683975,0.7625105586618185,0.026484303229209034
1772536724144053800,0.1700537109375,-0.3006383125662804,0.7511056598111987,0.11720120545942336
1772536724154102800,0.180102783203125,-0.2277770744949579,0.6619535044133663,0.15295250046141445
1772536724164150800,0.19015087890625,-0.014868483307957649,0.563330633097887,0.11032993145044892
1772536724174199800,0.20019970703125,0.3831576058208942,0.5153194663837551,0.11848004802251234
1772536724184248600,0.21024853515625,0.5442471624433994,0.5322866755366326,0.313360139234364
1772536724194297900,0.2202978515625,0.4843342532724142,0.40980303616225716,0.37026692539192735
1772536724204346600,0.2303466796875,0.40655835515260696,0.3706070440664887,0.5263938911709934
1772536724214395600,0.240395751953125,0.459227869066596,0.3601262743234634,0.5596557805100456
1772536724224443600,0.250443603515625,0.6063660572260617,0.4156353955775499,0.5900534395243973
1772536724234492700,0.26049267578125,0.6385393110781907,0.46724224869608877,0.6269743993602692
1772536724244542000,0.2705419921875,0.5089759425759315,0.45250586733520026,0.6846106688361615
1772536724254590700,0.2805908203125,0.42369829052388663,0.42722617238909005,0.7192007015064358
1772536724264639700,0.2906396484375,0.34824762048125263,0.420905737195909,0.7515688203435391
1772536724274688800,0.300688720703125,0.2674310394912958,0.3832660346314311,0.7796487404674292
1772536724284736800,0.31073681640625,0.13269699035286903,0.3307219006627798,0.8234535415329038
1772536724294785800,0.320785888671875,0.011785130339860915,0.29412703097611664,0.8401811697762459
1772536724304834800,0.330834716796875,-0.06658522654175758,0.30608781014382835,0.80717928308025
1772536724314883600,0.340883544921875,-0.1380009419798851,0.37984453575015065,0.7679953467484563
1772536724324932900,0.350932861328125,-0.19787176557481287,0.46483401851058004,0.6838928028903901
1772536724334981600,0.360981689453125,-0.1647223601669073,0.4846338207408786,0.59027552130986
1772536724345030000,0.37102978515625,-0.12728607122004032,0.456644866836071,0.5893197184223682
1772536724355078700,0.38107861328125,-0.16464578779935835,0.4033993065997958,0.5823492948878556
1772536724365127700,0.391127685546875,-0.015524316868185997,0.3901669000610709,0.5135458808399737
1772536724375176700,0.4011767578125,0.15828560511767864,0.4692655712172389,0.5908165693840012
1772536724385225700,0.411225830078125,0.14843465771079062,0.4398661659926176,0.6093396296767517
1772536724395274800,0.421274658203125,0.21145196263790128,0.3013286329180002,0.6598986177101731
1772536724405322800,0.43132275390625,0.41829672374129295,0.21332973920851944,0.7300951666168868
1772536724415371800,0.441371826171875,0.6279951207101345,0.16358312700390815,0.7891018476631492
1772536724425420500,0.451420654296875,0.7125333525717258,0.07246493223011494,0.8352903289947659
1772536724435469600,0.461469482421875,0.6964911493092775,-0.023620237301290033,0.8671735869243741
1772536724445518600,0.4715185546875,0.7153180148541927,-0.08294131805896758,0.8779625458337366
1772536724455567600,0.481567626953125,0.9036217416167258,-0.08040215497016906,0.8904328088935464
1772536724465615600,0.49161572265625,0.8689414733797312,-0.143266022901237,0.8824553272083401
1772536724475664600,0.50166455078125,0.8148059785664081,-0.20980916386693715,0.8593664203047752
1772536724485713700,0.511713623046875,0.8100608298659324,-0.24124270526766775,0.8533434336882084
1772536724495762700,0.5217626953125,0.7876233726084232,-0.2260968663230538,0.8070880976654589
1772536724505811700,0.531811767578125,0.7776718874365091,-0.21334201416820286,0.7405545282457023
1772536724515859700,0.541859619140625,0.7647264811456203,-0.2388599017843604,0.7201637743849307
1772536724525908700,0.55190869140625,0.6973837142348289,-0.2873942155897617,0.725857382916659
1772536724535957500,0.56195751953125,0.6159954708367585,-0.3108487409353256,0.6873823255065828
1772536724546006800,0.5720068359375,0.5539350282430648,-0.32743717990368604,0.6935450859200208
1772536724556055600,0.5820556640625,0.4241232379376888,-0.3521250464364886,0.6709605483420192
1772536724566104600,0.5921044921875,0.31865444625020023,-0.39896161641329525,0.6104264385327697
1772536724576152600,0.602152587890625,0.2929278843194246,-0.44675183385312556,0.5185370767233893
1772536724586201600,0.61220166015625,0.23782149864733218,-0.4653454751640558,0.4792746683279052
1772536724596250600,0.622250732421875,0.13507365635633467,-0.5382049596697092,0.4794534954935312
1772536724606299600,0.632299560546875,-0.043212534260749814,-0.6270896963030099,0.4932887267636135
1772536724616348400,0.642348388671875,-0.19419921454191208,-0.6939373731732368,0.5062016555570066
1772536724626397700,0.652397705078125,-0.2577379129946232,-0.7638406382218003,0.5314492748644203
1772536724636445400,0.662445556640625,-0.37571898025274275,-0.7820248219490051,0.4998933126604184
1772536724646494700,0.67249462890625,-0.5511480278730392,-0.7398427997797727,0.4295706166233867
1772536724656543500,0.68254345703125,-0.7496984233617782,-0.7041708901569247,0.417035910025239
1772536724666592500,0.692592529296875,-0.9510212061733007,-0.7037962116256355,0.4084172443596646
1772536724676641800,0.702641845703125,-0.994393314909935,-0.7532023398295045,0.3876612008504569
1772536724686690600,0.712690673828125,-0.9612100072324276,-0.7664265630617737,0.34281061705909666
1772536724696738800,0.72273876953125,-1.185906651368737,-0.6524953557163476,0.303404525876604
1772536724706787600,0.73278759765625,-1.6712123800218104,-0.526728164626658,0.28078489871891216
1772536724716836600,0.742836669921875,-1.8632839348852632,-0.4070671814575791,0.14359295330066232
1772536724726885600,0.7528857421875,-1.675327414125204,-0.2744339039906859,-0.03669331139272544
1772536724736934700,0.7629345703125,-1.433486742964387,-0.12110358319282531,-0.1017795543812681
1772536724746983400,0.7729833984375,-1.2348171050101517,-0.003001519903540611,-0.16450924713918938
1772536724757031700,0.78303173828125,-1.1360410889595747,0.13477175080031156,-0.2099506181642413
1772536724767080400,0.79308056640625,-1.0883698217242956,0.2078092222213745,-0.18439468182632698
1772536724777129700,0.803129638671875,-0.9758277306497096,0.18994740231633186,-0.11683549568587913
1772536724787178500,0.813178466796875,-0.8824024279773235,0.30166999370157715,-0.10520502618476747
1772536724797227500,0.8232275390625,-0.9349252268970012,0.3596367372408509,-0.20349747823579237
1772536724807276500,0.833276611328125,-0.6840063462674617,0.49904345436543224,-0.23194559235125778
1772536724817324500,0.843324462890625,-0.5231587817072868,0.6778074916273356,-0.3838695534825325
1772536724827373600,0.85337353515625,-0.3770715639054775,0.7573083138436079,-0.45973530713208016
1772536724837422600,0.863422607421875,-0.12203998726010322,0.8260255839779973,-0.5691943374995142
1772536724847471600,0.8734716796875,0.26870120555758475,0.8663412277534603,-0.7331639065377413
1772536724857520600,0.883520751953125,0.49297699393332,0.8394868308365344,-0.7343716748923063
1772536724867569700,0.893569580078125,0.40934710908830163,0.7117489241957664,-0.6724244103495031
1772536724877617700,0.90361767578125,0.27712825764119625,0.5306760254696011,-0.6618379152096807
1772536724887666700,0.913666748046875,0.36397944262027737,0.4675903314813971,-0.6050661901412532
1772536724897715500,0.923715576171875,0.42853053298592564,0.44870296792089936,-0.5700331629438325
1772536724907764700,0.9337646484375,0.2685334477752447,0.432727984675765,-0.583739543669857
1772536724917813500,0.9438134765625,0.24498656797111032,0.38274113397449255,-0.6790410520102829
1772536724927861800,0.95386181640625,0.3406161026895046,0.4522217896968126,-0.7779334609821439
1772536724937910500,0.96391064453125,0.21788404151201246,0.4963669286325574,-0.8370975976124405
1772536724947959600,0.97395947265625,0.09665829324424266,0.5374783989608287,-0.8007342716593295
1772536724958008600,0.984008544921875,0.09740706578493118,0.4776198503255844,-0.9606886137068271
1772536724968057600,0.9940576171875,0.217019533637166,0.49342444543987507,-1.0090896565213798
1772536724978106600,1.004106689453125,0.2210287692785263,0.540161646695435,-1.01488022262156
1772536724988154600,1.014154541015625,0.18101181618869303,0.46948096753358837,-1.008009460069239
1772536724998203400,1.024203369140625,0.13079144899249076,0.38575609788149595,-0.9552920153602957
1772536725008252700,1.034252685546875,0.07673837176561356,0.3307321297958493,-0.9279397519238293
1772536725018301400,1.044301513671875,0.14049860401451586,0.23630320303887128,-0.8939835601776838
1772536725028350500,1.0543505859375,0.2659235575377941,0.10880524263381958,-0.8656023920848965
1772536725038399700,1.064399658203125,0.2600982123851776,0.030166297943890093,-0.779801885202527
1772536725048447500,1.074447509765625,0.19836451752781867,-0.027450901505351066,-0.7737303832691163
1772536725058496800,1.084496826171875,0.36114977215230465,-0.08189736196398735,-0.7673466005161405
1772536725068545500,1.094545654296875,0.4841366848737001,-0.13298428286164998,-0.6652149173621088
1772536725078594600,1.104594482421875,0.4405529792129993,-0.1908867289930582,-0.6711629390463233
1772536725088643600,1.1146435546875,0.5171113182365894,-0.2562117263406515,-0.6801824771303683
1772536725098692600,1.124692626953125,0.6245090321600437,-0.34302579417973755,-0.6088983156500384
1772536725108740600,1.13474072265625,0.6014315234333276,-0.44377690969556566,-0.536181637148559
1772536725118789600,1.14478955078125,0.5818915411829948,-0.5617164758995175,-0.5006494282573462
1772536725128838700,1.154838623046875,0.6604226415842771,-0.630909254591167,-0.4992205644980073
1772536725138887700,1.1648876953125,0.7884066319406032,-0.6716957307487725,-0.44987909902818496
1772536725148936400,1.1749365234375,0.7990127816289663,-0.7588692795500159,-0.37686398556940254
1772536725158984700,1.184984619140625,0.742815093588829,-0.7942287622228265,-0.36108598620109256
1772536725169033500,1.195033447265625,0.7929793466836214,-0.7452835295289755,-0.3564862373206764
1772536725179082800,1.205082763671875,0.8517226275533437,-0.6837406810685992,-0.34388990019578486
1772536725189131500,1.215131591796875,0.798347595718503,-0.6167626558169722,-0.3367034227577969
1772536725199180500,1.2251806640625,0.718450467661023,-0.5556999920889735,-0.3308191870247945
1772536725209229800,1.235229736328125,0.6480927368432283,-0.5375295446261763,-0.2748391055244021
1772536725219277600,1.245277587890625,0.5322025043845177,-0.5494973380565643,-0.22927124030916018
1772536725229326600,1.25532666015625,0.47028877678513525,-0.5568783882185816,-0.1937301357254386
1772536725239375600,1.265375732421875,0.3953279360860586,-0.5430477235257625,-0.14242913368567822
1772536725249424600,1.275424560546875,0.2433633506834507,-0.547673922021687,-0.08634422183763235
1772536725259473700,1.2854736328125,-0.006321604236960411,-0.5429214667975902,-0.05631667477730661
1772536725269522700,1.295522705078125,-0.2549281162708998,-0.4961760822355747,-0.11000298278471454
1772536725279570700,1.30557080078125,-0.34690614274442194,-0.41737960889637465,-0.10204093613065779
1772536725289619700,1.31561962890625,-0.4304226303428411,-0.3679983228728175,-0.1177626296013128
1772536725299668500,1.32566845703125,-0.6312468159824609,-0.2903948587104678,-0.04817560459480155
1772536725309717800,1.3357177734375,-0.7203916648566723,-0.33342882153391834,-0.15537444864502176
1772536725319766500,1.3457666015625,-0.7259259181082248,-0.35191607986092566,-0.08770167346172966
1772536725329815600,1.355815673828125,-0.9905752179265022,-0.3919207579910755,0.09108666712436825
1772536725339863600,1.365863525390625,-1.1991156770318745,-0.42069472479373216,0.053187710835505275
1772536725349912600,1.37591259765625,-1.3468173442929983,-0.2939060817018151,0.10669426009552553
1772536725359961600,1.385961669921875,-1.5071359165430067,-0.2069315626040101,0.07550483878212981
1772536725370010600,1.3960107421875,-1.6733014612555503,-0.09271043240129948,0.022494996131025253
1772536725380059600,1.4060595703125,-1.780119913986325,0.16150252133756876,-0.06550333132287486
1772536725390107600,1.416107666015625,-1.7551368638992308,0.4057388554632663,-0.14703116585472598
1772536725400156400,1.426156494140625,-1.6088970858842133,0.5941077564164996,-0.11767183691216632
1772536725410205700,1.436205810546875,-1.3585638961881399,0.7495438173219561,-0.07451817496549337
1772536725420254700,1.446254638671875,-1.0284592506408692,0.8539356274276971,0.029652978126890956
1772536725430304000,1.456303955078125,-0.7878688718020915,0.9254144712299108,0.19268838985385373
1772536725440353000,1.46635302734375,-0.5154308178037404,0.825994312056899,0.23940657588168976
1772536725450401000,1.476401123046875,-0.1283364570558071,0.782383133867383,0.3736102444704622
1772536725460450000,1.486449951171875,0.006038695642352104,0.7672884405881166,0.576689880886674
1772536725470499000,1.4964990234375,-0.07117606146335602,0.6352908306762576,0.6750911453407258
1772536725480547800,1.5065478515625,-0.05125321737527847,0.6326759720027446,0.6790061998926102
1772536725490597000,1.51659716796875,0.04384147981405258,0.6902528394415974,0.7457340497754513
1772536725500646000,1.52664599609375,0.11224106230139731,0.7294263274446129,0.7816761546418071
1772536725510694100,1.536694091796875,0.04208557605743408,0.7751929301023482,0.8936692335315048
1772536725520743000,1.546742919921875,0.04188391600549221,0.747386054766178,0.8237083930768072
1772536725530792000,1.5567919921875,0.1878717650860548,0.8028387696579098,0.8717673444554209
1772536725540841000,1.566841064453125,0.18919103099107742,0.8866209224551915,0.8410378596708178
1772536725550890000,1.576889892578125,0.16090893935859202,0.894061593849957,0.8072475990761071
1772536725560938000,1.58693798828125,0.10761983224153518,0.8541378720015287,0.7806640549898147
1772536725570987000,1.596987060546875,0.037164486268162725,0.834112736582756,0.7730719924256205
1772536725581036000,1.6070361328125,-0.02273380985558033,0.8229156352639198,0.7652572270214557
1772536725591085000,1.6170849609375,-0.13511691097617148,0.8274050556376575,0.7245227733120322
1772536725601134000,1.627134033203125,-0.10563538042604922,0.8336559327259659,0.7274344960402697
1772536725611182800,1.637182861328125,-0.03275017695724964,0.8617471779614686,0.7303577630758286
1772536725621231000,1.647231201171875,0.04916530518531799,0.8905135459795593,0.707183077584952
1772536725631279900,1.65727978515625,0.16959668820500373,0.9012693332716822,0.7384556562703103
1772536725641329200,1.6673291015625,0.24586627341508863,0.8615802969619631,0.7582637148723006
1772536725651378000,1.6773779296875,0.31224867086112496,0.826376589372754,0.7620831270299852
1772536725661427000,1.687427001953125,0.4003922337383032,0.7763178424790501,0.7684198557708412
1772536725671476000,1.69747607421875,0.5097194544196129,0.7082070138052106,0.7473090440072119
1772536725681524000,1.70752392578125,0.6005500644236803,0.6803869867265224,0.7763086362592876
1772536725691573000,1.717572998046875,0.5895090304493904,0.6247822961434721,0.8417879473857581
1772536725701622000,1.7276220703125,0.5630915636450052,0.5085337517663836,0.8978776450067758
1772536725711670800,1.7376708984375,0.6008417408466339,0.4420873491734266,0.9082754126414656
1772536725721720000,1.747719970703125,0.613055325731635,0.3890373115092516,0.8958937046479434
1772536725731769000,1.75776904296875,0.5478016400545835,0.2909904865160584,0.8768862949043512
1772536725741817000,1.767817138671875,0.4834276598215103,0.19853782826811073,0.8107422362588346
1772536725751865900,1.777865966796875,0.4800415245145559,0.12939911785125732,0.7781716536521911
1772536725761915000,1.787914794921875,0.4034317475646734,0.05999474223554134,0.7458680514186621
1772536725771964200,1.797964111328125,0.3571194937229156,-0.012807751385867596,0.6543477055847644
1772536725782013000,1.808012939453125,0.40831075177788734,-0.08004676566123962,0.6065526293067262
1772536725792061200,1.818061279296875,0.419150710222125,-0.2015200589492917,0.6419605907637626
1772536725802110000,1.82810986328125,0.3611608780682087,-0.3494619647070765,0.6981746454168111
1772536725812159000,1.838158935546875,0.323470322099328,-0.4665057511150837,0.7299513742320239
1772536725822208000,1.8482080078125,0.2676356221526861,-0.5495385468497872,0.7483813494138419
1772536725832257000,1.858257080078125,0.14295593403875828,-0.6209343885436653,0.7671075310632586
1772536725842305800,1.868305908203125,0.0596697480648756,-0.6574076776772737,0.7667503881886601
1772536725852354000,1.87835400390625,0.06126783091127872,-0.6229504045411944,0.7571091380096971
1772536725862402800,1.88840283203125,0.10145955604612826,-0.5777753380358219,0.7225748541146516
1772536725872452000,1.8984521484375,0.12679682639837264,-0.564596999771893,0.6876029825199395
1772536725882500900,1.9085009765625,0.1492068111270666,-0.5665463802739977,0.6833434984445571
1772536725892550000,1.9185498046875,0.14035130449831484,-0.5693848185703158,0.7332285692717879
1772536725902598000,1.928597900390625,0.06391454602777957,-0.5654889801755547,0.7889497258413583
1772536725912647000,1.93864697265625,0.010272387689352035,-0.5640168617963791,0.8105174875922501
1772536725922696000,1.948696044921875,-0.03275836026370525,-0.5771624668344855,0.8366968347918242
1772536725932745000,1.958744873046875,-0.09779168118834496,-0.5572010443016886,0.8462054715670645
1772536725942794000,1.9687939453125,-0.15933832904100417,-0.46639176934659476,0.8132467664256692
1772536725952843000,1.978843017578125,-0.24046704472005365,-0.3215779324814677,0.7297745563603937
1772536725962890800,1.988890869140625,-0.3324953400760889,-0.2229690896913409,0.6770083771388977
1772536725972940000,1.99893994140625,-0.40479660617709157,-0.18091186294555664,0.6449306195504964
1772536725982989000,2.008989013671875,-0.48613516521453853,-0.1208753273949027,0.6116417691392824
1772536725993037800,2.019037841796875,-0.512844892963767,-0.1323646896585822,0.5947689968042076
1772536726003087000,2.029087158203125,-0.5762286931157112,-0.24001842416971922,0.5931596253788098
1772536726013136000,2.039135986328125,-0.8081482742428779,-0.3085390026882291,0.6355509429171681
1772536726023184100,2.04918408203125,-1.0533481927037238,-0.3393473979279399,0.6166909057550132
1772536726033233000,2.05923291015625,-1.1142980437070131,-0.3283613090112805,0.5035884408513084
1772536726043282000,2.069281982421875,-1.1295926434725523,-0.24817630392313003,0.4133723460163921
1772536726053331000,2.0793310546875,-1.0897615683436392,-0.16415011323690412,0.29311858458593487
1772536726063380000,2.0893798828125,-1.0081056139200926,-0.0401718513906002,0.1508973580298945
1772536726073428000,2.099427978515625,-0.9011480449795722,0.09425999993085861,0.08408259704858065
1772536726083477000,2.10947705078125,-0.814457603520155,0.16937340084314345,0.07434610633421689
1772536726093525800,2.11952587890625,-0.6820172182768582,0.23415070118010042,0.0771734021820128
1772536726103575000,2.129574951171875,-0.5409890374302864,0.2775505747064948,0.11941405920330435
1772536726113623800,2.139623779296875,-0.4222071751832962,0.31183599840700627,0.141087473285757
1772536726123673000,2.149673095703125,-0.3666279113024473,0.37865415692180393,0.11710983738154172
1772536726133720800,2.159720947265625,-0.3000000146627426,0.4758998946651816,0.049928142783977086
1772536726143769900,2.169769775390625,-0.20190262852609156,0.6064817925602197,-0.05476893387865275
1772536726153819100,2.179819091796875,-0.0629202742934227,0.7444435715734958,-0.21245555018987505
1772536726163868000,2.189867919921875,0.05910919157266616,0.7996881966724991,-0.2590200982922688
1772536726173917000,2.1999169921875,0.18986147759854793,0.7598059758782386,-0.3683767642637715
1772536726183965000,2.20996484375,0.15920973422527313,0.7210138884082437,-0.3223671100977808
1772536726194014000,2.220013916015625,0.03731178578436375,0.6088286479473114,-0.2964423221811652
1772536726204063000,2.23006298828125,0.007581833431124687,0.490858394344151,-0.2903798803370446
1772536726214112000,2.240112060546875,0.01922550947368145,0.3961313614234328,-0.2929327431576326
1772536726224161000,2.2501611328125,-0.02674187645316124,0.3259814281374216,-0.29391510525848713
1772536726234210000,2.2602099609375,-0.12153028417229651,0.277522225394845,-0.3327399990195408
1772536726244258000,2.270258056640625,-0.19408581729531288,0.24931612160801886,-0.3753869352867827
1772536726254307000,2.28030712890625,-0.26811726818978787,0.2426227614492178,-0.40076746025886384
1772536726264355800,2.29035595703125,-0.30161563316583634,0.23973551557511089,-0.4103467145849019
1772536726274405000,2.300405029296875,-0.32839667258560656,0.25537235290706156,-0.4352186689803377
1772536726284454000,2.310453857421875,-0.3488011627107859,0.30330723951458927,-0.47792676085028796
1772536726294502100,2.320502197265625,-0.3665279580593109,0.3445367832645774,-0.5213212275492027
1772536726304551000,2.330551025390625,-0.31223990303277965,0.368629606513679,-0.5490180301070213
1772536726314600000,2.340599853515625,-0.21164543938338756,0.370757558453083,-0.5571436880912631
1772536726324649200,2.350649169921875,-0.14568331317603586,0.3173132607743144,-0.5304964676516131
1772536726334698000,2.360697998046875,-0.027184359523653983,0.2403200374647975,-0.521530340255238
1772536726344747000,2.3707470703125,0.18009470134377478,0.23146599214076993,-0.47114415150545536
1772536726354795000,2.380794921875,0.32776538894474505,0.23862346267998216,-0.43019039248954505
1772536726364844000,2.390843994140625,0.3745259710758924,0.15574673428982494,-0.4312393170205876
1772536726374893000,2.40089306640625,0.48598260500133034,0.07560849095284938,-0.3449459851199761
1772536726384942000,2.410942138671875,0.6053653557509183,0.012252747851610183,-0.29635756650716066
1772536726394990800,2.420990966796875,0.7146019755393266,-0.09000789544433355,-0.29421017921492454
1772536726405039000,2.4310390625,0.840638338959217,-0.16545067444145678,-0.31101788695715366
1772536726415087900,2.441087890625,0.9119903415113687,-0.19494097281992434,-0.2169694474177435
1772536726425137400,2.451137451171875,0.8185293830037117,-0.31900691294968125,-0.17872025291910393
1772536726435186200,2.461186279296875,1.0138000261694193,-0.36086101833879947,-0.21597979705957696
1772536726445235200,2.471235107421875,1.1191910764455795,-0.32822540767192837,-0.1920502015481703
1772536726455284200,2.4812841796875,1.122481934684515,-0.45761195830255746,-0.2546577748969197
1772536726465332200,2.491332275390625,1.0286883832216263,-0.5052870249301195,-0.18833488908577709
1772536726475381200,2.50138134765625,1.083523550736904,-0.5153545376971364,-0.21378451550500466
1772536726485430300,2.51143017578125,1.0374679020047186,-0.5299596938937902,-0.16914536424092946
1772536726495479300,2.521479248046875,0.8592705587148666,-0.6083730131343007,-0.23925189677663147
1772536726505528300,2.5315283203125,0.7589701095759868,-0.5707613676205278,-0.22294486856553702
1772536726515577300,2.541577392578125,0.6213537829995155,-0.5687263546615838,-0.24875439607203007
1772536726525625300,2.551625244140625,0.5283592729598283,-0.5997302724733948,-0.28689287847150113
1772536726535674400,2.56167431640625,0.44506198107004163,-0.5927694935500621,-0.2871453553952277
1772536726545723100,2.57172314453125,0.2934931169867515,-0.6009808570563793,-0.2803199663545936
1772536726555772400,2.5817724609375,0.1536649595797062,-0.6156707689270376,-0.2992462006207555
1772536726565821200,2.5918212890625,0.06718903765380382,-0.6711594319149852,-0.31603662843462077
1772536726575869400,2.601869384765625,0.03205693399608135,-0.6739902714267373,-0.29026991715654726
1772536726585918200,2.611918212890625,-0.05418927082717418,-0.6960100877940655,-0.20845902789961546
1772536726595967200,2.62196728515625,-0.1183504850924015,-0.7989905697971582,-0.2768742828801274
1772536726606016300,2.632016357421875,-0.12130816585421561,-0.7707970332309603,-0.23567096954993902
1772536726616065300,2.642065185546875,-0.15375848308205603,-0.7797954554617404,-0.19126111526340245
1772536726626114000,2.652114013671875,-0.19905133074820042,-0.8572416832357644,-0.15555113865248857
1772536726636162300,2.662162353515625,-0.1717985821634531,-0.8865352899983525,-0.1375980602674186
1772536726646211000,2.672211181640625,-0.1194657528579235,-0.886940948189795,-0.14427209467124194
1772536726656260400,2.68226025390625,-0.1362228263914585,-0.8942296438932418,-0.14854396330416203
1772536726666309000,2.69230908203125,-0.21294541606605052,-0.9045695438608526,-0.14607340847216546
1772536726676358100,2.702358154296875,-0.2545049224227667,-0.9164178025647998,-0.15876688582859932
1772536726686406100,2.71240625,-0.21341478714346884,-0.8938985122427344,-0.16735000525675714
1772536726696455200,2.722455078125,-0.2680506326943636,-0.8319555585488676,-0.20336670972928403
1772536726706504400,2.73250439453125,-0.3849754688978195,-0.7702288779541849,-0.2442647930352017
1772536726716553200,2.74255322265625,-0.45841187650859355,-0.7206576223164797,-0.25455267055463043
1772536726726602200,2.752602294921875,-0.4943950440376997,-0.6372863884076476,-0.2789616105481982
1772536726736651300,2.7626513671875,-0.5139630833387374,-0.520155800499022,-0.32071948902122677
1772536726746699300,2.77269921875,-0.47630526059567924,-0.42788726664632554,-0.3227408387809992
1772536726756748300,2.782748291015625,-0.46512394136786456,-0.3503846325099468,-0.2568042123410851
1772536726766797300,2.79279736328125,-0.45938627449870106,-0.34353374370187517,-0.18395879289340228
1772536726776846000,2.80284619140625,-0.4908990186154842,-0.30901480350643395,-0.11771953024510294
1772536726786895400,2.812895263671875,-0.6328612654417752,-0.20205051256418227,-0.022725809212215245
1772536726796943000,2.822943115234375,-0.7521528307765721,-0.1782227699920535,0.08119648368563502
1772536726806992400,2.832992431640625,-0.7650397848784923,-0.24396979214400052,0.1998749220907688
1772536726817041200,2.843041259765625,-0.7472229731589556,-0.28072452856749297,0.278770581488125
1772536726827090200,2.853090087890625,-0.7529974649071693,-0.22416005304157732,0.30430490878243
1772536726837139200,2.86313916015625,-0.7962661132693291,-0.10597732573151587,0.250573537790589
1772536726847188200,2.873188232421875,-0.8233458433747292,0.03439911320805549,0.0859232564792037
1772536726857236200,2.883236328125,-0.7262935823768377,0.16937632345259188,-0.059223502134718
1772536726867285200,2.89328515625,-0.5250485409766436,0.31375176890045403,-0.13341288353726266
1772536726877334000,2.903333984375,-0.4071078057289123,0.41525194921791553,-0.20632490194775163
1772536726887383300,2.91338330078125,-0.4186567892253399,0.47559155936837194,-0.24149909118153154
1772536726897432300,2.923432373046875,-0.5081400762736797,0.5451788903355598,-0.24473573501519857
1772536726907480300,2.933480224609375,-0.47554772022664543,0.6289195420786738,-0.22200141370296478
1772536726917529300,2.943529296875,-0.35883506546914573,0.6636646922454238,-0.16903974844198674
1772536726927578000,2.953578125,-0.2905488802284002,0.6633811991289258,-0.07760390255376697
1772536726937627400,2.96362744140625,-0.2954249618321657,0.674302113854885,0.01775576571468264
1772536726947676200,2.97367626953125,-0.2795698055744171,0.6868973915338515,0.13045860030893236
1772536726957725200,2.98372509765625,-0.25369126795232294,0.6844821470856666,0.23319482522737234
1772536726967773200,2.993773193359375,-0.21156594440639018,0.6762406807020306,0.3103175566680729
1772536726977822200,3.003822265625,-0.14669570508897303,0.6751669139906764,0.3425401660872623
1772536726987871200,3.013871337890625,-0.05983750584721565,0.6936690776258707,0.339538755781576
1772536726997920300,3.023920166015625,-0.011996142742037773,0.6938570014134049,0.33401601030472666
1772536727007969000,3.033968994140625,-0.01228431203365326,0.6859831992983818,0.3423787284478545
1772536727018017300,3.044017333984375,-0.01648059467971325,0.6590498919263482,0.3197005943022668
1772536727028066000,3.054066162109375,0.026736615756154058,0.6564855943962932,0.26665190834496166
1772536727038115300,3.064115234375,0.09158347419798374,0.6789952401071786,0.20627642316352574
1772536727048164000,3.0741640625,0.050420273682475085,0.7448831320345402,0.18919450158979742
1772536727058213000,3.084213134765625,-0.00677694678902626,0.7579229386106133,0.18994521035924553
1772536727068262400,3.094262451171875,-0.026128712990880012,0.7534107218831777,0.17841851175986229
1772536727078310100,3.10431005859375,-0.009588497078418731,0.7756608398750424,0.15816760476119815
1772536727088359200,3.114359130859375,0.03823708393573761,0.7714426376581192,0.14707856692671775
1772536727098408200,3.124408203125,0.10989479143619536,0.7738359625354408,0.110180586107634
1772536727108457200,3.134457275390625,0.1578770243167877,0.7381547005623579,0.15066891956888137
1772536727118506200,3.14450634765625,0.24936522144675252,0.7312310387790203,0.16393095406088978
1772536727128554200,3.15455419921875,0.34537177278399467,0.69657035202533,0.19300616883244365
1772536727138603300,3.164603271484375,0.4458113381326198,0.649423108664155,0.20614738995637744
1772536727148652300,3.17465234375,0.5097890125244856,0.6230787070959806,0.2461253262100741
1772536727158701000,3.184701171875,0.574725887337327,0.5863371224150061,0.3247810028390959
1772536727168750300,3.194750244140625,0.6122329034328461,0.541049535445869,0.4032786758948117
1772536727178799000,3.204799072265625,0.6269955882787704,0.47091216938048597,0.4400768496012315
1772536727188847400,3.214847412109375,0.6457306838870048,0.37857261611819265,0.4843074748633429
1772536727198896000,3.224896240234375,0.6299708046972752,0.2555328041657805,0.5080255465159192
1772536727208945200,3.234945068359375,0.5802472811073065,0.17467706020921467,0.5235452237416058
1772536727218994200,3.244994140625,0.4667395598709583,0.11816139226108789,0.5479876641459763
1772536727229043200,3.255043212890625,0.4205465484946966,0.06944178501665592,0.5009489591931924
1772536727239091200,3.26509130859375,0.4491197320282459,0.09289923297166824,0.4550601549278944
1772536727249140200,3.27514013671875,0.3590986848413944,0.10647183125019073,0.41056707933731373
1772536727259189200,3.285189208984375,0.3483358832865953,0.020436638829112053,0.38226672139577567
1772536727269238300,3.29523828125,0.38872868395149707,-0.078248191806674,0.38832233164031055
1772536727279287300,3.305287353515625,0.39536008478999135,-0.19853432113677263,0.3806257492557168
1772536727289336300,3.31533642578125,0.49219256555736063,-0.3177072285279631,0.4640627053445205
1772536727299384000,3.325384033203125,0.40577392677664753,-0.4917170570001006,0.5078465366872027
1772536727309433300,3.335433349609375,0.31695874824821946,-0.5742246598169207,0.5078455503065139
1772536727319482400,3.345482421875,0.1672358042925596,-0.6520850213497876,0.5087156111393124
1772536727329531100,3.35553125,0.18650866003930566,-0.6811018569976091,0.4445764991080388
1772536727339580400,3.365580322265625,0.2954465891420841,-0.6676333036154508,0.40221426153369244
1772536727349628200,3.375628173828125,0.2792074020028114,-0.6623617929533123,0.415176217100583
1772536727359677400,3.385677490234375,0.2486784082263708,-0.6877975552439689,0.40779169633984563
1772536727369726200,3.395726318359375,0.09990531234145164,-0.7214885201826691,0.40372707724943757
1772536727379775200,3.405775146484375,-0.13778408435881137,-0.7672241431802511,0.4263893562387675
1772536727389824300,3.41582421875,-0.2579430801779032,-0.7219763036996125,0.46223348062336445
1772536727399873300,3.425873291015625,-0.41538522020876406,-0.7331158296123147,0.3789786761684343
1772536727409921300,3.43592138671875,-0.4713718958467245,-0.6723854665786028,0.24599147069733587
1772536727419970300,3.44597021484375,-0.6437666903376579,-0.5243664039313792,0.17519746735412625
1772536727430019300,3.456019287109375,-0.8072913651525974,-0.5140241658762097,0.09524575956519693
1772536727440068400,3.466068359375,-0.7760784807652235,-0.44724195545762774,-0.056650144515372806
1772536727450117400,3.476117431640625,-0.6900859584420919,-0.27413375200033185,-0.10020875226743518
1772536727460165400,3.486165283203125,-0.6663613839834928,-0.25309739371240136,-0.09817600433081387
1772536727470214400,3.49621435546875,-0.6341805313467979,-0.2625833071991801,-0.08332235326580703
1772536727480263200,3.50626318359375,-0.47672845444381234,-0.22541297571212052,-0.06772661512922495
1772536727490312400,3.5163125,-0.3411100236862898,-0.24815292304754255,-0.02530994395390153
1772536727500361500,3.526361572265625,-0.3552209666252136,-0.3643807168975472,0.09574278583452105
1772536727510410200,3.53641015625,-0.5083119257092475,-0.49976650794297456,0.24070045161712914
1772536727520458500,3.54645849609375,-0.6467448293656111,-0.588304915356636,0.3067619830783456
1772536727530507300,3.55650732421875,-0.7205839725583791,-0.5806544006034732,0.23982279199976472
1772536727540556500,3.566556640625,-0.7152712531030178,-0.5891971880212425,0.1799380860099569
1772536727550605300,3.576605224609375,-0.7848445555448532,-0.5364835427045822,0.16320158034041524
1772536727560654300,3.586654296875,-0.9357067326635121,-0.42842298095822334,0.09891111367233096
1772536727570702300,3.596702392578125,-1.0037392354041337,-0.17853928859531878,-0.051370998536050316
1772536727580751400,3.60675146484375,-0.9546808977246284,0.13401070329993964,-0.2635485355021432
1772536727590800400,3.61680029296875,-0.738648621559143,0.39609249071776864,-0.4346094145081937
1772536727600849400,3.626849365234375,-0.5267091676652431,0.6641393240198492,-0.5118226007113232
1772536727610898200,3.636898193359375,-0.35072248616218565,0.8938803920641542,-0.4283860830139368
1772536727620946400,3.646946533203125,-0.09889408947229385,0.948844154395163,-0.44818913664724674
1772536727630995200,3.6569951171875,0.2470575290262699,1.110142677593231,-0.39374786382038146
1772536727641044500,3.66704443359375,0.3386854268878698,1.142996899446845,-0.26748675173390657
1772536727651093200,3.67709326171875,0.343317762863636,1.0311498048990964,-0.1536401173993945
1772536727661142300,3.687142333984375,0.2472054130643606,0.9590560440689325,0.0018101546945050357
1772536727671191600,3.697191650390625,0.16730711596310138,0.8783245110139251,0.08424885699357837
1772536727681239300,3.7072392578125,0.004795417582988739,0.8412629005983472,0.06413260922525078
1772536727691288300,3.717288330078125,-0.08650164088904858,0.8644885856240987,-0.06459412578977644
1772536727701337300,3.72733740234375,-0.062415247380733486,0.9221317962974309,-0.1674316191256046
1772536727711386400,3.737386474609375,-0.08302081303596497,0.961587608373165,-0.24987711649164557
1772536727721435400,3.747435302734375,-0.17348609685897826,0.9358204221710562,-0.3188844190811738
1772536727731483400,3.7574833984375,-0.1805956366032362,0.8907602142170071,-0.38270482055209576
1772536727741532400,3.767532470703125,-0.13720657673180103,0.8498448509827256,-0.39063371385522183
1772536727751581400,3.77758154296875,-0.18888357247710227,0.7662085363969207,-0.3422165601560846
1772536727761630200,3.787630126953125,-0.2825438529491424,0.669839289227128,-0.3066131491921842
1772536727771679500,3.797679443359375,-0.2556517543703318,0.5874076742559671,-0.28426673121899365
1772536727781728300,3.807728271484375,-0.13829028031527996,0.5439508098453283,-0.25742062720637765
1772536727791776500,3.817776611328125,0.007737900775671005,0.5057695477500558,-0.20180315020699052
1772536727801825300,3.8278251953125,0.16791034255325793,0.4734069088056683,-0.1584421108536422
1772536727811874300,3.837874267578125,0.2739969738781452,0.42535657912492747,-0.11097286899648606
1772536727821923300,3.84792333984375,0.3145996179014444,0.36617929075211286,-0.09294730989709496
1772536727831972400,3.857972412109375,0.4040045790165663,0.3269230929017067,-0.12986863505914806
1772536727842020400,3.868020263671875,0.532585950744152,0.2540574709162116,-0.13565872623529285
1772536727852069400,3.8780693359375,0.5723860462129116,0.19034370815753934,-0.1583129680486396
1772536727862118100,3.8881181640625,0.6259820273220539,0.11960457680672407,-0.1421656239112839
1772536727872167400,3.89816748046875,0.6450000315248966,0.004233107525110244,-0.11108754488471895
1772536727882216400,3.908216552734375,0.6276596051454544,-0.08234072181731462,-0.12211875158473849
1772536727892265200,3.91826513671875,0.6685311292380094,-0.15922960796952246,-0.11201342755798249
1772536727902313200,3.928313232421875,0.6591641659557819,-0.20668547888845204,-0.0986102310296148
1772536727912362200,3.9383623046875,0.6551619445770979,-0.2772527608036995,-0.10070979712475091
1772536727922411500,3.94841162109375,0.6890308964312076,-0.3585460193946957,-0.12033975921347737
1772536727932460300,3.958460205078125,0.6925210766345262,-0.3857371009200811,-0.12874039821419864
1772536727942509300,3.96850927734375,0.7193079612731933,-0.4149333847880363,-0.15860413301493972
1772536727952557300,3.978557373046875,0.6875333513498306,-0.4368003486812114,-0.17776936366874724
1772536727962606300,3.9886064453125,0.6282417889475822,-0.47597442120611666,-0.18459990380853414
1772536727972655400,3.9986552734375,0.6436772584885359,-0.540704375270009,-0.19724165097773075
1772536727982704400,4.008704345703125,0.6627642362743615,-0.5944573005065321,-0.19935287097804247
1772536727992753200,4.018753173828125,0.595388151615858,-0.6316840383559466,-0.21277714682705698
1772536728002801400,4.028801513671875,0.5480751962989568,-0.677207772168517,-0.23707813293412328
1772536728012850200,4.03885009765625,0.47586511561274525,-0.7222282326340675,-0.20329123334027827
1772536728022899500,4.0488994140625,0.3844289409309625,-0.7263546649143099,-0.18590915977619588
1772536728032948200,4.0589482421875,0.3615782266974449,-0.7255652681022882,-0.22504414239972828
1772536728042997200,4.068997314453125,0.30906945630311966,-0.7495560922816396,-0.19463990751411764
1772536728053046500,4.079046630859375,0.2485650109797716,-0.783815212497115,-0.22220168551541863
1772536728063094300,4.08909423828125,0.2648731717020273,-0.8174038861051202,-0.21877426835000513
1772536728073143300,4.099143310546875,0.21107611506283283,-0.8325526476591825,-0.1786736190320924
1772536728083192300,4.1091923828125,0.13714987810850143,-0.8900380374222994,-0.14531447986364363
1772536728093241300,4.119241455078125,0.06996902376115322,-0.8728095469847321,-0.1184666588179767
1772536728103290400,4.129290283203125,0.030690906339883802,-0.8447840604618191,-0.10036986111328006
1772536728113338400,4.13933837890625,0.00964519570171833,-0.8434212476760149,-0.10346318748611956
1772536728123387400,4.149387451171875,-0.038781273815035815,-0.8269009055078029,-0.09933449018355459
1772536728133436400,4.1594365234375,-0.05346212559640407,-0.7602166025057434,-0.1555829220302403
1772536728143485200,4.169485107421875,-0.06418985583782195,-0.7405281516954302,-0.16605707936938852
1772536728153534500,4.179534423828125,-0.1195049158245325,-0.7278364279046654,-0.09409600500818341
1772536728163583200,4.189583251953125,-0.255013456466794,-0.7113368362635374,-0.07227649698592722
1772536728173631500,4.199631591796875,-0.3035170828729868,-0.6936378057047724,-0.09814812994319945
1772536728183680300,4.20968017578125,-0.3715694593578577,-0.6547255989864468,-0.09122830408476293
1772536728193729300,4.219729248046875,-0.49565468870997426,-0.6004319910019635,-0.11035714825093745
1772536728203778300,4.2297783203125,-0.5629477712601423,-0.5115048765316605,-0.11886091883257031
1772536728213827300,4.239827392578125,-0.6099357324063778,-0.4550035293698311,-0.13324801183175294
1772536728223875300,4.249875244140625,-0.5365291354119778,-0.4415723853886127,-0.09090984925273805
1772536728233924400,4.25992431640625,-0.46326107010543344,-0.43831513715833426,-0.0405397348549217
1772536728243973400,4.269973388671875,-0.521229859471321,-0.3291659033924341,0.047348501554317766
1772536728254022400,4.2800224609375,-0.5951730475604534,-0.2904457121148705,0.17021441824454814
1772536728264071400,4.290071533203125,-0.5562105719596148,-0.312694368802011,0.28379023628104477
1772536728274120400,4.300120361328125,-0.5513263070493937,-0.2815735466122627,0.37536249496527013
1772536728284168200,4.310168212890625,-0.6076484982520342,-0.21550708324760198,0.45420141920670865
1772536728294217500,4.320217529296875,-0.6959241630762815,-0.14011369635015725,0.4811628566946834
1772536728304266500,4.3302666015625,-0.7921405577719212,-0.03795242177546024,0.4408320153500884
1772536728314315300,4.340315185546875,-0.9330991805136203,0.08939970041811465,0.368803940167278
1772536728324364500,4.350364501953125,-1.1304062979429959,0.22990035025924443,0.2909322535227984
1772536728334412300,4.360412353515625,-1.283545772343874,0.40139059712588787,0.19410145325586198
1772536728344461600,4.370461669921875,-1.3305296418368815,0.6285995163440704,0.1420319510616362
1772536728354510300,4.38051025390625,-1.1973773089319466,0.857777689808607,0.07640475589707493
1772536728364559400,4.390559326171875,-1.0353817433804273,1.0836854633003472,0.15709350925628096
1772536728374608400,4.4006083984375,-0.9500555760115384,1.1247539712697268,0.13579101084545253
1772536728384656400,4.410656494140625,-0.5058440742909908,1.178586683744192,-0.019153905542194843
1772536728394705400,4.420705322265625,-0.2838257094532251,1.3610761712700128,0.14460428576767445
1772536728404754400,4.43075439453125,-0.4174135111659765,1.2639122665911913,0.27415859418064353
1772536728414803200,4.44080322265625,-0.5121779534876346,1.0380933404266834,0.3938584480553865
1772536728424852500,4.4508525390625,-0.4743330837398767,0.9474676053449511,0.48640455674044786
1772536728434900700,4.460900634765625,-0.33058395349681374,0.8691612536102533,0.529121270308271
1772536728444949800,4.47094970703125,-0.25326398245096204,0.7935068776890635,0.5609700414463877
1772536728454998800,4.480998779296875,-0.26365444356203077,0.7694508793190121,0.5430018750900403
1772536728465047800,4.4910478515625,-0.1938800655901432,0.8085445800840854,0.5148305503556505
1772536728475096600,4.5010966796875,-0.13797580753862856,0.8491481008902192,0.447317249183543
1772536728485145900,4.511145751953125,-0.08312310436666011,0.8506856857210398,0.3688017116775736
1772536728495193600,4.521193603515625,-0.09507248535752295,0.8192144426584244,0.34395810659378767
1772536728505243000,4.531242919921875,-0.14777940867245196,0.8302753503769635,0.310021277135238
1772536728515291600,4.541291748046875,-0.176843590593338,0.8051914702638984,0.2678828749120235
1772536728525340700,4.551340576171875,-0.14600772282481192,0.7584221203044056,0.21655714028980583
1772536728535389700,4.5613896484375,-0.03518997132480144,0.7247367083236574,0.19317502259332686
1772536728545437700,4.571437744140625,0.04075228162705898,0.6939648457020521,0.20742873500380662
1772536728555486700,4.58148681640625,0.13789923517107963,0.6822647632971406,0.1909373997343704
1772536728565535700,4.59153564453125,0.2353419567912817,0.6977893724262714,0.2186308047587052
1772536728575584800,4.601584716796875,0.33711540109217164,0.75510349727571,0.230922240652889
1772536728585633800,4.6116337890625,0.4952607209563255,0.789807730910182,0.2507870709434151
1772536728595682800,4.621682861328125,0.6602315029263496,0.8016139040380715,0.32438904437944294
1772536728605730800,4.631730712890625,0.7416612473785876,0.7509238735035061,0.394983250834234
1772536728615779800,4.64177978515625,0.8260808212965727,0.6640814563527703,0.4297732995886355
1772536728625828900,4.651828857421875,0.9189765471369028,0.560531357768178,0.4934773812035098
1772536728635878000,4.6618779296875,0.9262678731888532,0.4718377597928047,0.5395329203378408
1772536728645926700,4.6719267578125,0.8898194262355565,0.38036563701480625,0.5615089340960606
1772536728655975000,4.681974853515625,0.834064221265912,0.2616504102632403,0.5787242727911099
1772536728666023700,4.692023681640625,0.7486053674280643,0.18273790932893752,0.5595621474098413
1772536728676073000,4.702072998046875,0.6820780085533857,0.11958674888908863,0.5452394248837604
1772536728686121700,4.712121826171875,0.629213848850131,0.06925123088061809,0.5159999959938227
1772536728696170800,4.722170654296875,0.502641478857398,0.008289981700479983,0.44065380923897024
1772536728706218800,4.73221875,0.3608516659885645,-0.03994797950685024,0.3184692258764058
1772536728716267800,4.742267822265625,0.30591771427392955,-0.1163286238759756,0.2530229767693207
1772536728726316800,4.75231689453125,0.2581470783174038,-0.1803863777667284,0.2062024446118623
1772536728736365800,4.76236572265625,0.23345979630649089,-0.2086900967091322,0.18112375213056803
1772536728746414600,4.77241455078125,0.2538631173878908,-0.2944102318316698,0.23160835975352673
1772536728756462800,4.782462890625,0.2524678636372089,-0.4305073860168457,0.3245754337970167
1772536728766511600,4.79251171875,0.21768822667896745,-0.551844193443656,0.4269421678159386
1772536728776561000,4.802560791015625,0.1603963136613369,-0.6456959048345685,0.5372609568178653
1772536728786609700,4.812609619140625,0.06161211430430412,-0.7461994753301143,0.6028558206154033
1772536728796658700,4.82265869140625,-0.021046879681944845,-0.8039657278612256,0.6136903356995433
1772536728806708000,4.8327080078125,-0.027208909443020818,-0.7932479344919323,0.6272786430038512
1772536728816755700,4.842755615234375,0.03585457271337509,-0.7949453860595822,0.5880717276552692
1772536728826805000,4.852804931640625,0.041670565515756604,-0.7855033117145299,0.6353798971991985
1772536728836853800,4.862853759765625,-0.11714753904342651,-0.7605030182316899,0.6772831754922867
1772536728846902800,4.87290283203125,-0.23875381106138227,-0.7533204132512211,0.6190916832864284
1772536728856951800,4.882951904296875,-0.3541793486177921,-0.71245093498528,0.5458180284893139
1772536728866999800,4.892999755859375,-0.368937357288599,-0.6449933095231651,0.5018470040114597
1772536728877048800,4.903048828125,-0.41407472213208674,-0.6025728024229406,0.4352081841189414
1772536728887097900,4.913097900390625,-0.4320107763171196,-0.5485720399051904,0.35983364805243906
1772536728897146600,4.923146728515625,-0.30883038685023784,-0.4789376549258828,0.34513142468947916
1772536728907196000,4.93319580078125,-0.4974491709113121,-0.5363429651901126,0.31878190855477
1772536728917243600,4.94324365234375,-0.4714402849078178,-0.4823813656389713,0.39585042559020217
1772536728927293000,4.95329296875,-0.30898177801966664,-0.4864586980804801,0.4635167618995532
1772536728937341700,4.963341796875,-0.3103951519489288,-0.5915305994048714,0.49417281612176445
1772536728947390700,4.973390625,-0.3535042258352041,-0.7097066047132015,0.5620657277286052
1772536728957439700,4.983439697265625,-0.4453413825333118,-0.7910521780133247,0.6625804041400551
1772536728967488800,4.99348876953125,-0.7567547716140747,-0.718019967289269,0.6413644515015184
1772536728977536800,5.003536865234375,-0.983203227853775,-0.6205462660089135,0.4891125735901296
1772536728987585800,5.013585693359375,-0.8851578641653061,-0.5423629561319947,0.32835765574946996
1772536728997634600,5.023634521484375,-0.848963684234023,-0.3889741831451654,0.16677099979240445
1772536729007683800,5.033683837890625,-0.9192658854722976,-0.2236298916876316,0.020006229788903145
1772536729017732900,5.04373291015625,-0.9119231214940547,0.014767653281986712,-0.1674958982671611
1772536729027780900,5.05378076171875,-0.8959306025922298,0.29284195960164067,-0.344491263622418
1772536729037830000,5.063829833984375,-0.8184422892421483,0.4948185301467776,-0.48043249659352
1772536729047878700,5.073878662109375,-0.7199182021260261,0.61905135127604,-0.5179996453784406
1772536729057928000,5.083927978515625,-0.6223381178617478,0.6934121802553534,-0.5293219805121422
1772536729067976700,5.093976806640625,-0.41840076863765713,0.7683870494797825,-0.5545840667363255
1772536729078025000,5.10402490234375,-0.22867840724885463,0.8619482534915208,-0.5465845924150199
1772536729088073700,5.11407373046875,-0.13345979141891,0.9235171131759882,-0.48665907949078824
1772536729098122800,5.124122802734375,-0.16376432878971098,0.8958449701353907,-0.3322564532862976
1772536729108171800,5.134171875,-0.15288228476941584,0.8525850896015763,-0.27067281615780664
1772536729118220800,5.144220703125,-0.0493348165333271,0.8375561550348997,-0.2566084705732763
1772536729128269600,5.15426953125,-0.040269466546177864,0.8443450845226645,-0.26632432035841047
1772536729138317800,5.16431787109375,-0.15525193651020525,0.8380407236814499,-0.2987727378901094
1772536729148366600,5.17436669921875,-0.23511691586375236,0.8467240886136889,-0.37812012311033905
1772536729158416000,5.184415771484375,-0.21713877610266208,0.8973097819909452,-0.4990008573327213
1772536729168464600,5.194464599609375,-0.16071780070066452,0.9038625646352767,-0.5380923661407083
1772536729178513700,5.204513671875,-0.17425708123147488,0.8856751660376787,-0.5471184435633942
1772536729188561700,5.214561767578125,-0.2912164042264223,0.8559162798509001,-0.5592166219078004
1772536729198610700,5.224610595703125,-0.3686100250303745,0.8000172824963927,-0.5426226299814879
1772536729208659700,5.23465966796875,-0.3381681250154972,0.7671297428950667,-0.5162021309698
1772536729218708700,5.244708740234375,-0.2755833662867546,0.7511722953066229,-0.4616707321740687
1772536729228757800,5.2547578125,-0.14892039540112018,0.7188917816877365,-0.4393154002420604
1772536729238806800,5.264806884765625,0.028906945532560346,0.6720464438825845,-0.41825500349141653
1772536729248854800,5.274854736328125,0.16659341473579406,0.6274710968360304,-0.3865729672223329
1772536729258903800,5.28490380859375,0.2726286081343889,0.5959186052307486,-0.3830851616391912
1772536729268952800,5.294952880859375,0.48330257213711736,0.5221349916175008,-0.350406880874373
1772536729279001600,5.305001708984375,0.5712637641847134,0.39360008938014507,-0.23450607222272082
1772536729289051000,5.31505078125,0.5078776259452105,0.20853081449419258,-0.1676113413403742
1772536729299098600,5.3250986328125,0.6442956826478242,0.14369506196826695,-0.08084259221404791
1772536729309148000,5.33514794921875,0.6517956830143928,0.045454175707697865,-0.03443195603173226
1772536729319196700,5.34519677734375,0.6641635816782713,-0.09620704234540461,-0.04327625627988018
1772536729329245700,5.35524560546875,0.668108519911766,-0.17870032437592745,-0.012907526532490736
1772536729339293700,5.365293701171875,0.5788578725755215,-0.2179422014400363,-0.0281269878357416
1772536729349342700,5.3753427734375,0.5227618913441896,-0.26033845088183877,-0.06644451659654732
1772536729359391700,5.385391845703125,0.4615022437393665,-0.2651540344700217,-0.04739886176837608
1772536729369440800,5.395440673828125,0.3486766595482826,-0.26925007161200043,-0.05373134359237738
1772536729379489500,5.405489501953125,0.38445875154733655,-0.2887725182056427,-0.09004836445203981
1772536729389538800,5.415538818359375,0.33126550602018834,-0.23248130666315553,-0.11949123435905203
1772536729399586600,5.425586669921875,0.22854279817044734,-0.20823066250383854,-0.14453667302471584
1772536729409635800,5.4356357421875,0.17543313927352427,-0.2606295427829027,-0.1670092107287608
1772536729419684900,5.445684814453125,0.34354221926927564,-0.25111703355014325,-0.21970932071041316
1772536729429733400,5.4557333984375,0.3657020286291838,-0.2163335971996188,-0.21044972679279744
1772536729439782400,5.465782470703125,0.3392974213063717,-0.314372823408246,-0.19666706596016884
1772536729449830400,5.475830322265625,0.37686990385353564,-0.3529980298787355,-0.116258755243849
1772536729459879400,5.48587939453125,0.4673457090705633,-0.3925453196302056,-0.11956625409033149
1772536729469928200,5.49592822265625,0.5619540840476751,-0.46433980525285,-0.07929269589092582
1772536729479977500,5.5059775390625,0.5329506924033165,-0.509982197009027,-0.06323612617640756
1772536729490026200,5.516026123046875,0.5251841500550508,-0.5889511043056845,-0.016356233081105166
1772536729500075300,5.5260751953125,0.47749067098796366,-0.656379503673315,0.012263086582534015
1772536729510123300,5.536123291015625,0.3955634984076023,-0.674680884039402,0.028371085090190172
1772536729520172300,5.54617236328125,0.46089141836464403,-0.6893316329434513,-0.008996938093169591
1772536729530221600,5.5562216796875,0.4992185186713934,-0.6763534934267401,-0.013203322008135728
1772536729540270300,5.566270263671875,0.39271161610782146,-0.6850853736758231,0.02602589193722233
1772536729550319400,5.5763193359375,0.2796878789961338,-0.7423124047636985,0.011253731443476862
1772536729560367400,5.586367431640625,0.23050270006656645,-0.7750003301396966,-0.027895179240708237
1772536729570416400,5.59641650390625,0.1281540862262249,-0.8058432121708988,-0.046345251929061484
1772536729580465400,5.60646533203125,0.015344868648052215,-0.8282312773287296,-0.10641347952592187
1772536729590514400,5.616514404296875,-0.028895255094766616,-0.8220806457445025,-0.15976148635651916
1772536729600563200,5.626563232421875,-0.08256020978689194,-0.7917728935033083,-0.21278909299317747
1772536729610611500,5.636611572265625,-0.2013444101214409,-0.7689365000560879,-0.24850590120367705
1772536729620660200,5.64666015625,-0.29116438177824017,-0.7432341957837343,-0.29181851657172664
1772536729630709500,5.65670947265625,-0.38869887333512304,-0.7034469597965478,-0.29278593683177606
1772536729640758300,5.66675830078125,-0.4588438381850719,-0.7328256144940852,-0.22438038126137105
1772536729650807300,5.676807373046875,-0.4602969596028328,-0.8169006127581,-0.10834529697187244
1772536729660855300,5.686855224609375,-0.5580640908718109,-0.8711340149879455,-0.04634461260824464
1772536729670904300,5.696904296875,-0.7526333077698946,-0.7881286917820572,-0.07773778546596877
1772536729680953300,5.706953369140625,-0.9205980108588934,-0.6405427598550916,-0.11447212755540385
1772536729691002400,5.71700244140625,-1.0474030205637217,-0.536207940633595,-0.13556582378745077
1772536729701051100,5.727051025390625,-1.1389642829298972,-0.3841080384135246,-0.2048119401015341
1772536729711100400,5.737100341796875,-1.1629624136328696,-0.1406190155237913,-0.34526491487603633
1772536729721148200,5.747148193359375,-1.1069658011227845,0.18840338774472473,-0.43876218680609014
1772536729731197400,5.757197509765625,-1.0482534999132156,0.3514613218307495,-0.3448131159879267
1772536729741246500,5.76724658203125,-0.7844394818753003,0.4537716494873166,-0.32544290081392974
1772536729751295200,5.777295166015625,-0.582789951327443,0.6310144685313105,-0.1774957343591377
1772536729761344500,5.787344482421875,-0.4987573309004307,0.6372022172555327,-0.04847834583446383
1772536729771392300,5.797392333984375,-0.5383429068356752,0.6090133568644523,0.05880334049388766
1772536729781441500,5.807441650390625,-0.5616758516281842,0.5631529384434223,0.2334086141085252
1772536729791490300,5.817490234375,-0.5819558385908603,0.47598991103619337,0.4327197648366913
1772536729801539300,5.827539306640625,-0.611108283317089,0.44327568217515945,0.562420167189464
1772536729811588400,5.83758837890625,-0.5294774633347988,0.5042682032763958,0.5736633726723491
1772536729821636400,5.84763623046875,-0.3982902930229902,0.6502677427947521,0.507430722427927
1772536729831685400,5.857685302734375,-0.25117139408588407,0.8094114260464906,0.43232996180150657
1772536729841734400,5.867734375,-0.13195347850918768,0.933157632702589,0.3747719817262143
1772536729851783200,5.877783203125,-0.05964286005795002,1.030257239973545,0.3033557913640514
1772536729861832400,5.88783251953125,0.052663668695092196,1.1038400703176856,0.2806660763785243
1772536729871880200,5.897880126953125,0.11293605882823467,1.092833815395832,0.37369638838395475
1772536729881929500,5.907929443359375,0.1420487560659647,0.9996537196561693,0.4462971488881856
1772536729891978200,5.917978271484375,0.19518121131658553,0.9462360177233815,0.48182866365965454
1772536729902027300,5.92802734375,0.32028350875675676,0.8943059239998459,0.5646214035607874
1772536729912076300,5.938076171875,0.30929625079631806,0.8228814407333731,0.7093136598728597
1772536729922125300,5.948125244140625,0.20015140094459055,0.7674334020167589,0.7604534800015389
1772536729932173300,5.95817333984375,0.13987082750499247,0.7324123575180769,0.7900437316231429
1772536729942222300,5.968222412109375,0.10140928716361522,0.7123729013130068,0.8205613272227347
1772536729952271400,5.978271240234375,0.04477203866243362,0.7060749702125787,0.766109898328036
1772536729962320400,5.9883203125,-0.04408697900772095,0.7258025839895009,0.7042643405940383
1772536729972369400,5.998369384765625,-0.16726619943082333,0.7485121361866592,0.6367535236399621
1772536729982418200,6.008418212890625,-0.28304946438372136,0.7863383012339472,0.5535930829375982
1772536729992466400,6.018466552734375,-0.336059170037508,0.8147416811585426,0.4624960040170699
1772536730002515200,6.02851513671875,-0.3427121981859207,0.8339736203730106,0.4138988541085273
1772536730012564500,6.038564453125,-0.311672332277894,0.8292322710648179,0.3803354610722512
1772536730022613200,6.04861328125,-0.24038871878683565,0.8271820605367421,0.3458913396786898
1772536730032662300,6.058662353515625,-0.1542570802539587,0.8152373557209968,0.36003399293012917
1772536730042710300,6.068710205078125,-0.032981063103675844,0.7955918672695755,0.40099224545806644
1772536730052759300,6.07875927734375,0.0593342325001955,0.737335785394907,0.4691388395650312
1772536730062808300,6.088808349609375,0.11607494137585163,0.6593272475630044,0.5528446026578545
1772536730072857300,6.098857421875,0.18057050216197967,0.5683639510899782,0.57755150268469
1772536730082906400,6.10890625,0.2415413959532976,0.48334641127884387,0.6286255275681615
1772536730092954400,6.118954345703125,0.23276538430154323,0.3936564957424998,0.6855208424836396
1772536730103003100,6.129003173828125,0.23717677100300788,0.30931787810623645,0.7023354183580726
1772536730113052400,6.139052490234375,0.295707870426774,0.27661446290016173,0.6975361283175647
1772536730123101200,6.14910107421875,0.30405367396771904,0.27269495136886834,0.6764595841497183
1772536730133150500,6.159150390625,0.29918285306096076,0.2632134217962622,0.6634994186811148
1772536730143198200,6.1691982421875,0.33540275195538993,0.2820297659471631,0.6265231484614312
1772536730153247200,6.179247314453125,0.4055307656705379,0.2802186248719692,0.5868478484161198
1772536730163296500,6.189296630859375,0.4577069431096315,0.2591281983092427,0.5570109285570681
1772536730173345300,6.19934521484375,0.500168366742134,0.21293343336731194,0.5757653499202803
1772536730183394600,6.20939453125,0.5151765507817269,0.09460779045522212,0.6068607819404452
1772536730193442300,6.2194423828125,0.4939361943542957,-0.04865618661940097,0.6774196613535285
1772536730203491300,6.2294912109375,0.45942660650908945,-0.17882482753843068,0.7356838534694164
1772536730213540400,6.239540283203125,0.3886147021830082,-0.28724574702978134,0.757930099003762
1772536730223589400,6.24958935546875,0.3309159619301557,-0.37200960434079167,0.7853812927700579
1772536730233638400,6.259638427734375,0.27590602236986156,-0.38709085361659523,0.8010919990558176
1772536730243687400,6.2696875,0.20778642586767673,-0.3508572184577584,0.7756739916175603
1772536730253735400,6.2797353515625,0.1903770259052515,-0.2967883591398597,0.7127090013995766
1772536730263784400,6.289784423828125,0.18298983826339243,-0.2512134796619415,0.6794401343304663
1772536730273833200,6.299833251953125,0.07022972052395343,-0.23390637103021145,0.662106576083228
1772536730283882500,6.309882568359375,-0.005338438418507576,-0.2668389188170433,0.6217809223704039
1772536730293931300,6.31993115234375,-0.0944394481509924,-0.3071706369444728,0.6572876314941793
1772536730303979500,6.3299794921875,-0.1629220327466726,-0.3496645015418529,0.6885958660148084
1772536730314028300,6.3400283203125,-0.26574469383955,-0.36379765631258487,0.721352984169498
1772536730324077300,6.350077392578125,-0.5326151768386364,-0.3464703816756606,0.7156202857363969
1772536730334126300,6.360126220703125,-0.6788216371059417,-0.30609102501422164,0.6018734585145488
1772536730344175400,6.37017529296875,-0.7162398058742284,-0.23180296901017425,0.5200610714202747
1772536730354223400,6.380223388671875,-0.7587018140286207,-0.14547405433952806,0.44415630093459035
1772536730364272400,6.3902724609375,-0.7469435716956854,-0.09123714497834444,0.3559619577182457
1772536730374321400,6.4003212890625,-0.7287152565658092,-0.07631108626425266,0.3075861224101856
1772536730384370400,6.410370361328125,-0.6735241152197122,-0.1511193667501211,0.413449941297248
1772536730394419500,6.42041943359375,-0.6724608699023723,-0.36616263187825676,0.5963995936807245
1772536730404467500,6.430467529296875,-0.9766711957365274,-0.485345476141572,0.7134950372107327
1772536730414516500,6.4405166015625,-1.3563935664117335,-0.42759880509376524,0.6564264115549624
1772536730424565200,6.450565185546875,-1.4186527464479206,-0.31832769851386544,0.5045078937837854
1772536730434614500,6.460614501953125,-1.2144932789057492,-0.1996075033262372,0.3042582200964913
1772536730444663300,6.470663330078125,-1.0293179132968187,-0.030028643038868902,0.12959909740276634
1772536730454711600,6.480711669921875,-0.86551208345294,0.17514350867718456,-0.040031639202311634
1772536730464760300,6.49076025390625,-0.7026894194275141,0.3579457154139876,-0.17148922395333646
1772536730474809300,6.500809326171875,-0.5663409208297729,0.4874363109409809,-0.21545093261357395
1772536730484858400,6.5108583984375,-0.4201239391684532,0.45823184376657006,-0.13583832058589904
1772536730494907400,6.520907470703125,-0.22037235119640827,0.35103754346072674,-0.06372055782563985
1772536730504956400,6.530956298828125,-0.02022621094882488,0.3982099212631583,0.0689087558521889
1772536730515004400,6.54100439453125,-0.10666706156134605,0.38998832862377164,0.13240135014085097
1772536730525053400,6.551053466796875,-0.15677169342339037,0.3781903388023376,0.16552450686264783
1772536730535102500,6.5611025390625,-0.18993512735664844,0.46305736422687765,0.1588865849518217
1772536730545151500,6.5711513671875,-0.26077333516776563,0.5544426855042577,0.035433406425546855
1772536730555200300,6.5812001953125,-0.2516296592473984,0.6652551763072609,-0.11370245835715904
1772536730565248500,6.59124853515625,-0.24420038602948188,0.7547706120595336,-0.26140074635110794
1772536730575297300,6.60129736328125,-0.2385311082214117,0.8074088540524244,-0.37705987346768377
1772536730585346600,6.6113466796875,-0.24193945536017417,0.8007000040635466,-0.4309645551998168
1772536730595395300,6.621395263671875,-0.27147710001170633,0.7038859357357025,-0.4514744784608483
1772536730605444400,6.6314443359375,-0.29161154102385045,0.597171235640347,-0.4051702983276918
1772536730615492400,6.641492431640625,-0.3144873896986246,0.5007572725459933,-0.31229689391702414
1772536730625541400,6.651541259765625,-0.2871042927324772,0.40821021401286123,-0.19966847626585513
1772536730635590400,6.66159033203125,-0.2827332380414009,0.3226753723293543,-0.09100508978813886
1772536730645639400,6.671639404296875,-0.3023018618643284,0.2750073199644685,-0.047025918536446984
1772536730655688200,6.681688232421875,-0.27202012084722516,0.2748667424499988,-0.05744045464284718
1772536730665736400,6.691736328125,-0.23085575128793714,0.3547515955477953,-0.1465367516675964
1772536730675785200,6.70178515625,-0.177470198059082,0.449705130700767,-0.304139964011684
1772536730685834500,6.71183447265625,-0.08331365850269794,0.5256739793986082,-0.4451273379238322
1772536730695883300,6.72188330078125,0.04275076196789741,0.5456865475967526,-0.5168216876402497
1772536730705932300,6.731932373046875,0.14239070137143134,0.49265258428454395,-0.491227154591307
1772536730715980300,6.741980224609375,0.1635848805695772,0.4117927486747503,-0.42839875983241943
1772536730726029300,6.752029296875,0.22535423126220702,0.30304303562045093,-0.360900363968499
1772536730736078600,6.76207861328125,0.34310090524256226,0.20987696840614078,-0.2764213149482384
1772536730746127400,6.77212744140625,0.4034247333019972,0.12032412325292825,-0.19913561149816958
1772536730756176400,6.78217626953125,0.3880588218659162,0.01450198808312416,-0.17407202525446192
1772536730766224400,6.792224365234375,0.4083469921350479,-0.05933861641436815,-0.16680028068581595
1772536730776273400,6.8022734375,0.5195704018265008,-0.11740180606544016,-0.1451647143957205
1772536730786322400,6.812322509765625,0.5699053353130817,-0.13705956947654485,-0.1780898277947679
1772536730796371500,6.822371337890625,0.6244511644929647,-0.18084931910336016,-0.19040121049843728
1772536730806420200,6.832420166015625,0.6289011296391487,-0.23770137939900157,-0.18344503468498585
1772536730816469500,6.842469482421875,0.5815630398809909,-0.25061025307178497,-0.20104703461006282
1772536730826517200,6.852517333984375,0.6744938370347022,-0.2356464926958084,-0.2126927930118516
1772536730836566500,6.86256640625,0.6553939997673034,-0.23532149852514267,-0.19986458335984497
1772536730846615300,6.872615234375,0.5330050529390573,-0.34441228010207414,-0.20206366430670022
1772536730856664300,6.882664306640625,0.5488058486610651,-0.2210565340682864,-0.08221649264944716
1772536730866713300,6.89271337890625,0.5469067370414734,-0.3248372265383601,-0.18448517312137408
1772536730876761300,6.90276123046875,0.6391530590623616,-0.38380262572616336,-0.14127042863722888
1772536730886810400,6.912810302734375,0.5976923369050026,-0.3497366899952292,-0.12528120680418797
1772536730896859400,6.922859375,0.5864584107071161,-0.4565773545578122,-0.13322653065230697
1772536730906908400,6.932908447265625,0.5534849463880062,-0.4623819491833448,-0.06777916730036959
1772536730916957400,6.94295751953125,0.4815530981212854,-0.4693006425306201,-0.08634081517099403
1772536730927005200,6.953005126953125,0.5414724370330571,-0.5048521406441927,-0.12166139973867685
1772536730937054500,6.963054443359375,0.4981190329968929,-0.47788083934932946,-0.13223715428877622
1772536730947103500,6.973103515625,0.47130233774185176,-0.5152522463664412,-0.16508956777779385
1772536730957152300,6.98315234375,0.46742052787244315,-0.5691510098144412,-0.14374050854519008
1772536730967201500,6.993201416015625,0.340080096116662,-0.5713768691703677,-0.009112257868796587
1772536730977249300,7.003249267578125,0.303240604019165,-0.6871145414158701,-0.06943821395323611
1772536730987298600,7.013298583984375,0.4276058193564415,-0.6909235783100128,-0.08558236148650758
1772536730997347300,7.023347412109375,0.35605274127423764,-0.6471878969579935,0.029483183651091528
1772536731007396400,7.033396240234375,0.21580606619417667,-0.7192389876902103,0.04581588515955955
1772536731017445400,7.0434453125,0.10972878721952438,-0.7111264083832501,0.020908265795698388
1772536731027493400,7.053493408203125,0.08491758656799793,-0.6450815723285078,-0.003121917713084258
1772536731037542400,7.06354248046875,0.05950257480442524,-0.611130787409842,-0.06013759390548803
1772536731047591400,7.07359130859375,-0.006081365740299225,-0.5695768340110778,-0.11871801236369646
1772536731057640200,7.08364013671875,-0.07342179456353187,-0.5583288792878389,-0.15607233124868944
1772536731067689500,7.093689453125,-0.1499479848831892,-0.5484045743837952,-0.18653733814451842
1772536731077737200,7.1037373046875,-0.1987730983287096,-0.5156149421989917,-0.1594326745272614
1772536731087786500,7.113786376953125,-0.25140754092931744,-0.49523061807900665,-0.15494948296491057
1772536731097835300,7.123835205078125,-0.26924831804633137,-0.5155515215739608,-0.08253633572096004
1772536731107884300,7.13388427734375,-0.2445914311736822,-0.6726204443782567,0.1288830946205184
1772536731117933600,7.14393359375,-0.41071313674449916,-0.8064578369379043,0.25528814522232857
1772536731127981300,7.153981201171875,-0.8359715161919593,-0.7422226806536316,0.3018391945223324
1772536731138030300,7.1640302734375,-1.1747551427572964,-0.5795353334456682,0.28516684013018384
1772536731148079400,7.174079345703125,-1.2956225791066884,-0.3735395903870463,0.2219132239628583
1772536731158128400,7.18412841796875,-1.3419172972917557,-0.13161679390072822,0.05581263424530625
1772536731168177400,7.194177490234375,-1.4641560219943524,0.24266455476433038,0.016879896195605395
1772536731178226400,7.204226318359375,-1.4001502905517815,0.416674090975523,-0.14778127183597534
1772536731188274400,7.2142744140625,-1.0575503205686807,0.6697735305145383,-0.18628814915642142
1772536731198323500,7.224323486328125,-0.8726900122582912,0.7908698071837424,-0.07206672669276595
1772536731208372500,7.23437255859375,-0.7096247716486453,0.8305553363621234,-0.06879588832855224
1772536731218421500,7.24442138671875,-0.6696469815254211,0.9252423295333981,0.1733006207568571
1772536731228470300,7.25447021484375,-0.6830126590549945,0.953741571047902,0.38424262457862496
1772536731238518500,7.2645185546875,-0.6040238780140876,0.9109314801082015,0.5500993956029415
1772536731248567300,7.2745673828125,-0.5096773688435554,0.9319374432578682,0.7295508306071162
1772536731258616300,7.2846162109375,-0.4752320784062147,0.9713815648958086,0.9069349578179419
1772536731268665300,7.294665283203125,-0.3658779697179794,1.0340420192092656,0.9344424848813563
1772536731278714400,7.30471435546875,-0.10620119761526584,1.0839370999738573,0.8600529412642121
1772536731288762400,7.314762451171875,0.016541384956240652,1.128744209949672,0.8856322767440229
1772536731298811400,7.324811279296875,0.02763619494438171,1.093027876663208,0.9302828079186379
1772536731308860400,7.3348603515625,0.11137596990466117,1.0344894707158208,0.9351987831413745
1772536731318909400,7.344909423828125,0.164801270622015,1.0504670843094586,0.9366031700465828
1772536731328958500,7.35495849609375,0.17605565508604049,1.0142615062013267,0.9733165515463799
1772536731339006500,7.36500634765625,0.2616238145172596,0.975452175335586,0.9624018473654985
1772536731349055200,7.37505517578125,0.3032289135813713,0.9362970997720956,1.0823493923909961
1772536731359104500,7.3851044921875,0.24231997911036013,0.9075532358467578,1.1559536308493465
1772536731369153500,7.395153564453125,0.22311317433714864,0.9397419795289635,1.0854105335272848
1772536731379202300,7.405202392578125,0.28278350692391396,0.9428931370362639,1.0754274841733276
1772536731389250300,7.415250244140625,0.31371465176045893,0.9383373734280467,1.1338289658680558
1772536731399299300,7.42529931640625,0.3201858936011791,0.9062146807193756,1.1483672673735767
1772536731409348600,7.4353486328125,0.3072235361754894,0.8547010588422417,1.2054980715453625
1772536731419397400,7.4453974609375,0.12282032398283481,0.7662146738767623,1.2815654121816158
1772536731429446400,7.4554462890625,0.020659926190972327,0.6716928081393242,1.274772391040623
1772536731439494400,7.465494384765625,-0.009685527712106705,0.6564262654244899,1.2173386583995074
1772536731449543400,7.47554345703125,-0.12409399718046188,0.6754565445870161,1.11135249177441
1772536731459592700,7.4855927734375,-0.2737093891084194,0.6525254585936665,1.024919678337872
1772536731469641500,7.495641357421875,-0.37327041805684563,0.6221764975592494,0.9511769812569022
1772536731479690500,7.5056904296875,-0.3860521582186222,0.6289619199156761,0.8589940798610448
1772536731489738500,7.515738525390625,-0.32478082017600535,0.6598495178714394,0.7609447706498205
1772536731499787500,7.52578759765625,-0.32802725475132466,0.6734560184195637,0.7528555722184479
1772536731509836500,7.53583642578125,-0.3390074984490871,0.6891232508897781,0.7302399819150567
1772536731519885600,7.545885498046875,-0.2317863101363182,0.6856254719018936,0.7036548303935677
1772536731529934300,7.555934326171875,-0.03353577437698841,0.6636363429337739,0.7288279231600463
1772536731539982600,7.565982666015625,0.038951369684934616,0.6329726168617605,0.796178434985876
1772536731550031400,7.57603125,0.06368190631568431,0.5295309470877051,0.8286606817219406
1772536731560080600,7.58608056640625,0.19741174684762955,0.46888124807476994,0.9040282765910029
1772536731570129400,7.59612939453125,0.20408932491540907,0.35168577823638913,0.9360273429200052
1772536731580178400,7.606178466796875,0.23783143551945685,0.1981938371360302,0.9780420456983149
1772536731590227500,7.6162275390625,0.2529962714254856,0.10135960280299186,0.9933230553299188
1772536731600275500,7.626275390625,0.17082710678279397,0.02642243524044752,0.9678303021550178
1772536731610324500,7.636324462890625,0.09817337398231028,0.010568155765533447,0.9653725337393582
1772536731620373500,7.64637353515625,0.08713000192046165,-0.022093173864483832,0.879407191684097
1772536731630422500,7.656422607421875,0.06630933220982552,-0.04006196127533913,0.8450095397807658
1772536731640471600,7.666471435546875,-0.04594809670448303,-0.045807519190013406,0.7929238171041011
1772536731650519300,7.676519287109375,-0.03419803767800331,-0.09600918168574571,0.7569310049638152
1772536731660568600,7.686568603515625,-0.007227613165974617,-0.10946750593483448,0.7350370799984782
1772536731670617600,7.69661767578125,-0.034573885253071784,-0.12889555224329233,0.7908612585511058
1772536731680666400,7.706666259765625,-0.007938391783833503,-0.2032078659057617,0.7667474655792117
1772536731690715600,7.716715576171875,-0.044724107867479324,-0.21682956402301787,0.8237007942922413
1772536731700763400,7.726763427734375,-0.05254384170770645,-0.2727367446839809,0.9360638755381107
1772536731710812700,7.736812744140625,0.009450549912452698,-0.34061434912383554,0.9640799366455525
1772536731720861400,7.746861328125,0.03520283080637455,-0.32626082960069175,1.0155988922849297
1772536731730910500,7.756910400390625,-0.0037479543566703794,-0.3288745192304253,1.0790722704164684
1772536731740959500,7.76695947265625,-0.033004443979263304,-0.3473383966818452,1.0585131011862308
1772536731751007500,7.777007568359375,-0.13410744167268276,-0.3222100929051637,1.0611074285283684
1772536731761056500,7.787056396484375,-0.14271335745453834,-0.3493602578982711,1.0190082623369991
1772536731771105500,7.79710546875,-0.12906827846169472,-0.387484821370244,0.9202687789045274
1772536731781154300,7.807154296875,-0.15130641375482082,-0.3839373580217361,0.8479299572721123
1772536731791203600,7.81720361328125,-0.21123452049493788,-0.46263124776929615,0.8736045698199421
1772536731801251300,7.827251220703125,-0.2850508673340082,-0.546491434238851,0.8752579630501568
1772536731811300600,7.837300537109375,-0.2783732892662287,-0.5603729523360729,0.8923881076797843
1772536731821349400,7.847349365234375,-0.2598439453631639,-0.573010023330152,0.9529947712685912
1772536731831398400,7.8573984375,-0.32017011151015756,-0.6015627485975623,1.0231550798181444
1772536731841447700,7.86744775390625,-0.4005301809042692,-0.6217699625849723,1.051735350679606
1772536731851495400,7.877495361328125,-0.4324889152228832,-0.6233604466468096,1.1163986692480743
1772536731861544400,7.88754443359375,-0.43410394920408724,-0.5568520847335457,1.1126176894046365
1772536731871593500,7.897593505859375,-0.3535165007948875,-0.49758273416310544,1.1270939585246145
1772536731881642500,7.907642578125,-0.27813772694468497,-0.5016624046921729,1.2084376321285963
1772536731891691500,7.91769140625,-0.3525093695789575,-0.5786974213168025,1.267708151742816
1772536731901739300,7.9277392578125,-0.819948017629981,-0.6240984055325388,1.273152534753829
1772536731911788500,7.93778857421875,-1.0515022725760936,-0.3908239026650786,1.2137873956587164
1772536731921837600,7.947837646484375,-1.0290034405201673,-0.19217501523792743,0.9316922363251448
1772536731931886300,7.95788623046875,-1.0588409449011087,-0.002070961055159569,0.7159597468238323
1772536731941935600,7.967935546875,-1.0639192710787058,0.24689883133322,0.5300333436518907
1772536731951983400,7.9779833984375,-0.9979922161847352,0.5178638901695609,0.3847899197304621
1772536731962032600,7.98803271484375,-0.772535693591833,0.6628925388291478,0.23765107398387042
1772536731972081400,7.998081298828125,-0.48657121854424473,0.80243749538064,0.12825590263288467
1772536731982130400,8.00813037109375,-0.4281260438382625,0.902854848897457,0.16871734808720648
1772536731992179500,8.018179443359376,-0.33450141920149323,0.8368994446918367,0.266504718426615
1772536732002227500,8.0282275390625,-0.21032441991269588,0.8216881392955779,0.3403258875712752
1772536732012276500,8.0382763671875,-0.12665186496973038,0.8094067498713732,0.3648151262594387
1772536732022325500,8.048325439453125,-0.1505441972106695,0.731580290608108,0.4797439663400873
1772536732032374300,8.058374267578126,-0.16681436401009558,0.6671607176676392,0.5363251738050953
1772536732042423600,8.068423583984375,-0.22106676320135593,0.6989125312373041,0.5441400488071143
1772536732052471300,8.07847119140625,-0.3213713039934635,0.7179591770127415,0.4935067534284666
1772536732062520600,8.0885205078125,-0.4472001621425152,0.7393073777288198,0.4975135413844138
1772536732072569300,8.0985693359375,-0.6088292324692011,0.7377414435863494,0.41105785852894183
1772536732082618400,8.108618408203125,-0.668705316761136,0.7897752899453043,0.28761319210268554
1772536732092667600,8.118667724609375,-0.7146200957179069,0.847745832876861,0.18780816179793328
1772536732102715400,8.12871533203125,-0.7915729870170355,0.8496914139866828,0.08818108187597244
1772536732112764400,8.138764404296875,-0.8563117089092731,0.8722086584821342,0.018679200702533125
1772536732122813400,8.1488134765625,-0.9794815769821404,0.9186591517508029,0.008678433028794825
1772536732132862500,8.158862548828125,-0.963786579722166,0.8934121900305152,-0.0009019538084045052
1772536732142911500,8.168911376953124,-0.8492571142226457,0.8612330909594893,-0.0009079451577737927
1772536732152959500,8.17895947265625,-0.7454588860958814,0.8231234327957033,0.0025016075573861597
1772536732163008500,8.189008544921874,-0.6384440340101718,0.8285857898548245,0.027800007203966377
1772536732173057500,8.1990576171875,-0.5084691620975732,0.8832955774247646,0.051935281355306506
1772536732183106300,8.209106201171876,-0.3193576260834932,0.883369227182865,0.11683010712470858
1772536732193155600,8.219155517578125,-0.0848228940218687,0.8578501705229282,0.1654994454866275
1772536732203203300,8.229203369140626,0.2173246540635824,0.851772604174912,0.2274306722100824
1772536732213252600,8.239252685546875,0.48584874948859214,0.7638163805633783,0.32532636176217344
1772536732223301400,8.24930126953125,0.7336375153988599,0.6402253644689917,0.42157289586775004
1772536732233350400,8.259350341796875,0.9052344375103711,0.4888885555759072,0.516238480924815
1772536732243399400,8.2693994140625,0.9954209043920039,0.310238207821548,0.6280979965627194
1772536732253447400,8.279447509765625,1.0674386773765085,0.11728227133899927,0.6555120001237839
1772536732263496400,8.289496337890625,1.1330705487161874,0.12481880432367325,0.7166001636192202
1772536732273545500,8.29954541015625,0.8330109128206968,-0.032226153083145616,0.9020585108879953
1772536732283594500,8.309594482421875,0.7275865447968244,-0.3058475716471672,0.8236116547040641
1772536732293643500,8.3196435546875,0.8262439029037952,-0.32459552673697467,0.8795160588860511
1772536732303691300,8.329691162109375,0.7431529472410678,-0.25479016910493374,0.870571339603886
1772536732313740500,8.339740478515624,0.628686025583744,-0.26078853273689745,0.7410879044700414
1772536732323789300,8.349789306640625,0.5729477717489003,-0.24732231744229793,0.7068937392495572
1772536732333838300,8.35983837890625,0.4759516248524189,-0.19871756874918936,0.6831491449162364
1772536732343887600,8.3698876953125,0.4173129734009504,-0.21460428918898106,0.6422757211275398
1772536732353935400,8.379935302734374,0.36037352708280085,-0.24500205780118703,0.619027751204744
1772536732363984600,8.389984619140625,0.2835959923505783,-0.2462839143052697,0.5943666996136308
1772536732374033400,8.400033447265624,0.24454408490061758,-0.28041122483462094,0.5346818635774776
1772536732384082400,8.41008251953125,0.2387701776742935,-0.3493409686759114,0.5320921028126031
1772536732394131500,8.42013134765625,0.23038404212296007,-0.40421997533291576,0.5256464338045567
1772536732404179500,8.430179443359375,0.258965408962965,-0.42960868361145255,0.5338221414756029
1772536732414228500,8.440228515625,0.3042348757535219,-0.4734919567406177,0.5439769306672737
1772536732424277500,8.450277587890625,0.28131811054646966,-0.49724721859842536,0.5551815577054396
1772536732434326500,8.460326416015626,0.23890286414325235,-0.4783902501761913,0.5174715663837268
1772536732444375800,8.470375732421875,0.332782340323925,-0.4962774967834353,0.4585051808152348
1772536732454423600,8.480423583984376,0.35759704810678955,-0.5398141484320164,0.44573914967924355
1772536732464472800,8.490472900390625,0.3059720748096704,-0.5830190839082002,0.4212134514382109
1772536732474521600,8.500521484375,0.3315881621032953,-0.6479696949854493,0.4169841067727655
1772536732484570600,8.510570556640625,0.3520540270268917,-0.7037105791687965,0.3901561594713479
1772536732494619600,8.52061962890625,0.3337929786711931,-0.7737436080768704,0.44698264693431555
1772536732504667600,8.530667724609375,0.31188685181140896,-0.82159110866189,0.4728810217680409
1772536732514716700,8.540716552734375,0.2692085705578327,-0.8448509882181883,0.46332332168668505
1772536732524765700,8.550765625,0.25300796186327934,-0.8415630525887012,0.42457668079361316
1772536732534814700,8.560814697265625,0.2515250298291445,-0.8086620689839125,0.37709560236819084
1772536732544863700,8.57086376953125,0.2160878057450056,-0.7762775104686618,0.3232380111807957
1772536732554911500,8.580911376953125,0.17256372131705283,-0.7117120993167162,0.274895566685684
1772536732564960800,8.590960693359374,0.24507015460133552,-0.7104781736075878,0.20312245264463125
1772536732575009800,8.601009765625,0.23803251104950904,-0.6990083928272127,0.23558661573473363
1772536732585058800,8.611058837890624,0.06509118859171867,-0.6958937679380178,0.2909265909669921
1772536732595107800,8.62110791015625,-0.08368658346831798,-0.7198962825551629,0.28296518363375217
1772536732605156600,8.631156494140624,-0.10795943945944309,-0.6712687375083566,0.2624683025173843
1772536732615204900,8.641204833984375,-0.15750176126360893,-0.5459492901861668,0.2579247042709961
1772536732625253600,8.651253662109376,-0.15511808099746704,-0.508790356875956,0.20340251169502735
1772536732635302700,8.661302734375,-0.1910433808594942,-0.5046677239879965,0.23666619113236664
1772536732645351700,8.6713515625,-0.38200609769821164,-0.5647840467765927,0.3858855329474434
1772536732655399700,8.681399658203125,-0.6819879921823739,-0.5821364558547735,0.4392562539333477
1772536732665448700,8.69144873046875,-0.7965303171634673,-0.46743514091968535,0.45823571622408926
1772536732675497700,8.701497802734375,-0.8989648557215929,-0.29266952564418314,0.45173188728801905
1772536732685546800,8.711546630859376,-1.0011310987323523,-0.16624036351442337,0.376788947571814
1772536732695595800,8.721595703125,-1.0503507644534111,-0.0032189620465040204,0.2882066096848808
1772536732705643800,8.731643798828125,-1.0639455745637416,0.2216141679510474,0.13727014348730443
1772536732715692800,8.74169287109375,-1.0235504358112812,0.3844704419851303,-0.01592966453237459
1772536732725741600,8.751741455078125,-0.9593921441555022,0.48672319423556326,-0.07598631128929555
1772536732735790800,8.761790771484375,-0.8100865488290786,0.48833062943220135,-0.09328496261993423
1772536732745839900,8.77183984375,-0.7603045730501413,0.42099429226219653,0.0304765512031503
1772536732755887900,8.781887939453124,-0.8533189568340778,0.4346148213356733,0.10132449495699256
1772536732765936600,8.7919365234375,-0.8455553370952605,0.47089784859418865,0.0819645454486832
1772536732775985700,8.801985595703124,-0.8035457488834857,0.5945253973066806,0.10204232437014579
1772536732786035000,8.812034912109375,-0.7648685199648141,0.7465580795094371,0.07426856585228815
1772536732796083700,8.822083740234374,-0.7431435948908328,0.9286913009434938,0.0303263473438099
1772536732806131700,8.832131591796875,-0.7159808626770973,1.1657809781849384,-0.09570517550418153
1772536732816180700,8.8421806640625,-0.6232879659324884,1.3765958119630812,-0.15013623746428637
1772536732826229800,8.852229736328125,-0.448603014677763,1.42303666062057,-0.1729030362740159
1772536732836278800,8.86227880859375,-0.3030108869165182,1.4731895155385135,-0.1248222931887023
1772536732846327800,8.872327880859375,-0.15829963364303112,1.4755448464930057,-0.10339429610152728
1772536732856375800,8.882375732421876,0.039274610289931296,1.4476955933198332,-0.0521755929172039
1772536732866424800,8.8924248046875,0.1550847632497549,1.3458213189929722,0.10790019268603064
1772536732876473600,8.9024736328125,0.18352818292379378,1.1861536118671296,0.27810181538108736
1772536732886523000,8.91252294921875,0.20780805317759513,1.0063213608518242,0.3942486164167523
1772536732896571600,8.922571533203126,0.16679098313450813,0.8987319237485527,0.48076085176505146
1772536732906620000,8.932619873046875,0.15601999827325344,0.8159545640796423,0.5293414523975923
1772536732916668700,8.942668701171876,0.1936614544034004,0.7360130123585462,0.5595514798853546
1772536732926717700,8.9527177734375,0.12929156582355497,0.7032046754732728,0.5300196073874831
1772536732936766700,8.9627666015625,0.02741407662630081,0.7257347794502973,0.46906880653612315
1772536732946815700,8.972815673828125,-0.021653028881549834,0.7272992522880435,0.42409393877796825
1772536732956863700,8.98286376953125,-0.07218611528873443,0.7050622860386967,0.3798723370725289
1772536732966912800,8.992912841796874,-0.09382686921060085,0.6406073495239019,0.31728067367896434
1772536732976961500,9.00296142578125,0.016918986096978186,0.611402882349491,0.2864396913439035
1772536732987010800,9.0130107421875,0.1808224310964346,0.5971490238085388,0.28723129837932065
1772536732997059800,9.023059814453125,0.31223464233577247,0.5408382307827473,0.25745889512384307
1772536733007107800,9.03310791015625,0.6857821237683296,0.47474312584549183,0.23757632824722677
1772536733017156900,9.043156982421875,0.47024902929663653,0.5010583013191819,0.5973886412506922
1772536733027205600,9.05320556640625,-0.1162462062895298,0.37296792797893286,0.5244923683986068
1772536733037255000,9.0632548828125,0.3458779687404632,0.26867139494121073,0.41992162152938545
1772536733047303700,9.0733037109375,0.4705903900802135,0.41863019347935915,0.5416458208385855
1772536733057352000,9.08335205078125,0.3490957617431879,0.40163843440711494,0.48860064201261844
1772536733067400700,9.093400634765626,0.32896015168726445,0.3325555458307266,0.5231949855318293
1772536733077449700,9.10344970703125,0.240477566114068,0.38379298111498356,0.5790180681059137
1772536733087498800,9.113498779296876,0.2523416069090366,0.409879900790751,0.5986874123569578
1772536733097547800,9.1235478515625,0.3195382433474064,0.39160599295347925,0.6215902951691299
