time,seconds_elapsed,z,y,x
1772536724053613600,0.079613525390625,-0.02953440323472023,-0.29670146107673645,0.09940924495458603
1772536724063662800,0.089662841796875,-0.022102322429418564,-0.2696179151535034,0.04374411329627037
1772536724073711900,0.0997119140625,-0.004878154024481773,-0.21810805797576904,0.014234892092645168
1772536724083760600,0.1097607421875,0.024160154163837433,-0.16345731914043427,0.013905725441873074
1772536724093810000,0.119809814453125,0.04700730741024017,-0.1253853291273117,0.03697093948721886
1772536724103857700,0.129857666015625,0.0754256322979927,-0.10103658586740494,0.06290160864591599
1772536724113907000,0.139906982421875,0.12355154007673264,-0.052501432597637177,0.09320211410522461
1772536724123955700,0.149955810546875,0.1726280003786087,0.011109767481684685,0.11469302326440811
1772536724134004700,0.160004638671875,0.20726759731769562,0.05143235623836517,0.12188194692134857
1772536724144053800,0.1700537109375,0.23439908027648926,0.0640496164560318,0.10168106853961945
1772536724154102800,0.180102783203125,0.2637261152267456,0.08279173821210861,0.06955485790967941
1772536724164150800,0.19015087890625,0.29071512818336487,0.13107164204120636,0.05929902568459511
1772536724174199800,0.20019970703125,0.28618884086608887,0.15820704400539398,0.07393702864646912
1772536724184248600,0.21024853515625,0.2735289931297302,0.12588265538215637,0.09887327253818512
1772536724194297900,0.2202978515625,0.25041353702545166,0.03492611646652222,0.11014270782470703
1772536724204346600,0.2303466796875,0.2231462448835373,-0.07324829697608948,0.11948241293430328
1772536724214395600,0.240395751953125,0.18959404528141022,-0.14352771639823914,0.13410790264606476
1772536724224443600,0.250443603515625,0.15461209416389465,-0.17804814875125885,0.15362247824668884
1772536724234492700,0.26049267578125,0.12303334474563599,-0.20924058556556702,0.15850543975830078
1772536724244542000,0.2705419921875,0.10121087729930878,-0.2315935641527176,0.1504504382610321
1772536724254590700,0.2805908203125,0.08017709106206894,-0.24675309658050537,0.13129369914531708
1772536724264639700,0.2906396484375,0.06855825334787369,-0.25054678320884705,0.1049230769276619
1772536724274688800,0.300688720703125,0.058721430599689484,-0.25601035356521606,0.07416363805532455
1772536724284736800,0.31073681640625,0.04130196198821068,-0.26754477620124817,0.0385020487010479
1772536724294785800,0.320785888671875,0.023609858006238937,-0.27717459201812744,0.007131212390959263
1772536724304834800,0.330834716796875,0.0000960109755396843,-0.2776736617088318,-0.020766731351614
1772536724314883600,0.340883544921875,-0.03148103505373001,-0.2662844955921173,-0.050600577145814896
1772536724324932900,0.350932861328125,-0.048238709568977356,-0.23985235393047333,-0.07770809531211853
1772536724334981600,0.360981689453125,-0.059514619410037994,-0.17761671543121338,-0.08824513107538223
1772536724345030000,0.37102978515625,-0.0654074028134346,-0.10651563107967377,-0.10171540081501007
1772536724355078700,0.38107861328125,-0.04764486849308014,-0.01605871133506298,-0.09297052770853043
1772536724365127700,0.391127685546875,-0.039505183696746826,0.09566622227430344,-0.07942062616348267
1772536724375176700,0.4011767578125,-0.03586176782846451,0.17026522755622864,-0.07514514029026031
1772536724385225700,0.411225830078125,-0.02882995456457138,0.2112683206796646,-0.08488431572914124
1772536724395274800,0.421274658203125,-0.017506811767816544,0.2367805391550064,-0.09500616043806076
1772536724405322800,0.43132275390625,-0.010020664893090725,0.25565117597579956,-0.10619755834341049
1772536724415371800,0.441371826171875,-0.00592874176800251,0.24592077732086182,-0.11087506264448166
1772536724425420500,0.451420654296875,-0.00328022800385952,0.21377909183502197,-0.12483055889606476
1772536724435469600,0.461469482421875,-0.0007447768002748489,0.13610495626926422,-0.13505525887012482
1772536724445518600,0.4715185546875,-0.014598806388676167,0.08299832791090012,-0.14023937284946442
1772536724455567600,0.481567626953125,-0.0294661708176136,0.039788272231817245,-0.1365618109703064
1772536724465615600,0.49161572265625,-0.030618786811828613,-0.005695855710655451,-0.13388027250766754
1772536724475664600,0.50166455078125,-0.04075063019990921,-0.04058932885527611,-0.12371177971363068
1772536724485713700,0.511713623046875,-0.04838218167424202,-0.05081479996442795,-0.11775216460227966
1772536724495762700,0.5217626953125,-0.057275645434856415,-0.04589206352829933,-0.1115366667509079
1772536724505811700,0.531811767578125,-0.0605529323220253,-0.02589438669383526,-0.11085223406553268
1772536724515859700,0.541859619140625,-0.07135261595249176,-0.011423741467297077,-0.10933051258325577
1772536724525908700,0.55190869140625,-0.07719265669584274,-0.0145375095307827,-0.11264508217573166
1772536724535957500,0.56195751953125,-0.08805965632200241,-0.04623725265264511,-0.10399965196847916
1772536724546006800,0.5720068359375,-0.1083044782280922,-0.09752707183361053,-0.08926092088222504
1772536724556055600,0.5820556640625,-0.1259462684392929,-0.1522175818681717,-0.06614232808351517
1772536724566104600,0.5921044921875,-0.14746461808681488,-0.17530666291713715,-0.027766980230808258
1772536724576152600,0.602152587890625,-0.16218852996826172,-0.16622556746006012,0.024026548489928246
1772536724586201600,0.61220166015625,-0.1837545484304428,-0.15177446603775024,0.07015995681285858
1772536724596250600,0.622250732421875,-0.20851950347423553,-0.15455001592636108,0.1000513955950737
1772536724606299600,0.632299560546875,-0.2374827116727829,-0.16642531752586365,0.10772928595542908
1772536724616348400,0.642348388671875,-0.26538774371147156,-0.16937215626239777,0.10193690657615662
1772536724626397700,0.652397705078125,-0.2941184639930725,-0.16394942998886108,0.0837768092751503
1772536724636445400,0.662445556640625,-0.3176291882991791,-0.17254163324832916,0.05158428102731705
1772536724646494700,0.67249462890625,-0.35381996631622314,-0.1979207545518875,-0.0003020863514393568
1772536724656543500,0.68254345703125,-0.39960139989852905,-0.22261209785938263,-0.05150412395596504
1772536724666592500,0.692592529296875,-0.42602500319480896,-0.1855669915676117,-0.0795472115278244
1772536724676641800,0.702641845703125,-0.4237176179885864,-0.07521457225084305,-0.07847469300031662
1772536724686690600,0.712690673828125,-0.41055625677108765,0.014862858690321445,-0.08177940547466278
1772536724696738800,0.72273876953125,-0.42131200432777405,-0.005253497511148453,-0.1257939487695694
1772536724706787600,0.73278759765625,-0.4479944705963135,-0.0897446796298027,-0.1966923624277115
1772536724716836600,0.742836669921875,-0.460989385843277,-0.11759748309850693,-0.2595958709716797
1772536724726885600,0.7528857421875,-0.475744366645813,-0.0792546197772026,-0.2788822054862976
1772536724736934700,0.7629345703125,-0.4771728217601776,-0.0008095814846456051,-0.27042636275291443
1772536724746983400,0.7729833984375,-0.4699234366416931,0.08946198970079422,-0.24885022640228271
1772536724757031700,0.78303173828125,-0.4539307951927185,0.1382308006286621,-0.24138233065605164
1772536724767080400,0.79308056640625,-0.4262155592441559,0.1515311598777771,-0.24144332110881805
1772536724777129700,0.803129638671875,-0.4018830358982086,0.14776886999607086,-0.2574387788772583
1772536724787178500,0.813178466796875,-0.3723885118961334,0.0818236842751503,-0.28847819566726685
1772536724797227500,0.8232275390625,-0.35002821683883667,0.016954997554421425,-0.2898350656032562
1772536724807276500,0.833276611328125,-0.3309842050075531,-0.05498124286532402,-0.24504442512989044
1772536724817324500,0.843324462890625,-0.3004220426082611,-0.11949126422405243,-0.15006758272647858
1772536724827373600,0.85337353515625,-0.27089717984199524,-0.1273699551820755,-0.007840137928724289
1772536724837422600,0.863422607421875,-0.2144393026828766,-0.04542212560772896,0.15242618322372437
1772536724847471600,0.8734716796875,-0.15595227479934692,0.08494439721107483,0.3029389977455139
1772536724857520600,0.883520751953125,-0.11047317087650299,0.17023643851280212,0.40297943353652954
1772536724867569700,0.893569580078125,-0.05991732329130173,0.16072389483451843,0.4493253529071808
1772536724877617700,0.90361767578125,-0.026101939380168915,0.09242550283670425,0.47186458110809326
1772536724887666700,0.913666748046875,-0.023393504321575165,0.04905565083026886,0.46526235342025757
1772536724897715500,0.923715576171875,-0.04922943562269211,-0.03041115216910839,0.4293143153190613
1772536724907764700,0.9337646484375,-0.08395173400640488,-0.13743481040000916,0.37207847833633423
1772536724917813500,0.9438134765625,-0.12917132675647736,-0.21092386543750763,0.31157568097114563
1772536724927861800,0.95386181640625,-0.18191710114479065,-0.2810281217098236,0.2583758533000946
1772536724937910500,0.96391064453125,-0.27169743180274963,-0.32958146929740906,0.18544146418571472
1772536724947959600,0.97395947265625,-0.3411327004432678,-0.32208067178726196,0.10858263820409775
1772536724958008600,0.984008544921875,-0.38070785999298096,-0.2402239292860031,0.038728415966033936
1772536724968057600,0.9940576171875,-0.4039231538772583,-0.12790217995643616,-0.030174219980835915
1772536724978106600,1.004106689453125,-0.40576228499412537,-0.027168484404683113,-0.10122881829738617
1772536724988154600,1.014154541015625,-0.4006713926792145,0.036776140332221985,-0.18140195310115814
1772536724998203400,1.024203369140625,-0.39730459451675415,0.04484911262989044,-0.2575379014015198
1772536725008252700,1.034252685546875,-0.40539661049842834,0.005188786890357733,-0.30392777919769287
1772536725018301400,1.044301513671875,-0.42589718103408813,-0.03658709675073624,-0.31793686747550964
1772536725028350500,1.0543505859375,-0.46465975046157837,-0.08504277467727661,-0.2955074608325958
1772536725038399700,1.064399658203125,-0.5011866688728333,-0.15001805126667023,-0.25181129574775696
1772536725048447500,1.074447509765625,-0.5170004963874817,-0.19881728291511536,-0.17752987146377563
1772536725058496800,1.084496826171875,-0.5319611430168152,-0.20708690583705902,-0.0820816308259964
1772536725068545500,1.094545654296875,-0.5281985998153687,-0.18896836042404175,-0.017265083268284798
1772536725078594600,1.104594482421875,-0.5029003620147705,-0.15722030401229858,0.022562114521861076
1772536725088643600,1.1146435546875,-0.4642336368560791,-0.11120300740003586,0.04299894720315933
1772536725098692600,1.124692626953125,-0.425052285194397,-0.07829274982213974,0.03264237940311432
1772536725108740600,1.13474072265625,-0.3923891484737396,-0.060162484645843506,-0.0019861722830682993
1772536725118789600,1.14478955078125,-0.3659890592098236,-0.04678962752223015,-0.043565645813941956
1772536725128838700,1.154838623046875,-0.3488151431083679,-0.033830419182777405,-0.07440824806690216
1772536725138887700,1.1648876953125,-0.3441258668899536,-0.040003225207328796,-0.0877547636628151
1772536725148936400,1.1749365234375,-0.34003445506095886,-0.07346717268228531,-0.0863715186715126
1772536725158984700,1.184984619140625,-0.3305203318595886,-0.10458199679851532,-0.06752774119377136
1772536725169033500,1.195033447265625,-0.3079947829246521,-0.1051764115691185,-0.031907692551612854
1772536725179082800,1.205082763671875,-0.2767942547798157,-0.10044436901807785,0.005033454857766628
1772536725189131500,1.215131591796875,-0.23165741562843323,-0.10347957164049149,0.0389954149723053
1772536725199180500,1.2251806640625,-0.18062922358512878,-0.10287705808877945,0.06674771755933762
1772536725209229800,1.235229736328125,-0.12397127598524094,-0.11228973418474197,0.09295348823070526
1772536725219277600,1.245277587890625,-0.0663091167807579,-0.11333665996789932,0.13043637573719025
1772536725229326600,1.25532666015625,-0.0047099292278289795,-0.09641839563846588,0.17431913316249847
1772536725239375600,1.265375732421875,0.062389109283685684,-0.0776602253317833,0.22062095999717712
1772536725249424600,1.275424560546875,0.1317860186100006,-0.07927729934453964,0.25394028425216675
1772536725259473700,1.2854736328125,0.21299102902412415,-0.1195417046546936,0.2800694704055786
1772536725269522700,1.295522705078125,0.29144400358200073,-0.18667146563529968,0.3217756450176239
1772536725279570700,1.30557080078125,0.3633979856967926,-0.25082042813301086,0.3867044746875763
1772536725289619700,1.31561962890625,0.40120741724967957,-0.3160058259963989,0.4410713016986847
1772536725299668500,1.32566845703125,0.4417596161365509,-0.33202245831489563,0.4789166748523712
1772536725309717800,1.3357177734375,0.4930363893508911,-0.26252514123916626,0.5156522989273071
1772536725319766500,1.3457666015625,0.5177164673805237,-0.20852233469486237,0.5382333397865295
1772536725329815600,1.355815673828125,0.5663476586341858,-0.18355412781238556,0.5451562404632568
1772536725339863600,1.365863525390625,0.5943759083747864,-0.1627429574728012,0.5190232992172241
1772536725349912600,1.37591259765625,0.6051393151283264,-0.13599391281604767,0.4588238298892975
1772536725359961600,1.385961669921875,0.595885157585144,-0.10783693194389343,0.3588852882385254
1772536725370010600,1.3960107421875,0.579684853553772,-0.0834258645772934,0.23522913455963135
1772536725380059600,1.4060595703125,0.5555649399757385,-0.055838048458099365,0.12273465096950531
1772536725390107600,1.416107666015625,0.5298725962638855,-0.02035968191921711,0.04769688472151756
1772536725400156400,1.426156494140625,0.5234122276306152,0.037533678114414215,0.026584099978208542
1772536725410205700,1.436205810546875,0.5492947101593018,0.10782035440206528,0.05551961064338684
1772536725420254700,1.446254638671875,0.5983492732048035,0.16741254925727844,0.10801021009683609
1772536725430304000,1.456303955078125,0.6668239235877991,0.2233852744102478,0.1725979894399643
1772536725440353000,1.46635302734375,0.7446476221084595,0.3098181486129761,0.24446730315685272
1772536725450401000,1.476401123046875,0.7931421995162964,0.3746200501918793,0.3020584285259247
1772536725460450000,1.486449951171875,0.8161304593086243,0.3675631582736969,0.3127360939979553
1772536725470499000,1.4964990234375,0.8290638327598572,0.3128514289855957,0.2959637939929962
1772536725480547800,1.5065478515625,0.8011163473129272,0.21714447438716888,0.2624397277832031
1772536725490597000,1.51659716796875,0.7555108070373535,0.10960310697555542,0.24313606321811676
1772536725500646000,1.52664599609375,0.6712965965270996,-0.01618705689907074,0.22030089795589447
1772536725510694100,1.536694091796875,0.5951829552650452,-0.15790130198001862,0.21060219407081604
1772536725520743000,1.546742919921875,0.5360963344573975,-0.2405611127614975,0.21656209230422974
1772536725530792000,1.5567919921875,0.4835191071033478,-0.26893550157546997,0.2273809164762497
1772536725540841000,1.566841064453125,0.45811110734939575,-0.2467641532421112,0.22200118005275726
1772536725550890000,1.576889892578125,0.45048996806144714,-0.1934809684753418,0.1962529420852661
1772536725560938000,1.58693798828125,0.4423244893550873,-0.13328514993190765,0.14900021255016327
1772536725570987000,1.596987060546875,0.4189738929271698,-0.06396785378456116,0.08272798359394073
1772536725581036000,1.6070361328125,0.37551820278167725,-0.020347701385617256,0.0011729765683412552
1772536725591085000,1.6170849609375,0.3183816969394684,0.013519451953470707,-0.07038562744855881
1772536725601134000,1.627134033203125,0.2636653482913971,0.037526220083236694,-0.11957044154405594
1772536725611182800,1.637182861328125,0.21927711367607117,0.06643430143594742,-0.14810141921043396
1772536725621231000,1.647231201171875,0.18173496425151825,0.10169918835163116,-0.16195231676101685
1772536725631279900,1.65727978515625,0.1589641273021698,0.13991102576255798,-0.17753846943378448
1772536725641329200,1.6673291015625,0.14744633436203003,0.1715315580368042,-0.18804927170276642
1772536725651378000,1.6773779296875,0.14696457982063293,0.20232276618480682,-0.2029145061969757
1772536725661427000,1.687427001953125,0.15708637237548828,0.2292756587266922,-0.21693672239780426
1772536725671476000,1.69747607421875,0.16493524610996246,0.24479813873767853,-0.21985794603824615
1772536725681524000,1.70752392578125,0.16285181045532227,0.23059320449829102,-0.21616408228874207
1772536725691573000,1.717572998046875,0.15313765406608582,0.18223020434379578,-0.20333510637283325
1772536725701622000,1.7276220703125,0.1422882378101349,0.11028503626585007,-0.1773807257413864
1772536725711670800,1.7376708984375,0.12579581141471863,0.05589236691594124,-0.14705611765384674
1772536725721720000,1.747719970703125,0.10353999584913254,0.01929042488336563,-0.12710009515285492
1772536725731769000,1.75776904296875,0.0880100354552269,0.004069926217198372,-0.12448379397392273
1772536725741817000,1.767817138671875,0.0766766145825386,0.00473448634147644,-0.12082474678754807
1772536725751865900,1.777865966796875,0.05726563185453415,0.014437980018556118,-0.1351565569639206
1772536725761915000,1.787914794921875,0.04918127506971359,0.02479497715830803,-0.14319853484630585
1772536725771964200,1.797964111328125,0.041388072073459625,0.055635981261730194,-0.14685186743736267
1772536725782013000,1.808012939453125,0.02154611051082611,0.09138990938663483,-0.1341640204191208
1772536725792061200,1.818061279296875,-0.0025219405069947243,0.11830833554267883,-0.10609004646539688
1772536725802110000,1.82810986328125,-0.02344324067234993,0.12214422971010208,-0.08379832655191422
1772536725812159000,1.838158935546875,-0.053013917058706284,0.10295002907514572,-0.06408295035362244
1772536725822208000,1.8482080078125,-0.09331857413053513,0.05486325919628143,-0.059318285435438156
1772536725832257000,1.858257080078125,-0.14275483787059784,-0.012979703024029732,-0.05773184075951576
1772536725842305800,1.868305908203125,-0.19315630197525024,-0.06456609815359116,-0.04719997197389603
1772536725852354000,1.87835400390625,-0.24609781801700592,-0.07941348850727081,-0.02560972422361374
1772536725862402800,1.88840283203125,-0.27754661440849304,-0.057063739746809006,0.00357501651160419
1772536725872452000,1.8984521484375,-0.28457948565483093,-0.010853367857635021,0.029466800391674042
1772536725882500900,1.9085009765625,-0.28296715021133423,0.03918866440653801,0.04432026669383049
1772536725892550000,1.9185498046875,-0.27923765778541565,0.06817770004272461,0.04709235206246376
1772536725902598000,1.928597900390625,-0.2788301408290863,0.07154890149831772,0.032669421285390854
1772536725912647000,1.93864697265625,-0.28253886103630066,0.05373049154877663,0.01080833189189434
1772536725922696000,1.948696044921875,-0.29646605253219604,0.017755478620529175,-0.014610697515308857
1772536725932745000,1.958744873046875,-0.32298848032951355,-0.026664182543754578,-0.03392207995057106
1772536725942794000,1.9687939453125,-0.35046181082725525,-0.07796955853700638,-0.04098561033606529
1772536725952843000,1.978843017578125,-0.3790002465248108,-0.12188908457756042,-0.03566461428999901
1772536725962890800,1.988890869140625,-0.39269620180130005,-0.16547267138957977,-0.002808633027598262
1772536725972940000,1.99893994140625,-0.39047324657440186,-0.19156818091869354,0.04989958554506302
1772536725982989000,2.008989013671875,-0.375073105096817,-0.17829731106758118,0.11993060261011124
1772536725993037800,2.019037841796875,-0.33470943570137024,-0.14009693264961243,0.18823190033435822
1772536726003087000,2.029087158203125,-0.3001212477684021,-0.12523293495178223,0.22153449058532715
1772536726013136000,2.039135986328125,-0.2855108380317688,-0.1650991141796112,0.2028058022260666
1772536726023184100,2.04918408203125,-0.2788615822792053,-0.2020883709192276,0.15309268236160278
1772536726033233000,2.05923291015625,-0.28609368205070496,-0.21192395687103271,0.08655253797769547
1772536726043282000,2.069281982421875,-0.3076038360595703,-0.18488921225070953,0.01289519015699625
1772536726053331000,2.0793310546875,-0.333922803401947,-0.12567223608493805,-0.0652797743678093
1772536726063380000,2.0893798828125,-0.3662157654762268,-0.055589012801647186,-0.14916375279426575
1772536726073428000,2.099427978515625,-0.39098450541496277,0.0025933352299034595,-0.23158034682273865
1772536726083477000,2.10947705078125,-0.39983633160591125,0.036585256457328796,-0.30441814661026
1772536726093525800,2.11952587890625,-0.3996911942958832,0.04069185256958008,-0.3615078032016754
1772536726103575000,2.129574951171875,-0.3876339793205261,0.01661856099963188,-0.39220723509788513
1772536726113623800,2.139623779296875,-0.36478298902511597,-0.043588586151599884,-0.39589598774909973
1772536726123673000,2.149673095703125,-0.34433361887931824,-0.12485543638467789,-0.3615778386592865
1772536726133720800,2.159720947265625,-0.3340016007423401,-0.18771296739578247,-0.30031049251556396
1772536726143769900,2.169769775390625,-0.31314560770988464,-0.21352486312389374,-0.21107584238052368
1772536726153819100,2.179819091796875,-0.2988721430301666,-0.20318752527236938,-0.11639515310525894
1772536726163868000,2.189867919921875,-0.2555672526359558,-0.1493702381849289,-0.030524447560310364
1772536726173917000,2.1999169921875,-0.20747563242912292,-0.08569139987230301,0.04181686043739319
1772536726183965000,2.20996484375,-0.15179738402366638,-0.0675528347492218,0.07968545705080032
1772536726194014000,2.220013916015625,-0.10012353956699371,-0.07778017222881317,0.09510702639818192
1772536726204063000,2.23006298828125,-0.06222263351082802,-0.0941324457526207,0.09570685774087906
1772536726214112000,2.240112060546875,-0.04447372630238533,-0.11593575030565262,0.09097015857696533
1772536726224161000,2.2501611328125,-0.053949419409036636,-0.15505510568618774,0.07619298249483109
1772536726234210000,2.2602099609375,-0.0833137035369873,-0.19886384904384613,0.054094601422548294
1772536726244258000,2.270258056640625,-0.12449616938829422,-0.23521313071250916,0.026694664731621742
1772536726254307000,2.28030712890625,-0.1724647730588913,-0.2546273171901703,0.001783988205716014
1772536726264355800,2.29035595703125,-0.20544180274009705,-0.24328389763832092,-0.02919037640094757
1772536726274405000,2.300405029296875,-0.2275276631116867,-0.21485918760299683,-0.06351292878389359
1772536726284454000,2.310453857421875,-0.22671759128570557,-0.17582064867019653,-0.10474307090044022
1772536726294502100,2.320502197265625,-0.21676136553287506,-0.11723589897155762,-0.14973744750022888
1772536726304551000,2.330551025390625,-0.1972237527370453,-0.04307158663868904,-0.19172528386116028
1772536726314600000,2.340599853515625,-0.18291911482810974,0.03628688305616379,-0.23424877226352692
1772536726324649200,2.350649169921875,-0.1566503793001175,0.1076929122209549,-0.2663138806819916
1772536726334698000,2.360697998046875,-0.13867244124412537,0.16297242045402527,-0.2661631405353546
1772536726344747000,2.3707470703125,-0.13044142723083496,0.20455701649188995,-0.24600018560886383
1772536726354795000,2.380794921875,-0.12346900999546051,0.20146028697490692,-0.21684736013412476
1772536726364844000,2.390843994140625,-0.11695151031017303,0.17613603174686432,-0.18252649903297424
1772536726374893000,2.40089306640625,-0.11349073052406311,0.13141542673110962,-0.13975641131401062
1772536726384942000,2.410942138671875,-0.10544748604297638,0.10177813470363617,-0.09937582165002823
1772536726394990800,2.420990966796875,-0.09246724098920822,0.09546831250190735,-0.056521035730838776
1772536726405039000,2.4310390625,-0.08381269872188568,0.09680232405662537,-0.013635041192173958
1772536726415087900,2.441087890625,-0.07489430904388428,0.05336590111255646,0.014683948829770088
1772536726425137400,2.451137451171875,-0.0500338114798069,0.04698716104030609,0.04606078192591667
1772536726435186200,2.461186279296875,-0.037239186465740204,0.06398265808820724,0.06085464358329773
1772536726445235200,2.471235107421875,-0.011754347942769527,0.09950749576091766,0.05979115143418312
1772536726455284200,2.4812841796875,0.009247340261936188,0.07978172600269318,0.03469165787100792
1772536726465332200,2.491332275390625,0.020569484680891037,0.06480419635772705,0.0017160952556878328
1772536726475381200,2.50138134765625,0.005642199423164129,0.039569150656461716,-0.046898845583200455
1772536726485430300,2.51143017578125,-0.008908634074032307,-0.017669126391410828,-0.11021537333726883
1772536726495479300,2.521479248046875,-0.022943492978811264,-0.09656340628862381,-0.17692144215106964
1772536726505528300,2.5315283203125,-0.03012508526444435,-0.17011107504367828,-0.230208620429039
1772536726515577300,2.541577392578125,-0.014435338787734509,-0.2204890251159668,-0.26745426654815674
1772536726525625300,2.551625244140625,0.011276149190962315,-0.2341638207435608,-0.2657325267791748
1772536726535674400,2.56167431640625,0.04120155796408653,-0.21378770470619202,-0.24554017186164856
1772536726545723100,2.57172314453125,0.07042999565601349,-0.1797511875629425,-0.21791112422943115
1772536726555772400,2.5817724609375,0.10565721988677979,-0.13522259891033173,-0.18578729033470154
1772536726565821200,2.5918212890625,0.14469917118549347,-0.0700429156422615,-0.13912834227085114
1772536726575869400,2.601869384765625,0.17380352318286896,-0.02657347358763218,-0.088376484811306
1772536726585918200,2.611918212890625,0.22314658761024475,0.011578036472201347,-0.03615419566631317
1772536726595967200,2.62196728515625,0.26704081892967224,0.04443744942545891,0.015595551580190659
1772536726606016300,2.632016357421875,0.29655641317367554,0.06189517304301262,0.06504587829113007
1772536726616065300,2.642065185546875,0.32619473338127136,0.06228053197264671,0.11438999325037003
1772536726626114000,2.652114013671875,0.3517570495605469,0.05675629898905754,0.16581284999847412
1772536726636162300,2.662162353515625,0.3724237084388733,0.06663741916418076,0.2102719247341156
1772536726646211000,2.672211181640625,0.3855978548526764,0.08209684491157532,0.2480335384607315
1772536726656260400,2.68226025390625,0.3907524049282074,0.07635427266359329,0.2778761386871338
1772536726666309000,2.69230908203125,0.39434686303138733,0.07159067690372467,0.3004368245601654
1772536726676358100,2.702358154296875,0.3975280225276947,0.07595878839492798,0.32043930888175964
1772536726686406100,2.71240625,0.3975479006767273,0.09183994680643082,0.32846134901046753
1772536726696455200,2.722455078125,0.39881742000579834,0.08735571801662445,0.3233933448791504
1772536726706504400,2.73250439453125,0.3981066048145294,0.07880008965730667,0.3091624975204468
1772536726716553200,2.74255322265625,0.3987228572368622,0.07312862575054169,0.299096018075943
1772536726726602200,2.752602294921875,0.40172669291496277,0.06730695068836212,0.30451300740242004
1772536726736651300,2.7626513671875,0.4015003442764282,0.0883491188287735,0.3350543975830078
1772536726746699300,2.77269921875,0.4089645445346832,0.1236233338713646,0.38142380118370056
1772536726756748300,2.782748291015625,0.4320237636566162,0.16553348302841187,0.42565518617630005
1772536726766797300,2.79279736328125,0.47163358330726624,0.20389871299266815,0.4522117078304291
1772536726776846000,2.80284619140625,0.5064085721969604,0.20414797961711884,0.4437867999076843
1772536726786895400,2.812895263671875,0.5290660858154297,0.18307578563690186,0.38872647285461426
1772536726796943000,2.822943115234375,0.5494866967201233,0.1786418855190277,0.30767929553985596
1772536726806992400,2.832992431640625,0.5678926110267639,0.2040276825428009,0.21833431720733643
1772536726817041200,2.843041259765625,0.5819149613380432,0.22739985585212708,0.12253803014755249
1772536726827090200,2.853090087890625,0.5813370943069458,0.23079878091812134,0.024005746468901634
1772536726837139200,2.86313916015625,0.5849975943565369,0.1958429217338562,-0.06288015097379684
1772536726847188200,2.873188232421875,0.596968948841095,0.15734481811523438,-0.11321356147527695
1772536726857236200,2.883236328125,0.598541796207428,0.13790267705917358,-0.10129644721746445
1772536726867285200,2.89328515625,0.5908467769622803,0.13706283271312714,-0.037323106080293655
1772536726877334000,2.903333984375,0.5835374593734741,0.12519417703151703,0.051673077046871185
1772536726887383300,2.91338330078125,0.5619736313819885,0.08545932173728943,0.14874179661273956
1772536726897432300,2.923432373046875,0.525475263595581,0.03812402859330177,0.24551653861999512
1772536726907480300,2.933480224609375,0.4782513678073883,0.019833074882626534,0.33423730731010437
1772536726917529300,2.943529296875,0.44752514362335205,0.04021371528506279,0.40373358130455017
1772536726927578000,2.953578125,0.42635640501976013,0.07521049678325653,0.43120062351226807
1772536726937627400,2.96362744140625,0.40372592210769653,0.11039112508296967,0.4246617555618286
1772536726947676200,2.97367626953125,0.3813498914241791,0.13248717784881592,0.3887363374233246
1772536726957725200,2.98372509765625,0.35185831785202026,0.15305502712726593,0.32973453402519226
1772536726967773200,2.993773193359375,0.31866589188575745,0.17349393665790558,0.26733818650245667
1772536726977822200,3.003822265625,0.28557637333869934,0.18511037528514862,0.21427549421787262
1772536726987871200,3.013871337890625,0.25846025347709656,0.1819905787706375,0.17457695305347443
1772536726997920300,3.023920166015625,0.22795721888542175,0.153202086687088,0.14312981069087982
1772536727007969000,3.033968994140625,0.19612495601177216,0.10539115220308304,0.1258196085691452
1772536727018017300,3.044017333984375,0.16818653047084808,0.06572576612234116,0.11743571609258652
1772536727028066000,3.054066162109375,0.14588189125061035,0.046831630170345306,0.12489461898803711
1772536727038115300,3.064115234375,0.11971341073513031,0.024371862411499023,0.1305287927389145
1772536727048164000,3.0741640625,0.08638381212949753,-0.004286079667508602,0.12697169184684753
1772536727058213000,3.084213134765625,0.06227022036910057,-0.04229285195469856,0.11111603677272797
1772536727068262400,3.094262451171875,0.04479554295539856,-0.06048506870865822,0.08308826386928558
1772536727078310100,3.10431005859375,0.029418185353279114,-0.05296643078327179,0.048482347279787064
1772536727088359200,3.114359130859375,0.015573455020785332,-0.0248340405523777,0.006739126518368721
1772536727098408200,3.124408203125,0.008462549187242985,0.00745439063757658,-0.027726439759135246
1772536727108457200,3.134457275390625,-0.0037867221981287003,0.052437543869018555,-0.05533280968666077
1772536727118506200,3.14450634765625,-0.016434339806437492,0.11172723025083542,-0.08327975869178772
1772536727128554200,3.15455419921875,-0.01718026027083397,0.17642158269882202,-0.10787179321050644
1772536727138603300,3.164603271484375,-0.01011462602764368,0.2261079102754593,-0.1292833387851715
1772536727148652300,3.17465234375,0.00016533024609088898,0.24630644917488098,-0.1523449718952179
1772536727158701000,3.184701171875,0.000171721912920475,0.2270166575908661,-0.16834284365177155
1772536727168750300,3.194750244140625,-0.008808253332972527,0.17531026899814606,-0.18327577412128448
1772536727178799000,3.204799072265625,-0.02266627922654152,0.11921104788780212,-0.18753042817115784
1772536727188847400,3.214847412109375,-0.03960084170103073,0.060773853212594986,-0.18884266912937164
1772536727198896000,3.224896240234375,-0.04934188723564148,0.011526143178343773,-0.18343885242938995
1772536727208945200,3.234945068359375,-0.06599514186382294,-0.050042152404785156,-0.1772974282503128
1772536727218994200,3.244994140625,-0.07764381170272827,-0.10939735174179077,-0.16345244646072388
1772536727229043200,3.255043212890625,-0.08071142435073853,-0.14142116904258728,-0.13916347920894623
1772536727239091200,3.26509130859375,-0.09009906649589539,-0.15253613889217377,-0.12076317518949509
1772536727249140200,3.27514013671875,-0.1033443957567215,-0.14886219799518585,-0.09787708520889282
1772536727259189200,3.285189208984375,-0.11031629145145416,-0.11924012750387192,-0.07717101275920868
1772536727269238300,3.29523828125,-0.11239948123693466,-0.07158155739307404,-0.0680374726653099
1772536727279287300,3.305287353515625,-0.10494795441627502,-0.009106997400522232,-0.06635941565036774
1772536727289336300,3.31533642578125,-0.10581906884908676,0.046633049845695496,-0.08652845025062561
1772536727299384000,3.325384033203125,-0.12063982337713242,0.0696728527545929,-0.12740558385849
1772536727309433300,3.335433349609375,-0.15708011388778687,0.04964659363031387,-0.17190057039260864
1772536727319482400,3.345482421875,-0.20608201622962952,0.010699991136789322,-0.19340986013412476
1772536727329531100,3.35553125,-0.2431638240814209,-0.006202299147844315,-0.1800808161497116
1772536727339580400,3.365580322265625,-0.27752846479415894,-0.029730528593063354,-0.13270771503448486
1772536727349628200,3.375628173828125,-0.30141985416412354,-0.07121331989765167,-0.07162465900182724
1772536727359677400,3.385677490234375,-0.315325528383255,-0.09119261801242828,-0.02120036631822586
1772536727369726200,3.395726318359375,-0.3282012343406677,-0.15929245948791504,0.02628489024937153
1772536727379775200,3.405775146484375,-0.3452473282814026,-0.21869879961013794,0.07161908596754074
1772536727389824300,3.41582421875,-0.362061470746994,-0.2785911560058594,0.10838588327169418
1772536727399873300,3.425873291015625,-0.3568872809410095,-0.3052811920642853,0.15142151713371277
1772536727409921300,3.43592138671875,-0.3747229278087616,-0.3070066273212433,0.18129150569438934
1772536727419970300,3.44597021484375,-0.4041990339756012,-0.3312839865684509,0.18854542076587677
1772536727430019300,3.456019287109375,-0.4154466986656189,-0.33330973982810974,0.19852964580059052
1772536727440068400,3.466068359375,-0.438263863325119,-0.2983222007751465,0.21203507483005524
1772536727450117400,3.476117431640625,-0.4617025554180145,-0.24753037095069885,0.22674961388111115
1772536727460165400,3.486165283203125,-0.4711093604564667,-0.18723081052303314,0.24419091641902924
1772536727470214400,3.49621435546875,-0.47082576155662537,-0.10452033579349518,0.2626338303089142
1772536727480263200,3.50626318359375,-0.4594647288322449,-0.016708994284272194,0.27174291014671326
1772536727490312400,3.5163125,-0.4382098317146301,0.04066402465105057,0.2759023904800415
1772536727500361500,3.526361572265625,-0.41592341661453247,0.024924742057919502,0.26957976818084717
1772536727510410200,3.53641015625,-0.399862140417099,-0.044627707451581955,0.24575400352478027
1772536727520458500,3.54645849609375,-0.39493635296821594,-0.12426421046257019,0.2030946910381317
1772536727530507300,3.55650732421875,-0.3911592364311218,-0.19512999057769775,0.16081398725509644
1772536727540556500,3.566556640625,-0.40367528796195984,-0.2582831382751465,0.12213556468486786
1772536727550605300,3.576605224609375,-0.4393325448036194,-0.3358376622200012,0.08138462901115417
1772536727560654300,3.586654296875,-0.4793180525302887,-0.41931793093681335,0.027404217049479485
1772536727570702300,3.596702392578125,-0.5254180431365967,-0.464300274848938,-0.03414395451545715
1772536727580751400,3.60675146484375,-0.5561410784721375,-0.42126625776290894,-0.09448958933353424
1772536727590800400,3.61680029296875,-0.5619943737983704,-0.31409981846809387,-0.13396155834197998
1772536727600849400,3.626849365234375,-0.5604230761528015,-0.20154395699501038,-0.16621509194374084
1772536727610898200,3.636898193359375,-0.5189481973648071,-0.08015599101781845,-0.1764015406370163
1772536727620946400,3.646946533203125,-0.4539084732532501,0.0696159303188324,-0.17722046375274658
1772536727630995200,3.6569951171875,-0.3899955153465271,0.19875873625278473,-0.17102807760238647
1772536727641044500,3.66704443359375,-0.3201831579208374,0.25452640652656555,-0.16285403072834015
1772536727651093200,3.67709326171875,-0.2659420073032379,0.21070851385593414,-0.14922793209552765
1772536727661142300,3.687142333984375,-0.23121918737888336,0.0867554172873497,-0.13669750094413757
1772536727671191600,3.697191650390625,-0.2042400985956192,-0.08245526999235153,-0.11786014586687088
1772536727681239300,3.7072392578125,-0.18481473624706268,-0.25982633233070374,-0.09083465486764908
1772536727691288300,3.717288330078125,-0.17856186628341675,-0.3966892957687378,-0.04448433592915535
1772536727701337300,3.72733740234375,-0.18333610892295837,-0.4806939363479614,0.018131107091903687
1772536727711386400,3.737386474609375,-0.19432197511196136,-0.5129839777946472,0.07132551819086075
1772536727721435400,3.747435302734375,-0.19865919649600983,-0.48782506585121155,0.10055956989526749
1772536727731483400,3.7574833984375,-0.20075364410877228,-0.40004608035087585,0.09277885407209396
1772536727741532400,3.767532470703125,-0.2039949893951416,-0.27269211411476135,0.04014386981725693
1772536727751581400,3.77758154296875,-0.20784829556941986,-0.16339460015296936,-0.05953511223196983
1772536727761630200,3.787630126953125,-0.21106407046318054,-0.07912153750658035,-0.18714793026447296
1772536727771679500,3.797679443359375,-0.21600531041622162,-0.009069345891475677,-0.3102869987487793
1772536727781728300,3.807728271484375,-0.2213582694530487,0.046487655490636826,-0.39827731251716614
1772536727791776500,3.817776611328125,-0.2283352166414261,0.077890545129776,-0.43999966979026794
1772536727801825300,3.8278251953125,-0.23224180936813354,0.08893094211816788,-0.44180741906166077
1772536727811874300,3.837874267578125,-0.23265987634658813,0.08165016025304794,-0.41463276743888855
1772536727821923300,3.84792333984375,-0.2190130352973938,0.06421604752540588,-0.37637725472450256
1772536727831972400,3.857972412109375,-0.19434162974357605,0.05449037626385689,-0.32081472873687744
1772536727842020400,3.868020263671875,-0.16769909858703613,0.04287446662783623,-0.256661593914032
1772536727852069400,3.8780693359375,-0.1420690417289734,0.021914038807153702,-0.19551315903663635
1772536727862118100,3.8881181640625,-0.12182262539863586,0.002527825068682432,-0.1438201367855072
1772536727872167400,3.89816748046875,-0.10466650128364563,-0.019747963175177574,-0.11899452656507492
1772536727882216400,3.908216552734375,-0.09811379015445709,-0.03572480008006096,-0.1080089882016182
1772536727892265200,3.91826513671875,-0.0995108038187027,-0.03578801825642586,-0.11521536856889725
1772536727902313200,3.928313232421875,-0.10552981495857239,-0.03116450272500515,-0.13220739364624023
1772536727912362200,3.9383623046875,-0.09606578946113586,-0.011727859266102314,-0.16094020009040833
1772536727922411500,3.94841162109375,-0.086902916431427,0.015394306741654873,-0.19330400228500366
1772536727932460300,3.958460205078125,-0.07485735416412354,0.027552643790841103,-0.21759727597236633
1772536727942509300,3.96850927734375,-0.05696277692914009,0.0357743576169014,-0.24062083661556244
1772536727952557300,3.978557373046875,-0.04431195929646492,0.02267186902463436,-0.25862592458724976
1772536727962606300,3.9886064453125,-0.0308305062353611,0.008872967213392258,-0.25716570019721985
1772536727972655400,3.9986552734375,-0.015025229193270206,0.004478048998862505,-0.2345208078622818
1772536727982704400,4.008704345703125,-0.0059760743752121925,0.010971101000905037,-0.20598450303077698
1772536727992753200,4.018753173828125,0.006371752358973026,0.005591363180428743,-0.17162421345710754
1772536728002801400,4.028801513671875,0.016701355576515198,-0.011491483077406883,-0.1383938193321228
1772536728012850200,4.03885009765625,0.02279137820005417,-0.03976917266845703,-0.1006198301911354
1772536728022899500,4.0488994140625,0.030282318592071533,-0.05499313399195671,-0.06587676703929901
1772536728032948200,4.0589482421875,0.035772159695625305,-0.03861122950911522,-0.030152054503560066
1772536728042997200,4.068997314453125,0.049551352858543396,0.007811396848410368,-0.0033468054607510567
1772536728053046500,4.079046630859375,0.07579293102025986,0.0868750736117363,0.019322166219353676
1772536728063094300,4.08909423828125,0.10975676029920578,0.1674463450908661,0.03374584764242172
1772536728073143300,4.099143310546875,0.14422163367271423,0.22614343464374542,0.03132236748933792
1772536728083192300,4.1091923828125,0.17532308399677277,0.24778908491134644,0.02173817902803421
1772536728093241300,4.119241455078125,0.19777321815490723,0.23885585367679596,0.01340679544955492
1772536728103290400,4.129290283203125,0.21983830630779266,0.1961696445941925,0.02806323766708374
1772536728113338400,4.13933837890625,0.2396334409713745,0.15477021038532257,0.06810225546360016
1772536728123387400,4.149387451171875,0.26340213418006897,0.1387568861246109,0.1174575537443161
1772536728133436400,4.1594365234375,0.2974095642566681,0.13809289038181305,0.18184329569339752
1772536728143485200,4.169485107421875,0.3294958472251892,0.14139734208583832,0.258889377117157
1772536728153534500,4.179534423828125,0.3577679991722107,0.13518396019935608,0.3180635869503021
1772536728163583200,4.189583251953125,0.38991236686706543,0.12534411251544952,0.3625729978084564
1772536728173631500,4.199631591796875,0.42259472608566284,0.13262589275836945,0.3801945447921753
1772536728183680300,4.20968017578125,0.4580824077129364,0.12997551262378693,0.3782408535480499
1772536728193729300,4.219729248046875,0.48862090706825256,0.12410493195056915,0.36540111899375916
1772536728203778300,4.2297783203125,0.5177433490753174,0.139658585190773,0.35425683856010437
1772536728213827300,4.239827392578125,0.5373856425285339,0.21233196556568146,0.3501039743423462
1772536728223875300,4.249875244140625,0.5579804182052612,0.321096271276474,0.3610229194164276
1772536728233924400,4.25992431640625,0.5707948207855225,0.40104398131370544,0.3704620897769928
1772536728243973400,4.269973388671875,0.5714068412780762,0.4274207353591919,0.3640635907649994
1772536728254022400,4.2800224609375,0.5755781531333923,0.42128434777259827,0.3423883318901062
1772536728264071400,4.290071533203125,0.5892050266265869,0.39396724104881287,0.3121611773967743
1772536728274120400,4.300120361328125,0.591023862361908,0.3313024342060089,0.2657811939716339
1772536728284168200,4.310168212890625,0.5803147554397583,0.23325389623641968,0.20844997465610504
1772536728294217500,4.320217529296875,0.5539512038230896,0.10878819227218628,0.14584100246429443
1772536728304266500,4.3302666015625,0.5038851499557495,-0.015119102783501148,0.08258587121963501
1772536728314315300,4.340315185546875,0.4269651174545288,-0.138436421751976,0.022682493552565575
1772536728324364500,4.350364501953125,0.34515681862831116,-0.2370375692844391,-0.015559966675937176
1772536728334412300,4.360412353515625,0.26407161355018616,-0.30117443203926086,-0.028585711494088173
1772536728344461600,4.370461669921875,0.19537003338336945,-0.30131906270980835,0.007057505659759045
1772536728354510300,4.38051025390625,0.14614616334438324,-0.24793992936611176,0.07207068055868149
1772536728364559400,4.390559326171875,0.11953292787075043,-0.14592328667640686,0.129106804728508
1772536728374608400,4.4006083984375,0.16596372425556183,0.050171058624982834,0.2042679637670517
1772536728384656400,4.410656494140625,0.21625670790672302,0.29314669966697693,0.26760217547416687
1772536728394705400,4.420705322265625,0.25672635436058044,0.45068106055259705,0.28161272406578064
1772536728404754400,4.43075439453125,0.2970077395439148,0.4911075532436371,0.25028833746910095
1772536728414803200,4.44080322265625,0.30990296602249146,0.43893274664878845,0.2032797932624817
1772536728424852500,4.4508525390625,0.29404571652412415,0.3559214770793915,0.15947078168392181
1772536728434900700,4.460900634765625,0.25290077924728394,0.25998955965042114,0.14284200966358185
1772536728444949800,4.47094970703125,0.20696789026260376,0.1529235690832138,0.14889883995056152
1772536728454998800,4.480998779296875,0.15946418046951294,0.056139037013053894,0.17532005906105042
1772536728465047800,4.4910478515625,0.1271728277206421,-0.0036816850770264864,0.20970945060253143
1772536728475096600,4.5010966796875,0.1190730407834053,-0.024482659995555878,0.2372729331254959
1772536728485145900,4.511145751953125,0.13176806271076202,-0.028851842507719994,0.2533818483352661
1772536728495193600,4.521193603515625,0.14827042818069458,-0.04423897713422775,0.248835489153862
1772536728505243000,4.531242919921875,0.15246890485286713,-0.0741361528635025,0.22114978730678558
1772536728515291600,4.541291748046875,0.1458120346069336,-0.09703654050827026,0.1674630343914032
1772536728525340700,4.551340576171875,0.13055425882339478,-0.08627949655056,0.11389034986495972
1772536728535389700,4.5613896484375,0.09420133382081985,-0.04799269884824753,0.05360260233283043
1772536728545437700,4.571437744140625,0.06205351650714874,0.010892987251281738,-0.011935658752918243
1772536728555486700,4.58148681640625,0.03799441456794739,0.08566875010728836,-0.08450732380151749
1772536728565535700,4.59153564453125,0.02945418655872345,0.15825186669826508,-0.16048038005828857
1772536728575584800,4.601584716796875,0.036984097212553024,0.2180124819278717,-0.22355853021144867
1772536728585633800,4.6116337890625,0.05586990341544151,0.2703116536140442,-0.26135674118995667
1772536728595682800,4.621682861328125,0.07636059075593948,0.29478347301483154,-0.2879886031150818
1772536728605730800,4.631730712890625,0.09378857910633087,0.2924353778362274,-0.30634310841560364
1772536728615779800,4.64177978515625,0.10086836665868759,0.27548545598983765,-0.30958032608032227
1772536728625828900,4.651828857421875,0.09540941566228867,0.23821903765201569,-0.31015607714653015
1772536728635878000,4.6618779296875,0.07672522217035294,0.17683197557926178,-0.3101269602775574
1772536728645926700,4.6719267578125,0.051709357649087906,0.1014581173658371,-0.3102540075778961
1772536728655975000,4.681974853515625,0.03294604271650314,0.020220870152115822,-0.30990836024284363
1772536728666023700,4.692023681640625,0.017238985747098923,-0.054556962102651596,-0.3021066188812256
1772536728676073000,4.702072998046875,-0.0024146148934960365,-0.11396404355764389,-0.2808685004711151
1772536728686121700,4.712121826171875,-0.012165779247879982,-0.14893561601638794,-0.25683295726776123
1772536728696170800,4.722170654296875,-0.01781604066491127,-0.16825497150421143,-0.23727382719516754
1772536728706218800,4.73221875,-0.021319694817066193,-0.1477118879556656,-0.2213028520345688
1772536728716267800,4.742267822265625,-0.02403702214360237,-0.08512836694717407,-0.20609170198440552
1772536728726316800,4.75231689453125,-0.02415606752038002,-0.011416064575314522,-0.1775929480791092
1772536728736365800,4.76236572265625,-0.025111624971032143,0.06472805887460709,-0.1433441936969757
1772536728746414600,4.77241455078125,-0.026070361956954002,0.13072092831134796,-0.11254633963108063
1772536728756462800,4.782462890625,-0.04272271692752838,0.1565757542848587,-0.0767003744840622
1772536728766511600,4.79251171875,-0.07029575109481812,0.1368260234594345,-0.05410477891564369
1772536728776561000,4.802560791015625,-0.10931283235549927,0.08027733117341995,-0.04062714800238609
1772536728786609700,4.812609619140625,-0.14654141664505005,0.00384008651599288,-0.03316124528646469
1772536728796658700,4.82265869140625,-0.18074721097946167,-0.05555446073412895,-0.01837208867073059
1772536728806708000,4.8327080078125,-0.19921091198921204,-0.08794702589511871,0.010944785550236702
1772536728816755700,4.842755615234375,-0.20551589131355286,-0.09564876556396484,0.05994243547320366
1772536728826805000,4.852804931640625,-0.2208666205406189,-0.12474433332681656,0.1088537871837616
1772536728836853800,4.862853759765625,-0.23200279474258423,-0.16040824353694916,0.14314348995685577
1772536728846902800,4.87290283203125,-0.24457746744155884,-0.1797390729188919,0.15222673118114471
1772536728856951800,4.882951904296875,-0.26228004693984985,-0.18677769601345062,0.1710374653339386
1772536728866999800,4.892999755859375,-0.2840002477169037,-0.15861716866493225,0.18448589742183685
1772536728877048800,4.903048828125,-0.2982310950756073,-0.11207427084445953,0.1942463517189026
1772536728887097900,4.913097900390625,-0.31889164447784424,-0.027698399499058723,0.19584983587265015
1772536728897146600,4.923146728515625,-0.3219858705997467,0.03483353182673454,0.1790367066860199
1772536728907196000,4.93319580078125,-0.32592231035232544,0.058437928557395935,0.1554805040359497
1772536728917243600,4.94324365234375,-0.3453909456729889,0.10787231475114822,0.14074116945266724
1772536728927293000,4.95329296875,-0.35133805871009827,0.18420755863189697,0.12116613984107971
1772536728937341700,4.963341796875,-0.3319633901119232,0.254645973443985,0.10049372166395187
1772536728947390700,4.973390625,-0.32305777072906494,0.28674930334091187,0.07547332346439362
1772536728957439700,4.983439697265625,-0.32973048090934753,0.2351137399673462,0.03659906983375549
1772536728967488800,4.99348876953125,-0.34530648589134216,0.10164250433444977,-0.005453574471175671
1772536728977536800,5.003536865234375,-0.36406779289245605,-0.020762968808412552,-0.014131664298474789
1772536728987585800,5.013585693359375,-0.3876016139984131,-0.10306397080421448,0.004281697329133749
1772536728997634600,5.023634521484375,-0.4129473567008972,-0.1702653020620346,0.04666341468691826
1772536729007683800,5.033683837890625,-0.44313162565231323,-0.22240519523620605,0.07243695110082626
1772536729017732900,5.04373291015625,-0.47784969210624695,-0.24704915285110474,0.07116608321666718
1772536729027780900,5.05378076171875,-0.4958263337612152,-0.22740274667739868,0.04701840505003929
1772536729037830000,5.063829833984375,-0.4955025911331177,-0.16994799673557281,-0.00009111408144235611
1772536729047878700,5.073878662109375,-0.47860831022262573,-0.08173185586929321,-0.050428587943315506
1772536729057928000,5.083927978515625,-0.44496089220046997,0.03260638564825058,-0.08680828660726547
1772536729067976700,5.093976806640625,-0.4127201437950134,0.14571377635002136,-0.10643444955348969
1772536729078025000,5.10402490234375,-0.3907133638858795,0.21765144169330597,-0.1059449091553688
1772536729088073700,5.11407373046875,-0.37758636474609375,0.20664699375629425,-0.08167631924152374
1772536729098122800,5.124122802734375,-0.3627627193927765,0.14116646349430084,-0.04738238453865051
1772536729108171800,5.134171875,-0.334554523229599,0.04579761624336243,0.0031886494252830744
1772536729118220800,5.144220703125,-0.3070067763328552,-0.04664882272481918,0.05001518502831459
1772536729128269600,5.15426953125,-0.28815051913261414,-0.15024632215499878,0.0859534814953804
1772536729138317800,5.16431787109375,-0.27470988035202026,-0.24572698771953583,0.10245940834283829
1772536729148366600,5.17436669921875,-0.2554967701435089,-0.2977920472621918,0.10630395263433456
1772536729158416000,5.184415771484375,-0.2421470284461975,-0.2910524308681488,0.10451389104127884
1772536729168464600,5.194464599609375,-0.23071886599063873,-0.23588235676288605,0.08461394906044006
1772536729178513700,5.204513671875,-0.2235572636127472,-0.1847553253173828,0.03512362390756607
1772536729188561700,5.214561767578125,-0.2241881638765335,-0.15677428245544434,-0.041158631443977356
1772536729198610700,5.224610595703125,-0.2245158553123474,-0.14250114560127258,-0.12900520861148834
1772536729208659700,5.23465966796875,-0.235975980758667,-0.1324855238199234,-0.20072174072265625
1772536729218708700,5.244708740234375,-0.24294635653495789,-0.12559813261032104,-0.2586009204387665
1772536729228757800,5.2547578125,-0.24588969349861145,-0.09636835008859634,-0.2840849757194519
1772536729238806800,5.264806884765625,-0.24543778598308563,-0.04111693426966667,-0.28360268473625183
1772536729248854800,5.274854736328125,-0.23020558059215546,0.01877010241150856,-0.2673986852169037
1772536729258903800,5.28490380859375,-0.19900386035442352,0.08342115581035614,-0.23616908490657806
1772536729268952800,5.294952880859375,-0.1668587177991867,0.14346317946910858,-0.19684991240501404
1772536729279001600,5.305001708984375,-0.13367542624473572,0.1291588544845581,-0.15703018009662628
1772536729289051000,5.31505078125,-0.11168864369392395,0.07242846488952637,-0.11819092184305191
1772536729299098600,5.3250986328125,-0.09824451804161072,-0.008893190883100033,-0.07579653710126877
1772536729309148000,5.33514794921875,-0.09165345877408981,-0.09188660979270935,-0.03545257821679115
1772536729319196700,5.34519677734375,-0.10223707556724548,-0.1459989994764328,-0.007722668349742889
1772536729329245700,5.35524560546875,-0.1251402646303177,-0.18623775243759155,0.009026484563946724
1772536729339293700,5.365293701171875,-0.14503714442253113,-0.21341823041439056,0.0018310321029275656
1772536729349342700,5.3753427734375,-0.16113488376140594,-0.2153514176607132,-0.020989861339330673
1772536729359391700,5.385391845703125,-0.17437131702899933,-0.21443457901477814,-0.05746128037571907
1772536729369440800,5.395440673828125,-0.1776517927646637,-0.18382900953292847,-0.09119953960180283
1772536729379489500,5.405489501953125,-0.18285202980041504,-0.11432863026857376,-0.13461382687091827
1772536729389538800,5.415538818359375,-0.17662450671195984,-0.05479099974036217,-0.17781323194503784
1772536729399586600,5.425586669921875,-0.1665964126586914,-0.02155928686261177,-0.20521822571754456
1772536729409635800,5.4356357421875,-0.14058931171894073,0.024023912847042084,-0.20213961601257324
1772536729419684900,5.445684814453125,-0.11216837167739868,0.06766293197870255,-0.17383144795894623
1772536729429733400,5.4557333984375,-0.06999721378087997,0.07431364059448242,-0.1408471316099167
1772536729439782400,5.465782470703125,-0.027725107967853546,0.07336466759443283,-0.10434874147176743
1772536729449830400,5.475830322265625,0.011645732447504997,0.06161133944988251,-0.0626383125782013
1772536729459879400,5.48587939453125,0.046330805867910385,0.07264745980501175,-0.02162632718682289
1772536729469928200,5.49592822265625,0.07407747954130173,0.07581422477960587,0.008494025096297264
1772536729479977500,5.5059775390625,0.09562250971794128,0.06241065636277199,0.029759112745523453
1772536729490026200,5.516026123046875,0.1160617470741272,0.041817232966423035,0.051610350608825684
1772536729500075300,5.5260751953125,0.13881763815879822,0.01918148435652256,0.06445524841547012
1772536729510123300,5.536123291015625,0.1732911914587021,0.021722938865423203,0.07817212492227554
1772536729520172300,5.54617236328125,0.2176467329263687,0.05077468231320381,0.10379627346992493
1772536729530221600,5.5562216796875,0.258071631193161,0.06762103736400604,0.1365118771791458
1772536729540270300,5.566270263671875,0.3050001561641693,0.044376421719789505,0.16485600173473358
1772536729550319400,5.5763193359375,0.35161292552948,0.0035062208771705627,0.20150190591812134
1772536729560367400,5.586367431640625,0.3837297856807709,-0.045394692569971085,0.23574022948741913
1772536729570416400,5.59641650390625,0.39967572689056396,-0.0858803316950798,0.2671538293361664
1772536729580465400,5.60646533203125,0.396327942609787,-0.096702940762043,0.2941655218601227
1772536729590514400,5.616514404296875,0.38404276967048645,-0.07734096050262451,0.312598317861557
1772536729600563200,5.626563232421875,0.3712913990020752,-0.04543435573577881,0.31735989451408386
1772536729610611500,5.636611572265625,0.3650263249874115,-0.012426604516804218,0.30387869477272034
1772536729620660200,5.64666015625,0.36270707845687866,0.01805795542895794,0.2732148766517639
1772536729630709500,5.65670947265625,0.3690483570098877,0.03815203905105591,0.24229155480861664
1772536729640758300,5.66675830078125,0.381495863199234,0.06124388054013252,0.22729648649692535
1772536729650807300,5.676807373046875,0.3936140537261963,0.08025858551263809,0.22401069104671478
1772536729660855300,5.686855224609375,0.3990993797779083,0.04689010977745056,0.20486991107463837
1772536729670904300,5.696904296875,0.39193758368492126,-0.03171814605593681,0.17849023640155792
1772536729680953300,5.706953369140625,0.35992512106895447,-0.112179234623909,0.14704282581806183
1772536729691002400,5.71700244140625,0.32424673438072205,-0.15837761759757996,0.11315170675516129
1772536729701051100,5.727051025390625,0.29586061835289,-0.16993114352226257,0.08837571740150452
1772536729711100400,5.737100341796875,0.2759154140949249,-0.1657196283340454,0.07824132591485977
1772536729721148200,5.747148193359375,0.24833083152770996,-0.18789273500442505,0.09038706868886948
1772536729731197400,5.757197509765625,0.2593027949333191,-0.15040022134780884,0.13516439497470856
1772536729741246500,5.76724658203125,0.2697855830192566,-0.03611641377210617,0.18506033718585968
1772536729751295200,5.777295166015625,0.29410743713378906,0.1155516728758812,0.1981915831565857
1772536729761344500,5.787344482421875,0.3400173783302307,0.24886225163936615,0.14760121703147888
1772536729771392300,5.797392333984375,0.3883811831474304,0.31269583106040955,0.045749418437480927
1772536729781441500,5.807441650390625,0.41369035840034485,0.29300209879875183,-0.06565386801958084
1772536729791490300,5.817490234375,0.422237753868103,0.18952740728855133,-0.14864756166934967
1772536729801539300,5.827539306640625,0.40179958939552307,0.06420436501502991,-0.18240365386009216
1772536729811588400,5.83758837890625,0.36847466230392456,-0.03300048038363457,-0.16674134135246277
1772536729821636400,5.84763623046875,0.3339936435222626,-0.08094469457864761,-0.10899211466312408
1772536729831685400,5.857685302734375,0.31775450706481934,-0.06847550719976425,-0.035231076180934906
1772536729841734400,5.867734375,0.329293429851532,-0.025302071124315262,0.021206539124250412
1772536729851783200,5.877783203125,0.36782002449035645,0.050376180559396744,0.046196840703487396
1772536729861832400,5.88783251953125,0.40257328748703003,0.12440277636051178,0.03892192617058754
1772536729871880200,5.897880126953125,0.44252175092697144,0.1858336478471756,0.011338504031300545
1772536729881929500,5.907929443359375,0.47996217012405396,0.22506935894489288,-0.0190885066986084
1772536729891978200,5.917978271484375,0.49781760573387146,0.23811911046504974,-0.03906674310564995
1772536729902027300,5.92802734375,0.48497629165649414,0.21344636380672455,-0.03987754508852959
1772536729912076300,5.938076171875,0.45720189809799194,0.1337595283985138,-0.04116624966263771
1772536729922125300,5.948125244140625,0.4213460087776184,0.019372859969735146,-0.03144311159849167
1772536729932173300,5.95817333984375,0.38578376173973083,-0.0826837345957756,-0.013804995454847813
1772536729942222300,5.968222412109375,0.3582899868488312,-0.13855348527431488,-0.002098741475492716
1772536729952271400,5.978271240234375,0.3375125229358673,-0.15868379175662994,0.000759895658120513
1772536729962320400,5.9883203125,0.32428354024887085,-0.15393458306789398,-0.020509174093604088
1772536729972369400,5.998369384765625,0.3177736699581146,-0.13444049656391144,-0.04894925653934479
1772536729982418200,6.008418212890625,0.31345945596694946,-0.09915625303983688,-0.09754559397697449
1772536729992466400,6.018466552734375,0.3032512664794922,-0.04676761105656624,-0.14251679182052612
1772536730002515200,6.02851513671875,0.2899506092071533,0.027602991089224815,-0.17715497314929962
1772536730012564500,6.038564453125,0.2696479856967926,0.11186381429433823,-0.2041272073984146
1772536730022613200,6.04861328125,0.25701960921287537,0.187422513961792,-0.20806623995304108
1772536730032662300,6.058662353515625,0.2506770193576813,0.24682193994522095,-0.19791321456432343
1772536730042710300,6.068710205078125,0.25276684761047363,0.274353951215744,-0.17548628151416779
1772536730052759300,6.07875927734375,0.26027506589889526,0.27891966700553894,-0.16112597286701202
1772536730062808300,6.088808349609375,0.2731389105319977,0.26650989055633545,-0.15892080962657928
1772536730072857300,6.098857421875,0.27784737944602966,0.2507668733596802,-0.16258504986763
1772536730082906400,6.10890625,0.2756728529930115,0.21907716989517212,-0.17512273788452148
1772536730092954400,6.118954345703125,0.2643040716648102,0.17556138336658478,-0.18791364133358002
1772536730103003100,6.129003173828125,0.24786537885665894,0.14194804430007935,-0.19900502264499664
1772536730113052400,6.139052490234375,0.23470163345336914,0.11445783823728561,-0.19793257117271423
1772536730123101200,6.14910107421875,0.22233004868030548,0.08763709664344788,-0.1881725788116455
1772536730133150500,6.159150390625,0.2200610339641571,0.07757168263196945,-0.16684171557426453
1772536730143198200,6.1691982421875,0.21762047708034515,0.09361476451158524,-0.14647482335567474
1772536730153247200,6.179247314453125,0.21922503411769867,0.1323496401309967,-0.12555915117263794
1772536730163296500,6.189296630859375,0.2251838594675064,0.18228165805339813,-0.10210008174180984
1772536730173345300,6.19934521484375,0.22777165472507477,0.2122105211019516,-0.09015127271413803
1772536730183394600,6.20939453125,0.22575059533119202,0.20872382819652557,-0.08216042816638947
1772536730193442300,6.2194423828125,0.2146446704864502,0.1797901839017868,-0.07711853086948395
1772536730203491300,6.2294912109375,0.18494996428489685,0.12924927473068237,-0.0800732672214508
1772536730213540400,6.239540283203125,0.14463716745376587,0.07549336552619934,-0.08573701232671738
1772536730223589400,6.24958935546875,0.09748557955026627,0.023681391030550003,-0.08860118687152863
1772536730233638400,6.259638427734375,0.05120517313480377,-0.02122083492577076,-0.0816173180937767
1772536730243687400,6.2696875,0.016156863421201706,-0.040079645812511444,-0.06650596112012863
1772536730253735400,6.2797353515625,-0.0026423903182148933,-0.030536212027072906,-0.0328124463558197
1772536730263784400,6.289784423828125,-0.01319893728941679,-0.017413126304745674,0.0054918499663472176
1772536730273833200,6.299833251953125,-0.010625791735947132,0.005090585444122553,0.034395139664411545
1772536730283882500,6.309882568359375,-0.0011494457721710205,0.029726816341280937,0.04728306457400322
1772536730293931300,6.31993115234375,0.0025944262742996216,0.04158960282802582,0.0595405288040638
1772536730303979500,6.3299794921875,-0.008774280548095703,0.040333956480026245,0.06062554568052292
1772536730314028300,6.3400283203125,-0.03661283850669861,-0.0034750443883240223,0.04414457082748413
1772536730324077300,6.350077392578125,-0.0685272365808487,-0.06431462615728378,0.02077116072177887
1772536730334126300,6.360126220703125,-0.09820549935102463,-0.10938036441802979,0.006694491021335125
1772536730344175400,6.37017529296875,-0.12870149314403534,-0.12023846060037613,0.012188650667667389
1772536730354223400,6.380223388671875,-0.15140654146671295,-0.08594813197851181,0.030769526958465576
1772536730364272400,6.3902724609375,-0.15659977495670319,-0.015677543357014656,0.060376934707164764
1772536730374321400,6.4003212890625,-0.14016515016555786,0.07761938124895096,0.0898757055401802
1772536730384370400,6.410370361328125,-0.11229884624481201,0.17884443700313568,0.1081707701086998
1772536730394419500,6.42041943359375,-0.08521050214767456,0.20230263471603394,0.07370041310787201
1772536730404467500,6.430467529296875,-0.07702607661485672,0.10170864313840866,-0.01739167794585228
1772536730414516500,6.4405166015625,-0.09145721048116684,-0.0387246310710907,-0.13279657065868378
1772536730424565200,6.450565185546875,-0.10325846076011658,-0.1106245294213295,-0.21042601764202118
1772536730434614500,6.460614501953125,-0.12013918161392212,-0.09135309606790543,-0.22592109441757202
1772536730444663300,6.470663330078125,-0.1333538144826889,-0.006258082576096058,-0.20790767669677734
1772536730454711600,6.480711669921875,-0.12365484982728958,0.1098453551530838,-0.16629526019096375
1772536730464760300,6.49076025390625,-0.09886324405670166,0.20479251444339752,-0.12634260952472687
1772536730474809300,6.500809326171875,-0.06643553078174591,0.2811213731765747,-0.09165440499782562
1772536730484858400,6.5108583984375,-0.031227637082338333,0.339599072933197,-0.0625157281756401
1772536730494907400,6.520907470703125,-0.0029326165094971657,0.3654541075229645,-0.030874449759721756
1772536730504956400,6.530956298828125,0.02361541986465454,0.30953022837638855,-0.01939544454216957
1772536730515004400,6.54100439453125,0.0397816076874733,0.1786651611328125,-0.0005005842540413141
1772536730525053400,6.551053466796875,0.051679231226444244,0.0387483574450016,0.014558576047420502
1772536730535102500,6.5611025390625,0.05556904524564743,-0.09854186326265335,0.049651581794023514
1772536730545151500,6.5711513671875,0.06004292890429497,-0.18297551572322845,0.11705664545297623
1772536730555200300,6.5812001953125,0.07367325574159622,-0.21076586842536926,0.20496413111686707
1772536730565248500,6.59124853515625,0.08577873557806015,-0.17160898447036743,0.29547232389450073
1772536730575297300,6.60129736328125,0.09968656301498413,-0.07773230224847794,0.3645738959312439
1772536730585346600,6.6113466796875,0.11691039055585861,0.0374627560377121,0.38612231612205505
1772536730595395300,6.621395263671875,0.13048185408115387,0.14648137986660004,0.35658252239227295
1772536730605444400,6.6314443359375,0.12997975945472717,0.22052913904190063,0.27422645688056946
1772536730615492400,6.641492431640625,0.10818710923194885,0.24588643014431,0.16679133474826813
1772536730625541400,6.651541259765625,0.06894825398921967,0.22156943380832672,0.05532580614089966
1772536730635590400,6.66159033203125,0.021747184917330742,0.15926824510097504,-0.04472516104578972
1772536730645639400,6.671639404296875,-0.026310071349143982,0.07920921593904495,-0.11501573771238327
1772536730655688200,6.681688232421875,-0.06600741297006607,0.019730176776647568,-0.15173034369945526
1772536730665736400,6.691736328125,-0.0813259407877922,0.001679996494203806,-0.16186542809009552
1772536730675785200,6.70178515625,-0.07198037952184677,0.03594103083014488,-0.15227538347244263
1772536730685834500,6.71183447265625,-0.041225530207157135,0.11961757391691208,-0.1298287808895111
1772536730695883300,6.72188330078125,0.0001645190641283989,0.2185114026069641,-0.10221792757511139
1772536730705932300,6.731932373046875,0.05325280874967575,0.2913174033164978,-0.07252269238233566
1772536730715980300,6.741980224609375,0.10434235632419586,0.3214350938796997,-0.04169074818491936
1772536730726029300,6.752029296875,0.1490415334701538,0.3254126310348511,-0.011835437268018723
1772536730736078600,6.76207861328125,0.1731892079114914,0.3158433735370636,0.008166766725480556
1772536730746127400,6.77212744140625,0.1757783591747284,0.28717225790023804,0.000010900432243943214
1772536730756176400,6.78217626953125,0.16879235208034515,0.2525610029697418,-0.029445258900523186
1772536730766224400,6.792224365234375,0.16320018470287323,0.22186876833438873,-0.059635136276483536
1772536730776273400,6.8022734375,0.15420855581760406,0.19667766988277435,-0.07436241209506989
1772536730786322400,6.812322509765625,0.15106871724128723,0.173579141497612,-0.08444105088710785
1772536730796371500,6.822371337890625,0.15248045325279236,0.16920968890190125,-0.08525438606739044
1772536730806420200,6.832420166015625,0.1562897264957428,0.16172240674495697,-0.078315868973732
1772536730816469500,6.842469482421875,0.1705259084701538,0.1751580536365509,-0.06457262486219406
1772536730826517200,6.852517333984375,0.17775636911392212,0.21830885112285614,-0.0548604391515255
1772536730836566500,6.86256640625,0.2157394289970398,0.20390726625919342,-0.0391821414232254
1772536730846615300,6.872615234375,0.23910175263881683,0.18842178583145142,-0.034506432712078094
1772536730856664300,6.882664306640625,0.26396316289901733,0.17130298912525177,-0.03403158858418465
1772536730866713300,6.89271337890625,0.29160967469215393,0.16787567734718323,-0.017112504690885544
1772536730876761300,6.90276123046875,0.3088187575340271,0.1572858840227127,-0.010520913638174534
1772536730886810400,6.912810302734375,0.3174819052219391,0.13307851552963257,-0.011074284091591835
1772536730896859400,6.922859375,0.32229822874069214,0.11130505055189133,-0.010983469896018505
1772536730906908400,6.932908447265625,0.33490505814552307,0.07098940759897232,-0.00518624996766448
1772536730916957400,6.94295751953125,0.3591041564941406,0.06221749261021614,0.010490713641047478
1772536730927005200,6.953005126953125,0.3871663808822632,0.06659232825040817,0.03525165468454361
1772536730937054500,6.963054443359375,0.4221848249435425,0.08136008679866791,0.06053171306848526
1772536730947103500,6.973103515625,0.4600663185119629,0.10333289951086044,0.08554622530937195
1772536730957152300,6.98315234375,0.4839397072792053,0.09975521266460419,0.10627733916044235
1772536730967201500,6.993201416015625,0.5103682279586792,0.07344299554824829,0.12018480151891708
1772536730977249300,7.003249267578125,0.5491132140159607,0.0852125734090805,0.14371035993099213
1772536730987298600,7.013298583984375,0.5581846833229065,0.09884721040725708,0.18059960007667542
1772536730997347300,7.023347412109375,0.5695553421974182,0.07656320929527283,0.20041485130786896
1772536731007396400,7.033396240234375,0.580284595489502,0.043151773512363434,0.21302218735218048
1772536731017445400,7.0434453125,0.5921889543533325,0.01515263319015503,0.21411648392677307
1772536731027493400,7.053493408203125,0.6024987101554871,0.013372157700359821,0.21228337287902832
1772536731037542400,7.06354248046875,0.6196068525314331,0.026486363261938095,0.2111816257238388
1772536731047591400,7.07359130859375,0.6424195170402527,0.06161053106188774,0.21419338881969452
1772536731057640200,7.08364013671875,0.6678242087364197,0.10162878036499023,0.2089879810810089
1772536731067689500,7.093689453125,0.6817172169685364,0.12753401696681976,0.21423837542533875
1772536731077737200,7.1037373046875,0.6907269954681396,0.14680732786655426,0.22632940113544464
1772536731087786500,7.113786376953125,0.698732852935791,0.16361621022224426,0.23583757877349854
1772536731097835300,7.123835205078125,0.7100251913070679,0.21701525151729584,0.251310795545578
1772536731107884300,7.13388427734375,0.7334074378013611,0.25140848755836487,0.2606486976146698
1772536731117933600,7.14393359375,0.7519347667694092,0.17198023200035095,0.23129799962043762
1772536731127981300,7.153981201171875,0.7419061660766602,-0.01890416070818901,0.17083828151226044
1772536731138030300,7.1640302734375,0.6986415386199951,-0.20293816924095154,0.10917066037654877
1772536731148079400,7.174079345703125,0.6480841636657715,-0.29105696082115173,0.05743516609072685
1772536731158128400,7.18412841796875,0.5943735241889954,-0.3570820391178131,0.028697261586785316
1772536731168177400,7.194177490234375,0.5370753407478333,-0.4095441401004791,0.017157413065433502
1772536731178226400,7.204226318359375,0.5156547427177429,-0.33782628178596497,0.03993569687008858
1772536731188274400,7.2142744140625,0.4906746745109558,-0.19114325940608978,0.09572748094797134
1772536731198323500,7.224323486328125,0.5005400776863098,0.010936337523162365,0.1539018452167511
1772536731208372500,7.23437255859375,0.5242651104927063,0.22365714609622955,0.17307429015636444
1772536731218421500,7.24442138671875,0.5512889623641968,0.36821484565734863,0.14771859347820282
1772536731228470300,7.25447021484375,0.5857945680618286,0.4439999461174011,0.08392128348350525
1772536731238518500,7.2645185546875,0.6189178824424744,0.4483936131000519,0.011528042145073414
1772536731248567300,7.2745673828125,0.630028247833252,0.3847857117652893,-0.04964756593108177
1772536731258616300,7.2846162109375,0.6257581114768982,0.2882125675678253,-0.06063896417617798
1772536731268665300,7.294665283203125,0.6330417394638062,0.21668590605258942,-0.02235279232263565
1772536731278714400,7.30471435546875,0.6488438844680786,0.18573491275310516,0.047313105314970016
1772536731288762400,7.314762451171875,0.6609119176864624,0.16164438426494598,0.1330655813217163
1772536731298811400,7.324811279296875,0.6730820536613464,0.1748747080564499,0.19478434324264526
1772536731308860400,7.3348603515625,0.6837993264198303,0.2113603949546814,0.22295813262462616
1772536731318909400,7.344909423828125,0.6932149529457092,0.24850377440452576,0.20287203788757324
1772536731328958500,7.35495849609375,0.7103713154792786,0.27785128355026245,0.14647933840751648
1772536731339006500,7.36500634765625,0.7188071012496948,0.2788161337375641,0.08017141371965408
1772536731349055200,7.37505517578125,0.7052631974220276,0.25259342789649963,0.0011210145894438028
1772536731359104500,7.3851044921875,0.6897926330566406,0.21209608018398285,-0.08087798207998276
1772536731369153500,7.395153564453125,0.6735780835151672,0.19678302109241486,-0.15001443028450012
1772536731379202300,7.405202392578125,0.6626138091087341,0.20680290460586548,-0.19040100276470184
1772536731389250300,7.415250244140625,0.6636179089546204,0.21841610968112946,-0.19826146960258484
1772536731399299300,7.42529931640625,0.6663713455200195,0.22965705394744873,-0.19537566602230072
1772536731409348600,7.4353486328125,0.6703718304634094,0.21424730122089386,-0.18568909168243408
1772536731419397400,7.4453974609375,0.68586665391922,0.17148971557617188,-0.1891075223684311
1772536731429446400,7.4554462890625,0.6951548457145691,0.12978625297546387,-0.1974741518497467
1772536731439494400,7.465494384765625,0.6900215744972229,0.10314319282770157,-0.221717968583107
1772536731449543400,7.47554345703125,0.6783574819564819,0.08123687654733658,-0.26482048630714417
1772536731459592700,7.4855927734375,0.6526771187782288,0.0826113373041153,-0.3191481828689575
1772536731469641500,7.495641357421875,0.6259819865226746,0.12890630960464478,-0.3696160614490509
1772536731479690500,7.5056904296875,0.6054474115371704,0.20902884006500244,-0.4127888083457947
1772536731489738500,7.515738525390625,0.6005445122718811,0.3081918954849243,-0.44317421317100525
1772536731499787500,7.52578759765625,0.6077030897140503,0.38914158940315247,-0.4547637701034546
1772536731509836500,7.53583642578125,0.6328886151313782,0.45582315325737,-0.4417019486427307
1772536731519885600,7.545885498046875,0.6588070392608643,0.5233502388000488,-0.40238142013549805
1772536731529934300,7.555934326171875,0.6972544193267822,0.5646165013313293,-0.35084161162376404
1772536731539982600,7.565982666015625,0.7420147061347961,0.539985179901123,-0.2959003448486328
1772536731550031400,7.57603125,0.7770190238952637,0.48602163791656494,-0.24952836334705353
1772536731560080600,7.58608056640625,0.8020104169845581,0.4017546772956848,-0.20833352208137512
1772536731570129400,7.59612939453125,0.8052032589912415,0.3231861889362335,-0.1749538779258728
1772536731580178400,7.606178466796875,0.7943812608718872,0.25781676173210144,-0.15006424486637115
1772536731590227500,7.6162275390625,0.776825487613678,0.19820596277713776,-0.13121607899665833
1772536731600275500,7.626275390625,0.7529709935188293,0.15149012207984924,-0.12859633564949036
1772536731610324500,7.636324462890625,0.7305436134338379,0.12658874690532684,-0.11553235352039337
1772536731620373500,7.64637353515625,0.7109560370445251,0.14843758940696716,-0.10727708041667938
1772536731630422500,7.656422607421875,0.6892112493515015,0.17542611062526703,-0.10875415056943893
1772536731640471600,7.666471435546875,0.6671187281608582,0.2059810906648636,-0.10675997287034988
1772536731650519300,7.676519287109375,0.6437984108924866,0.2522178590297699,-0.10117132216691971
1772536731660568600,7.686568603515625,0.620532751083374,0.2774960696697235,-0.09263642132282257
1772536731670617600,7.69661767578125,0.5979922413825989,0.29971179366111755,-0.08913296461105347
1772536731680666400,7.706666259765625,0.5711930990219116,0.2959657907485962,-0.08842110633850098
1772536731690715600,7.716715576171875,0.5383421778678894,0.2731042504310608,-0.07467736303806305
1772536731700763400,7.726763427734375,0.5102362632751465,0.25557398796081543,-0.05087961629033089
1772536731710812700,7.736812744140625,0.4841994643211365,0.25770729780197144,-0.02173936739563942
1772536731720861400,7.746861328125,0.4646793007850647,0.24699871242046356,0.0025228289887309074
1772536731730910500,7.756910400390625,0.4543876647949219,0.22439119219779968,0.019842172041535378
1772536731740959500,7.76695947265625,0.45141932368278503,0.17516931891441345,0.023508811369538307
1772536731751007500,7.777007568359375,0.44507211446762085,0.12739892303943634,0.025253724306821823
1772536731761056500,7.787056396484375,0.4419412910938263,0.10003121942281723,0.036458976566791534
1772536731771105500,7.79710546875,0.4334352910518646,0.09975405782461166,0.05288597196340561
1772536731781154300,7.807154296875,0.4129031002521515,0.11883987486362457,0.0837211087346077
1772536731791203600,7.81720361328125,0.39688166975975037,0.1489955633878708,0.10625669360160828
1772536731801251300,7.827251220703125,0.38130617141723633,0.19484375417232513,0.12311903387308121
1772536731811300600,7.837300537109375,0.3671150803565979,0.25690972805023193,0.1277952790260315
1772536731821349400,7.847349365234375,0.3552509844303131,0.3053275942802429,0.11887608468532562
1772536731831398400,7.8573984375,0.35620948672294617,0.31536564230918884,0.08910956233739853
1772536731841447700,7.86744775390625,0.3589712083339691,0.2921268939971924,0.058206506073474884
1772536731851495400,7.877495361328125,0.36488595604896545,0.2455499917268753,0.03689994290471077
1772536731861544400,7.88754443359375,0.37372127175331116,0.20528778433799744,0.045654818415641785
1772536731871593500,7.897593505859375,0.38211336731910706,0.19423836469650269,0.08629192411899567
1772536731881642500,7.907642578125,0.3837061822414398,0.2151779979467392,0.11937903612852097
1772536731891691500,7.91769140625,0.40085074305534363,0.15680308640003204,0.11136934906244278
1772536731901739300,7.9277392578125,0.3924148976802826,0.031533047556877136,0.06552755832672119
1772536731911788500,7.93778857421875,0.38096538186073303,-0.0569012425839901,0.002855345606803894
1772536731921837600,7.947837646484375,0.37755998969078064,-0.09092339128255844,-0.041658591479063034
1772536731931886300,7.95788623046875,0.3701525032520294,-0.06909797340631485,-0.06733842194080353
1772536731941935600,7.967935546875,0.36434176564216614,-0.010129191912710667,-0.06230105087161064
1772536731951983400,7.9779833984375,0.377265989780426,0.08814433217048645,-0.035102009773254395
1772536731962032600,7.98803271484375,0.42867591977119446,0.24275416135787964,0.011944330297410488
1772536731972081400,7.998081298828125,0.48610249161720276,0.37063002586364746,0.052549879997968674
1772536731982130400,8.00813037109375,0.5309090614318848,0.43842825293540955,0.08884529769420624
1772536731992179500,8.018179443359376,0.5674566030502319,0.45101189613342285,0.12326319515705109
1772536732002227500,8.0282275390625,0.5926487445831299,0.4151798486709595,0.1595708727836609
1772536732012276500,8.0382763671875,0.6030626893043518,0.34042635560035706,0.19436697661876678
1772536732022325500,8.048325439453125,0.6072643399238586,0.2400590032339096,0.23046639561653137
1772536732032374300,8.058374267578126,0.6055103540420532,0.13931691646575928,0.2762815058231354
1772536732042423600,8.068423583984375,0.5941338539123535,0.04610946774482727,0.3097185492515564
1772536732052471300,8.07847119140625,0.5706785917282104,-0.029028652235865593,0.33889341354370117
1772536732062520600,8.0885205078125,0.5463489890098572,-0.08147881180047989,0.3512669801712036
1772536732072569300,8.0985693359375,0.5331801176071167,-0.08698269724845886,0.34743863344192505
1772536732082618400,8.108618408203125,0.5201138854026794,-0.049758099019527435,0.3314836323261261
1772536732092667600,8.118667724609375,0.5025545358657837,0.014852562919259071,0.2938116490840912
1772536732102715400,8.12871533203125,0.48164603114128113,0.08346571028232574,0.23988664150238037
1772536732112764400,8.138764404296875,0.45114535093307495,0.13242177665233612,0.16401585936546326
1772536732122813400,8.1488134765625,0.4151788353919983,0.17835944890975952,0.08765264600515366
1772536732132862500,8.158862548828125,0.3907600939273834,0.251295804977417,0.01157534308731556
1772536732142911500,8.168911376953124,0.3877318203449249,0.3483608365058899,-0.061204321682453156
1772536732152959500,8.17895947265625,0.40183135867118835,0.426016628742218,-0.119990773499012
1772536732163008500,8.189008544921874,0.42530766129493713,0.47584331035614014,-0.165580615401268
1772536732173057500,8.1990576171875,0.4560610055923462,0.49855273962020874,-0.18372315168380737
1772536732183106300,8.209106201171876,0.4964182674884796,0.5156555771827698,-0.17738883197307587
1772536732193155600,8.219155517578125,0.5425662398338318,0.5336591601371765,-0.13758128881454468
1772536732203203300,8.229203369140626,0.5835443139076233,0.563075602054596,-0.07990602403879166
1772536732213252600,8.239252685546875,0.6251005530357361,0.5957354307174683,-0.022729642689228058
1772536732223301400,8.24930126953125,0.6702983379364014,0.6033360958099365,0.026317529380321503
1772536732233350400,8.259350341796875,0.7158470153808594,0.5826317071914673,0.050452832132577896
1772536732243399400,8.2693994140625,0.7584698796272278,0.5322479009628296,0.05708729848265648
1772536732253447400,8.279447509765625,0.7928098440170288,0.47036033868789673,0.05959463119506836
1772536732263496400,8.289496337890625,0.7759895920753479,0.3532278537750244,0.0216299369931221
1772536732273545500,8.29954541015625,0.7731286883354187,0.20629405975341797,-0.04458633437752724
1772536732283594500,8.309594482421875,0.771384596824646,0.09407112002372742,-0.07953926175832748
1772536732293643500,8.3196435546875,0.7522785067558289,0.015268148854374886,-0.08227783441543579
1772536732303691300,8.329691162109375,0.7376417517662048,-0.02977815456688404,-0.07355358451604843
1772536732313740500,8.339740478515624,0.7355735301971436,-0.0368381068110466,-0.057232875376939774
1772536732323789300,8.349789306640625,0.735314667224884,-0.027704263105988503,-0.041511170566082
1772536732333838300,8.35983837890625,0.7376571297645569,-0.0039516533724963665,-0.031304437667131424
1772536732343887600,8.3698876953125,0.7464509010314941,0.023947356268763542,-0.027705974876880646
1772536732353935400,8.379935302734374,0.7487514019012451,0.05501680448651314,-0.04206627979874611
1772536732363984600,8.389984619140625,0.7502265572547913,0.0910259410738945,-0.06763209402561188
1772536732374033400,8.400033447265624,0.7472628951072693,0.13268235325813293,-0.09482935070991516
1772536732384082400,8.41008251953125,0.7396923303604126,0.1771307736635208,-0.11639536172151566
1772536732394131500,8.42013134765625,0.7347319722175598,0.22157804667949677,-0.13561783730983734
1772536732404179500,8.430179443359375,0.733905553817749,0.25202569365501404,-0.13497069478034973
1772536732414228500,8.440228515625,0.7355242967605591,0.2599133551120758,-0.12073881924152374
1772536732424277500,8.450277587890625,0.7304813265800476,0.24500367045402527,-0.10386130213737488
1772536732434326500,8.460326416015626,0.7306721806526184,0.2365281581878662,-0.07685042917728424
1772536732444375800,8.470375732421875,0.7293025255203247,0.24587024748325348,-0.03670301288366318
1772536732454423600,8.480423583984376,0.7258337736129761,0.2622011601924896,0.0031223143450915813
1772536732464472800,8.490472900390625,0.7233101725578308,0.2877217233181,0.04163029044866562
1772536732474521600,8.500521484375,0.7288753390312195,0.3161602020263672,0.07055418938398361
1772536732484570600,8.510570556640625,0.7335595488548279,0.3375765383243561,0.08866021782159805
1772536732494619600,8.52061962890625,0.7366162538528442,0.33615678548812866,0.09822481125593185
1772536732504667600,8.530667724609375,0.7392178773880005,0.32700321078300476,0.09917289763689041
1772536732514716700,8.540716552734375,0.7370981574058533,0.31767043471336365,0.09406236559152603
1772536732524765700,8.550765625,0.7353047728538513,0.30808064341545105,0.09777641296386719
1772536732534814700,8.560814697265625,0.7329367399215698,0.3065831661224365,0.11362221837043762
1772536732544863700,8.57086376953125,0.7318136096000671,0.30327582359313965,0.14042675495147705
1772536732554911500,8.580911376953125,0.7369840145111084,0.3287295997142792,0.178534135222435
1772536732564960800,8.590960693359374,0.741790235042572,0.3636431097984314,0.21884240210056305
1772536732575009800,8.601009765625,0.7379066944122314,0.35753971338272095,0.24903427064418793
1772536732585058800,8.611058837890624,0.7329409718513489,0.31880828738212585,0.2607037127017975
1772536732595107800,8.62110791015625,0.7306662797927856,0.2848857641220093,0.27505403757095337
1772536732605156600,8.631156494140624,0.7149906754493713,0.26775020360946655,0.30658799409866333
1772536732615204900,8.641204833984375,0.703856348991394,0.2927171289920807,0.33093976974487305
1772536732625253600,8.651253662109376,0.7048525810241699,0.36373189091682434,0.3502277135848999
1772536732635302700,8.661302734375,0.714708685874939,0.4346778988838196,0.3385542929172516
1772536732645351700,8.6713515625,0.7272689342498779,0.4431542158126831,0.2875867187976837
1772536732655399700,8.681399658203125,0.7387105822563171,0.403516560792923,0.21759802103042603
1772536732665448700,8.69144873046875,0.7286587357521057,0.3348594605922699,0.14936038851737976
1772536732675497700,8.701497802734375,0.7003063559532166,0.2635957598686218,0.10128006339073181
1772536732685546800,8.711546630859376,0.6560707092285156,0.2232813686132431,0.06546081602573395
1772536732695595800,8.721595703125,0.6062601208686829,0.21464645862579346,0.04521806910634041
1772536732705643800,8.731643798828125,0.5696746706962585,0.25097355246543884,0.03258909285068512
1772536732715692800,8.74169287109375,0.5464999675750732,0.325724720954895,0.02234775573015213
1772536732725741600,8.751741455078125,0.5506387948989868,0.420653373003006,0.008559771813452244
1772536732735790800,8.761790771484375,0.558322012424469,0.49766215682029724,-0.013300253078341484
1772536732745839900,8.77183984375,0.5568556785583496,0.5124493837356567,-0.05269905924797058
1772536732755887900,8.781887939453124,0.5392636060714722,0.4693121910095215,-0.10180160403251648
1772536732765936600,8.7919365234375,0.50879967212677,0.39390984177589417,-0.1390586942434311
1772536732775985700,8.801985595703124,0.4665166437625885,0.2930994927883148,-0.15082748234272003
1772536732786035000,8.812034912109375,0.4273141026496887,0.20154374837875366,-0.13588261604309082
1772536732796083700,8.822083740234374,0.40355780720710754,0.1364244520664215,-0.10891331732273102
1772536732806131700,8.832131591796875,0.3981265723705292,0.1207118034362793,-0.07804089039564133
1772536732816180700,8.8421806640625,0.41800031065940857,0.16739799082279205,-0.038346897810697556
1772536732826229800,8.852229736328125,0.46430468559265137,0.25646156072616577,0.0013693543151021004
1772536732836278800,8.86227880859375,0.5266401171684265,0.36900246143341064,0.03277871012687683
1772536732846327800,8.872327880859375,0.5969305038452148,0.47251126170158386,0.05119819566607475
1772536732856375800,8.882375732421876,0.6513763070106506,0.5235564708709717,0.06260837614536285
1772536732866424800,8.8924248046875,0.6825518012046814,0.490535706281662,0.08077353239059448
1772536732876473600,8.9024736328125,0.6904566884040833,0.39044806361198425,0.09654831886291504
1772536732886523000,8.91252294921875,0.6684025526046753,0.2517642080783844,0.10774931311607361
1772536732896571600,8.922571533203126,0.620629608631134,0.10329556465148926,0.1275729238986969
1772536732906620000,8.932619873046875,0.5680332183837891,-0.01222170889377594,0.14732426404953003
1772536732916668700,8.942668701171876,0.5204176902770996,-0.08715155720710754,0.16205474734306335
1772536732926717700,8.9527177734375,0.48241305351257324,-0.12745557725429535,0.1565859466791153
1772536732936766700,8.9627666015625,0.45361268520355225,-0.12284982949495316,0.1212027445435524
1772536732946815700,8.972815673828125,0.4373839199542999,-0.07185348868370056,0.06042221561074257
1772536732956863700,8.98286376953125,0.43269458413124084,0.012737702578306198,-0.012179115787148476
1772536732966912800,8.992912841796874,0.4368989169597626,0.13330353796482086,-0.09119696915149689
1772536732976961500,9.00296142578125,0.42585331201553345,0.2587145268917084,-0.152425616979599
1772536732987010800,9.0130107421875,0.4046010375022888,0.35041356086730957,-0.2150256186723709
1772536732997059800,9.023059814453125,0.39296793937683105,0.4351586103439331,-0.24219483137130737
1772536733007107800,9.03310791015625,0.3314491808414459,0.4462541341781616,-0.2341052144765854
1772536733017156900,9.043156982421875,0.27917051315307617,0.24438484013080597,-0.28008225560188293
1772536733027205600,9.05320556640625,0.27116239070892334,0.09303447604179382,-0.31015175580978394
1772536733037255000,9.0632548828125,0.2454414963722229,0.04487213119864464,-0.318884015083313
1772536733047303700,9.0733037109375,0.23011553287506104,0.026694459840655327,-0.3208009600639343
1772536733057352000,9.08335205078125,0.236626535654068,0.0336628332734108,-0.305877149105072
1772536733067400700,9.093400634765626,0.25513389706611633,0.034780293703079224,-0.2832477390766144
1772536733077449700,9.10344970703125,0.2802478075027466,0.02838052064180374,-0.25648990273475647
1772536733087498800,9.113498779296876,0.30847224593162537,0.027924321591854095,-0.22108423709869385
1772536733097547800,9.1235478515625,0.3362017869949341,0.03349235653877258,-0.16705217957496643
