time,seconds_elapsed,z,y,x
1772571193638240300,0.088240234375,-0.0007635815418325365,0.00015271631127689034,0.0003054326225537807
1772571193656088300,0.10608837890625,-0.0007635815418325365,-0.00045814894838258624,-0.00015271631127689034
1772571193673921800,0.123921875,0.00045814894838258624,0.001527163083665073,0.0006108652451075613
1772571193691745300,0.141745361328125,0.00015271631127689034,0.0007635815418325365,-0.00045814894838258624
1772571193709592000,0.159592041015625,0,-0.0012217304902151227,-0.0010690141934901476
1772571193727426800,0.1774267578125,0.00015271631127689034,0,0
1772571193745262300,0.195262451171875,-0.0007635815418325365,0.001527163083665073,-0.0006108652451075613
1772571193763094800,0.2130947265625,-0.0003054326225537807,-0.0006108652451075613,-0.0007635815418325365
1772571193780932600,0.2309326171875,0.0003054326225537807,0.00015271631127689034,-0.00015271631127689034
1772571193798768000,0.24876806640625,0.0003054326225537807,0.00015271631127689034,0.0012217304902151227
1772571193816603000,0.266602783203125,-0.0007635815418325365,0.001679879380390048,0.0013744467869400978
1772571193834437000,0.28443701171875,0.0003054326225537807,0.0012217304902151227,0
1772571193852274000,0.30227392578125,-0.0007635815418325365,0.00045814894838258624,0.0003054326225537807
1772571193870108000,0.32010791015625,0.0012217304902151227,0.0006108652451075613,0.0003054326225537807
1772571193887942700,0.337942626953125,0.00015271631127689034,0.0003054326225537807,-0.001679879380390048
1772571193905778200,0.355778076171875,-0.0009162978967651725,0.0007635815418325365,0.0003054326225537807
1772571193923612700,0.37361279296875,0.0003054326225537807,-0.0009162978967651725,-0.0009162978967651725
1772571193941445400,0.3914453125,0.0012217304902151227,-0.003054326167330146,-0.0003054326225537807
1772571193959282400,0.409282470703125,-0.0007635815418325365,0,-0.0010690141934901476
1772571193977121000,0.42712109375,0.0009162978967651725,-0.0010690141934901476,0
1772571193994952400,0.444952392578125,-0.0006108652451075613,-0.0007635815418325365,0.00015271631127689034
1772571194012788000,0.4627880859375,-0.0006108652451075613,0.001527163083665073,0.0003054326225537807
1772571194030622500,0.48062255859375,0.00045814894838258624,-0.0009162978967651725,-0.0010690141934901476
1772571194048458200,0.498458251953125,-0.00015271631127689034,-0.0013744467869400978,-0.0009162978967651725
1772571194066292500,0.51629248046875,-0.0006108652451075613,-0.0010690141934901476,-0.002138028386980295
1772571194084128300,0.534128173828125,-0.001527163083665073,0.0013744467869400978,-0.0019853119738399982
1772571194101963000,0.551962890625,-0.0006108652451075613,-0.00015271631127689034,-0.001527163083665073
1772571194119798300,0.56979833984375,0.0003054326225537807,0,-0.00015271631127689034
1772571194137633000,0.587633056640625,0.00015271631127689034,-0.00045814894838258624,0.00015271631127689034
1772571194155468300,0.60546826171875,-0.0003054326225537807,0.0009162978967651725,-0.0010690141934901476
1772571194173303300,0.62330322265625,0,-0.0013744467869400978,0.0009162978967651725
1772571194191131000,0.641130859375,-0.001527163083665073,0.0013744467869400978,0.0003054326225537807
1772571194208973300,0.658973388671875,-0.0022907445672899485,0.00015271631127689034,0
1772571194226796000,0.676796142578125,0.0003054326225537807,0.00045814894838258624,-0.0007635815418325365
1772571194244643000,0.69464306640625,0.0003054326225537807,0.0010690141934901476,0.001527163083665073
1772571194262466000,0.712466064453125,-0.00015271631127689034,-0.00015271631127689034,-0.0012217304902151227
1772571194280312800,0.730312744140625,0.00015271631127689034,-0.0012217304902151227,0.0009162978967651725
1772571194298148900,0.74814892578125,-0.0003054326225537807,-0.00045814894838258624,-0.00015271631127689034
1772571194315983000,0.765983154296875,0.0007635815418325365,0.0006108652451075613,0.0012217304902151227
1772571194333819100,0.783819091796875,-0.00045814894838258624,-0.0007635815418325365,0.0010690141934901476
1772571194351653400,0.8016533203125,0.00045814894838258624,0,-0.001527163083665073
1772571194369489000,0.819489013671875,0.0006108652451075613,0.00045814894838258624,0.0006108652451075613
1772571194387323600,0.83732373046875,-0.0007635815418325365,0.0003054326225537807,-0.0010690141934901476
1772571194405159000,0.855158935546875,-0.00045814894838258624,-0.00045814894838258624,0.00045814894838258624
1772571194422989800,0.87298974609375,0,0.00015271631127689034,-0.0007635815418325365
1772571194440831700,0.890831787109375,0.0003054326225537807,-0.0006108652451075613,0.00015271631127689034
1772571194458662000,0.908661865234375,0.00015271631127689034,-0.001832595793530345,-0.0007635815418325365
1772571194476500200,0.926500244140625,-0.0006108652451075613,0.0012217304902151227,0.0003054326225537807
1772571194494333200,0.944333251953125,-0.0007635815418325365,0.0007635815418325365,-0.00015271631127689034
1772571194512168700,0.962168701171875,-0.0006108652451075613,0.001527163083665073,0.0003054326225537807
1772571194530003200,0.980003173828125,-0.00045814894838258624,-0.001832595793530345,0.0006108652451075613
1772571194547838700,0.997838623046875,-0.0007635815418325365,0.0013744467869400978,-0.0007635815418325365
1772571194565673200,1.015673095703125,0.00045814894838258624,0.0003054326225537807,-0.0007635815418325365
1772571194583509000,1.033509033203125,0.00015271631127689034,0.0010690141934901476,0.00015271631127689034
1772571194601343500,1.051343505859375,-0.0007635815418325365,0.0027488935738801956,-0.00045814894838258624
1772571194619179300,1.06917919921875,0.0003054326225537807,0.00045814894838258624,-0.00015271631127689034
1772571194637013800,1.087013671875,-0.00015271631127689034,0.0007635815418325365,-0.0006108652451075613
1772571194654849500,1.104849609375,-0.00045814894838258624,-0.0006108652451075613,0.0009162978967651725
1772571194672683800,1.122683837890625,-0.00045814894838258624,0.0024434609804302454,0
1772571194690519300,1.140519287109375,0.0003054326225537807,0.0009162978967651725,0.0003054326225537807
1772571194708353800,1.158353759765625,-0.0009162978967651725,-0.002138028386980295,0.0007635815418325365
1772571194726189300,1.176189208984375,0.0003054326225537807,0.0012217304902151227,0.00015271631127689034
1772571194744023800,1.19402392578125,0.00015271631127689034,-0.00015271631127689034,-0.0007635815418325365
1772571194761859000,1.211859130859375,-0.00045814894838258624,0.0009162978967651725,-0.001527163083665073
1772571194779694000,1.229694091796875,-0.0007635815418325365,0.0012217304902151227,-0.0006108652451075613
1772571194797529600,1.247529541015625,0.0003054326225537807,0,0
1772571194815364000,1.265364013671875,-0.0006108652451075613,0.0007635815418325365,-0.0006108652451075613
1772571194833199400,1.283199462890625,0.0012217304902151227,-0.0012217304902151227,0.0009162978967651725
1772571194851034000,1.3010341796875,-0.00045814894838258624,0.0013744467869400978,0.0003054326225537807
1772571194868869400,1.318869384765625,0.00045814894838258624,-0.0009162978967651725,-0.0010690141934901476
1772571194886704000,1.3367041015625,-0.00045814894838258624,-0.0007635815418325365,-0.00015271631127689034
1772571194904540000,1.354539794921875,0.0007635815418325365,0.0010690141934901476,-0.00045814894838258624
1772571194922374100,1.3723740234375,0.0003054326225537807,-0.0003054326225537807,-0.0006108652451075613
1772571194940210000,1.3902099609375,-0.0003054326225537807,-0.0009162978967651725,-0.0009162978967651725
1772571194958044400,1.40804443359375,-0.00015271631127689034,0.0007635815418325365,0.00015271631127689034
1772571194975879700,1.425879638671875,-0.0003054326225537807,0.00015271631127689034,0
1772571194993714000,1.4437138671875,0.0009162978967651725,-0.001527163083665073,0
1772571195011549700,1.4615498046875,-0.00045814894838258624,0.00015271631127689034,-0.0003054326225537807
1772571195029384200,1.47938427734375,-0.00045814894838258624,-0.002138028386980295,0
1772571195047219700,1.4972197265625,-0.0003054326225537807,0.00015271631127689034,-0.00045814894838258624
1772571195065054200,1.51505419921875,0.0006108652451075613,-0.0003054326225537807,-0.0007635815418325365
1772571195082890200,1.53289013671875,-0.00015271631127689034,0.0012217304902151227,0.0010690141934901476
1772571195100724700,1.550724853515625,0.0006108652451075613,0.001832595793530345,0.0013744467869400978
1772571195118560500,1.568560546875,0.00045814894838258624,0.0012217304902151227,0.0006108652451075613
1772571195136395000,1.58639501953125,0.0003054326225537807,0.0007635815418325365,-0.0003054326225537807
1772571195154230300,1.604230224609375,0.001527163083665073,-0.001679879380390048,0.00045814894838258624
1772571195172065000,1.62206494140625,0.0007635815418325365,-0.0032070425804704428,-0.0010690141934901476
1772571195189900500,1.639900634765625,0.0012217304902151227,-0.0010690141934901476,-0.0006108652451075613
1772571195207735000,1.657735107421875,0.0003054326225537807,0.0019853119738399982,-0.00015271631127689034
1772571195225570600,1.675570556640625,-0.00045814894838258624,0.0003054326225537807,-0.00015271631127689034
1772571195243405000,1.693405029296875,0.0009162978967651725,0.00015271631127689034,0.0006108652451075613
1772571195261240600,1.711240478515625,0.00045814894838258624,0,0
1772571195279062300,1.729062255859375,-0.00045814894838258624,0,0.0009162978967651725
1772571195296910300,1.746910400390625,0.0006108652451075613,0.0010690141934901476,-0.0003054326225537807
1772571195314745000,1.7647451171875,-0.0003054326225537807,0.0009162978967651725,0.0006108652451075613
1772571195332580600,1.78258056640625,-0.00045814894838258624,0.0010690141934901476,-0.001527163083665073
1772571195350414800,1.800414794921875,0.0009162978967651725,0.00015271631127689034,0.0003054326225537807
1772571195368250600,1.818250732421875,-0.0006108652451075613,0.0007635815418325365,0.0003054326225537807
1772571195386085600,1.836085693359375,0.0010690141934901476,0.0009162978967651725,0.0006108652451075613
1772571195403921200,1.853921142578125,-0.00045814894838258624,0.0009162978967651725,0.00045814894838258624
1772571195421755600,1.871755615234375,-0.00045814894838258624,0.0013744467869400978,-0.00045814894838258624
1772571195439590700,1.889590576171875,0.00015271631127689034,0.00045814894838258624,-0.00015271631127689034
1772571195457426000,1.907426025390625,0,0.0019853119738399982,0
1772571195475261000,1.925260986328125,-0.0003054326225537807,0.0009162978967651725,-0.0007635815418325365
1772571195493083100,1.943083251953125,-0.00045814894838258624,0.0010690141934901476,0.001527163083665073
1772571195510931200,1.96093115234375,0.00045814894838258624,0.00045814894838258624,0.0010690141934901476
1772571195528756200,1.978756103515625,0.00045814894838258624,0.0022907445672899485,-0.00015271631127689034
1772571195546601500,1.9966015625,-0.00045814894838258624,0.00045814894838258624,0.0012217304902151227
1772571195564421000,2.014421142578125,0.0009162978967651725,0.0009162978967651725,-0.0003054326225537807
1772571195582271700,2.032271728515625,-0.0003054326225537807,-0.001527163083665073,0.0006108652451075613
1772571195600106000,2.05010595703125,0.0006108652451075613,0.0006108652451075613,0.0003054326225537807
1772571195617941800,2.067941650390625,-0.00045814894838258624,0.0009162978967651725,0.0010690141934901476
1772571195635776300,2.0857763671875,0.0003054326225537807,0.0013744467869400978,0
1772571195653611800,2.10361181640625,0,0.0003054326225537807,-0.00015271631127689034
1772571195671446300,2.1214462890625,0.0007635815418325365,-0.00015271631127689034,-0.0003054326225537807
1772571195689282000,2.139281982421875,0.0003054326225537807,0.001832595793530345,0.00045814894838258624
1772571195707116500,2.157116455078125,0.0007635815418325365,0.00015271631127689034,0.0007635815418325365
1772571195724952000,2.1749521484375,0,-0.003512475173920393,0.00045814894838258624
1772571195742783500,2.192783447265625,0,0.00015271631127689034,-0.0013744467869400978
1772571195760625000,2.210625,0.0006108652451075613,0.0012217304902151227,-0.0003054326225537807
1772571195778456000,2.2284560546875,0.0007635815418325365,-0.0006108652451075613,0.003054326167330146
1772571195796292000,2.2462919921875,0.00015271631127689034,0.0007635815418325365,0.0006108652451075613
1772571195814126600,2.264126708984375,-0.00045814894838258624,0.0013744467869400978,0.0012217304902151227
1772571195831962000,2.281962158203125,-0.0003054326225537807,-0.0019853119738399982,0.0003054326225537807
1772571195849796600,2.299796630859375,0.00015271631127689034,0.00045814894838258624,-0.0003054326225537807
1772571195867632000,2.317632080078125,-0.0003054326225537807,-0.0006108652451075613,-0.00015271631127689034
1772571195885467100,2.335467041015625,-0.001679879380390048,0.0013744467869400978,0.001679879380390048
1772571195903302700,2.353302734375,0.0003054326225537807,0,0.0006108652451075613
1772571195921137000,2.371136962890625,0.0006108652451075613,-0.0010690141934901476,0
1772571195938973200,2.38897314453125,0,0.00045814894838258624,-0.0010690141934901476
1772571195956807400,2.406807373046875,0.00015271631127689034,0.0009162978967651725,0.00045814894838258624
1772571195974640600,2.424640625,-0.00045814894838258624,0.00045814894838258624,-0.0010690141934901476
1772571195992461600,2.442461669921875,-0.00015271631127689034,0.00015271631127689034,-0.0010690141934901476
1772571196010313200,2.460313232421875,0.0007635815418325365,0.0007635815418325365,0.00045814894838258624
1772571196028147200,2.478147216796875,0,0.001527163083665073,0.001527163083665073
1772571196045983200,2.495983154296875,0.0003054326225537807,-0.001527163083665073,0
1772571196063817500,2.5138173828125,0.0007635815418325365,0,0.0022907445672899485
1772571196081653200,2.5316533203125,-0.00045814894838258624,0.00045814894838258624,0.00045814894838258624
1772571196099488000,2.549488037109375,-0.00015271631127689034,0.0012217304902151227,0.00015271631127689034
1772571196117323500,2.567323486328125,0.0006108652451075613,0.0012217304902151227,0
1772571196135158000,2.585157958984375,-0.00015271631127689034,-0.0013744467869400978,0.0003054326225537807
1772571196152993800,2.602993896484375,-0.00015271631127689034,0.00015271631127689034,0.00015271631127689034
1772571196170828300,2.620828369140625,0.0006108652451075613,-0.0010690141934901476,-0.0003054326225537807
1772571196188660700,2.63866064453125,0.00045814894838258624,-0.00015271631127689034,0.00015271631127689034
1772571196206501600,2.656501708984375,-0.0003054326225537807,-0.0010690141934901476,0.00045814894838258624
1772571196224330500,2.67433056640625,0,-0.0006108652451075613,-0.0003054326225537807
1772571196242172000,2.692171875,0.0007635815418325365,-0.00015271631127689034,0.0003054326225537807
1772571196260002300,2.710002197265625,0.0007635815418325365,0,0.0007635815418325365
1772571196277840400,2.72784033203125,-0.0013744467869400978,-0.00045814894838258624,0
1772571196295674000,2.745674072265625,-0.0003054326225537807,0.00045814894838258624,0.00045814894838258624
1772571196313508400,2.76350830078125,-0.00045814894838258624,-0.0024434609804302454,-0.00045814894838258624
1772571196331344100,2.78134423828125,0.0007635815418325365,-0.0012217304902151227,-0.0007635815418325365
1772571196349178600,2.7991787109375,0.00045814894838258624,0.001527163083665073,-0.0003054326225537807
1772571196367014400,2.817014404296875,-0.0003054326225537807,0.001527163083665073,0.00045814894838258624
1772571196384849000,2.834848876953125,-0.00015271631127689034,0.0013744467869400978,0.00015271631127689034
1772571196402684700,2.8526845703125,0,0.0007635815418325365,0
1772571196420519400,2.87051953125,0.0007635815418325365,-0.0012217304902151227,0.0006108652451075613
1772571196438355200,2.888355224609375,-0.0007635815418325365,0.00015271631127689034,0.0010690141934901476
1772571196456189700,2.906189697265625,0.00045814894838258624,0.001832595793530345,-0.00015271631127689034
1772571196474025000,2.92402490234375,0.0007635815418325365,0.0012217304902151227,0.001527163083665073
1772571196491859200,2.941859130859375,0,0.0010690141934901476,0.0012217304902151227
1772571196509695500,2.959695556640625,0.0013744467869400978,0.0003054326225537807,-0.00015271631127689034
1772571196527530000,2.977530029296875,-0.0003054326225537807,-0.0010690141934901476,-0.0003054326225537807
1772571196545365200,2.995365234375,0.00045814894838258624,0.0013744467869400978,0.00045814894838258624
1772571196563199700,3.01319970703125,-0.00015271631127689034,-0.00045814894838258624,-0.0003054326225537807
1772571196581035500,3.031035400390625,0.0006108652451075613,-0.0006108652451075613,-0.0003054326225537807
1772571196598870300,3.048870361328125,0,-0.0013744467869400978,0.0010690141934901476
1772571196616706000,3.0667060546875,0.00015271631127689034,-0.001832595793530345,0.0007635815418325365
1772571196634540500,3.08454052734375,0.0013744467869400978,-0.00045814894838258624,-0.00015271631127689034
1772571196652376300,3.102376220703125,-0.0010690141934901476,-0.00015271631127689034,-0.00015271631127689034
1772571196670210300,3.120210205078125,-0.0003054326225537807,0.0007635815418325365,-0.0010690141934901476
1772571196688042200,3.138042236328125,-0.0003054326225537807,0.0003054326225537807,-0.0007635815418325365
1772571196705884200,3.15588427734375,-0.0003054326225537807,0.0009162978967651725,-0.0007635815418325365
1772571196723713300,3.17371337890625,0.0006108652451075613,-0.0007635815418325365,-0.0007635815418325365
1772571196741554200,3.19155419921875,0,-0.001679879380390048,-0.0027488935738801956
1772571196759386000,3.20938623046875,0.0009162978967651725,0.0003054326225537807,0.0010690141934901476
1772571196777220600,3.227220703125,-0.0003054326225537807,0.0006108652451075613,-0.0009162978967651725
1772571196795056400,3.245056396484375,-0.00045814894838258624,0.0013744467869400978,0.0010690141934901476
1772571196812891000,3.262890869140625,0.0003054326225537807,-0.0007635815418325365,-0.001527163083665073
1772571196830726400,3.280726318359375,0.0003054326225537807,-0.0013744467869400978,-0.0006108652451075613
1772571196848561200,3.29856103515625,0,0.0007635815418325365,0.0009162978967651725
1772571196866396700,3.316396728515625,0.0006108652451075613,-0.0006108652451075613,0.0019853119738399982
1772571196884231400,3.3342314453125,-0.0007635815418325365,0.00045814894838258624,0.00045814894838258624
1772571196902067200,3.352067138671875,-0.0006108652451075613,0.001679879380390048,-0.0007635815418325365
1772571196919901400,3.3699013671875,-0.00045814894838258624,-0.00015271631127689034,0.00015271631127689034
1772571196937737500,3.387737548828125,-0.00015271631127689034,-0.0007635815418325365,-0.001679879380390048
1772571196955571700,3.40557177734375,-0.00045814894838258624,-0.0022907445672899485,0
1772571196973407500,3.423407470703125,0.0009162978967651725,0,0.00045814894838258624
1772571196991242000,3.441241943359375,-0.0003054326225537807,-0.0009162978967651725,-0.00045814894838258624
1772571197009077800,3.459077880859375,-0.00045814894838258624,0.00015271631127689034,0.00015271631127689034
1772571197026912500,3.47691259765625,-0.00045814894838258624,-0.0010690141934901476,0.001527163083665073
1772571197044748300,3.494748291015625,0.0006108652451075613,-0.001832595793530345,-0.0010690141934901476
1772571197062582500,3.51258251953125,0.0013744467869400978,0.0013744467869400978,0.0003054326225537807
1772571197080418000,3.53041796875,0.0003054326225537807,0.0013744467869400978,-0.00045814894838258624
1772571197098252300,3.548252197265625,-0.0003054326225537807,-0.0006108652451075613,-0.0009162978967651725
1772571197116088000,3.566088134765625,0.0006108652451075613,-0.0003054326225537807,0.0003054326225537807
1772571197133922600,3.583922607421875,-0.0003054326225537807,0,0.0003054326225537807
1772571197151758300,3.60175830078125,-0.00015271631127689034,-0.0006108652451075613,-0.00015271631127689034
1772571197169593000,3.619593017578125,0.0007635815418325365,0.0013744467869400978,-0.00045814894838258624
1772571197187428900,3.637428955078125,0.001527163083665073,0.0006108652451075613,0.001832595793530345
1772571197205263000,3.65526318359375,0,0.00045814894838258624,0.0013744467869400978
1772571197223087900,3.673087890625,0.0006108652451075613,-0.0025961773935705423,-0.00015271631127689034
1772571197240933000,3.69093310546875,-0.00045814894838258624,-0.0010690141934901476,0.00015271631127689034
1772571197258766000,3.70876611328125,-0.00045814894838258624,-0.0003054326225537807,0.0007635815418325365
1772571197276606500,3.7266064453125,0.00015271631127689034,-0.002138028386980295,0.00015271631127689034
1772571197294439200,3.744439208984375,0.0010690141934901476,0.0013744467869400978,0.0003054326225537807
1772571197312273700,3.762273681640625,-0.0003054326225537807,-0.0010690141934901476,-0.0006108652451075613
1772571197330109200,3.780109130859375,0,0.0007635815418325365,0.0013744467869400978
1772571197347931100,3.79793115234375,0.0006108652451075613,0.0009162978967651725,-0.0019853119738399982
1772571197365779000,3.815779052734375,0.0006108652451075613,-0.0003054326225537807,0.0012217304902151227
1772571197383614200,3.8336142578125,-0.00045814894838258624,0.0003054326225537807,0.0003054326225537807
1772571197401449700,3.85144970703125,0.0006108652451075613,-0.0027488935738801956,-0.00015271631127689034
1772571197419284500,3.869284423828125,-0.00015271631127689034,-0.0006108652451075613,0
1772571197437120300,3.887120361328125,0.001832595793530345,-0.0012217304902151227,0.00045814894838258624
1772571197454955000,3.904955078125,-0.00045814894838258624,-0.0013744467869400978,-0.0006108652451075613
1772571197472790300,3.922790283203125,0.0010690141934901476,-0.00045814894838258624,-0.0003054326225537807
1772571197490624800,3.940624755859375,0.0007635815418325365,-0.0010690141934901476,-0.00045814894838258624
1772571197508460500,3.95846044921875,0.0003054326225537807,0.00015271631127689034,0.00015271631127689034
1772571197526295300,3.97629541015625,0.0006108652451075613,0.0003054326225537807,0.0003054326225537807
1772571197544130800,3.994130859375,0,-0.0009162978967651725,0.00045814894838258624
1772571197561961700,4.011961669921875,0.0007635815418325365,-0.00045814894838258624,0.0010690141934901476
1772571197579804000,4.029803955078125,0.0010690141934901476,0.0006108652451075613,-0.0007635815418325365
1772571197597635300,4.04763525390625,-0.00045814894838258624,0,-0.00015271631127689034
1772571197615470800,4.065470947265625,-0.00045814894838258624,0.001679879380390048,0.00045814894838258624
1772571197633305600,4.0833056640625,-0.00045814894838258624,-0.00015271631127689034,-0.00015271631127689034
1772571197651141000,4.10114111328125,0.00045814894838258624,0.0007635815418325365,0.0009162978967651725
1772571197668975600,4.1189755859375,0.00045814894838258624,-0.0003054326225537807,-0.00045814894838258624
1772571197686811600,4.136811767578125,-0.00045814894838258624,-0.0003054326225537807,0.00045814894838258624
1772571197704646100,4.154646240234375,-0.00015271631127689034,0.0007635815418325365,-0.0006108652451075613
1772571197722482000,4.17248193359375,-0.00045814894838258624,0.00015271631127689034,-0.0003054326225537807
1772571197740316400,4.19031640625,-0.00045814894838258624,0.0003054326225537807,0.00045814894838258624
1772571197758152200,4.208152099609375,-0.00015271631127689034,-0.00045814894838258624,0
1772571197775986400,4.225986328125,0.0007635815418325365,0,-0.0010690141934901476
1772571197793822000,4.243822021484375,-0.0003054326225537807,0.0003054326225537807,-0.001527163083665073
1772571197811657200,4.2616572265625,0.0013744467869400978,-0.00015271631127689034,-0.00045814894838258624
1772571197829490400,4.279490478515625,0,0.0006108652451075613,0
1772571197847327200,4.2973271484375,0.00045814894838258624,-0.0010690141934901476,0.0007635815418325365
1772571197865155300,4.3151552734375,-0.0007635815418325365,0.00015271631127689034,-0.0006108652451075613
1772571197882997500,4.33299755859375,0.0003054326225537807,-0.0003054326225537807,-0.0006108652451075613
1772571197900833300,4.350833251953125,0.0012217304902151227,0.0009162978967651725,-0.0007635815418325365
1772571197918667500,4.36866748046875,-0.0003054326225537807,0.0012217304902151227,-0.0007635815418325365
1772571197936503300,4.38650341796875,0.0003054326225537807,-0.0007635815418325365,-0.0007635815418325365
1772571197954337800,4.404337890625,0.0006108652451075613,-0.002138028386980295,-0.0019853119738399982
1772571197972173300,4.42217333984375,0.00045814894838258624,-0.0009162978967651725,-0.0006108652451075613
1772571197990008000,4.440008056640625,0.0006108652451075613,-0.0007635815418325365,0.00015271631127689034
1772571198007840800,4.4578408203125,0.0003054326225537807,0.0019853119738399982,0.0013744467869400978
1772571198025681000,4.475680908203125,0.0003054326225537807,-0.00045814894838258624,0.00015271631127689034
1772571198043515600,4.493515625,-0.00015271631127689034,0.00045814894838258624,-0.0010690141934901476
1772571198061344500,4.511344482421875,0.00045814894838258624,0.00045814894838258624,-0.001832595793530345
1772571198079186700,4.529186767578125,0.0006108652451075613,0.0009162978967651725,0
1772571198097018000,4.54701806640625,0.00045814894838258624,-0.0006108652451075613,-0.0009162978967651725
1772571198114854100,4.564854248046875,0.001679879380390048,-0.0009162978967651725,-0.0007635815418325365
1772571198132688600,4.582688720703125,0.0010690141934901476,0.0007635815418325365,0.0009162978967651725
1772571198150524200,4.600524169921875,0.0006108652451075613,0,-0.00045814894838258624
1772571198168358700,4.618358642578125,-0.00045814894838258624,-0.0024434609804302454,0
1772571198186194700,4.636194580078125,-0.00045814894838258624,-0.0010690141934901476,0
1772571198204029400,4.654029541015625,-0.0012217304902151227,-0.00015271631127689034,0.00015271631127689034
1772571198221865200,4.671865234375,-0.0006108652451075613,-0.0009162978967651725,0.001679879380390048
1772571198248619800,4.698619873046875,-0.00015271631127689034,0.00045814894838258624,-0.0007635815418325365
1772571198266437400,4.716437255859375,-0.00045814894838258624,0.0003054326225537807,0.0009162978967651725
1772571198284287500,4.73428759765625,0.0006108652451075613,0.0007635815418325365,0.00015271631127689034
1772571198302123000,4.752123046875,0.0010690141934901476,0.0007635815418325365,0.00015271631127689034
1772571198319957200,4.769957275390625,-0.0003054326225537807,0.0012217304902151227,0.00045814894838258624
1772571198337792800,4.787792724609375,0.001527163083665073,-0.0003054326225537807,0.0003054326225537807
1772571198355628000,4.8056279296875,-0.0003054326225537807,-0.001527163083665073,-0.001527163083665073
1772571198373463300,4.82346337890625,0.0003054326225537807,0.00045814894838258624,0.00015271631127689034
1772571198391294700,4.841294677734375,0.00045814894838258624,0.0007635815418325365,-0.0006108652451075613
1772571198409136600,4.85913671875,0.0003054326225537807,0.001527163083665073,0.00015271631127689034
1772571198426968300,4.87696826171875,-0.00015271631127689034,-0.0007635815418325365,0.0007635815418325365
1772571198444803800,4.894803955078125,0,0.0012217304902151227,0.0025961773935705423
1772571198462638300,4.912638427734375,0.0006108652451075613,-0.001679879380390048,0.00015271631127689034
1772571198480473600,4.9304736328125,-0.0007635815418325365,0.0013744467869400978,0.001832595793530345
1772571198498308400,4.948308349609375,0,0.0012217304902151227,0.0019853119738399982
1772571198516143900,4.966143798828125,0,-0.0010690141934901476,-0.00045814894838258624
1772571198533978600,4.983978515625,0.00015271631127689034,0.001527163083665073,0.0006108652451075613
1772571198551814000,5.00181396484375,0.0009162978967651725,0.0032070425804704428,0.00015271631127689034
1772571198569649200,5.019649169921875,0.00045814894838258624,0,0
1772571198587484400,5.037484375,0,0.0012217304902151227,-0.0009162978967651725
1772571198605319400,5.0553193359375,0.0006108652451075613,-0.0003054326225537807,-0.00015271631127689034
1772571198623143200,5.07314306640625,-0.0003054326225537807,-0.0006108652451075613,-0.0032070425804704428
1772571198640989400,5.090989501953125,0.00015271631127689034,-0.0003054326225537807,-0.0012217304902151227
1772571198658825200,5.1088251953125,0.00015271631127689034,0.0009162978967651725,-0.0007635815418325365
1772571198676659200,5.1266591796875,-0.0006108652451075613,-0.0010690141934901476,0.0013744467869400978
1772571198694482400,5.144482421875,0.0003054326225537807,0,0.00045814894838258624
1772571198712329700,5.162329833984375,0.0006108652451075613,0.0013744467869400978,0.00045814894838258624
1772571198730152700,5.180152587890625,-0.0007635815418325365,0.001527163083665073,-0.0003054326225537807
1772571198748000000,5.198,-0.00015271631127689034,0.00045814894838258624,0
1772571198765825500,5.215825439453125,0.00045814894838258624,0.0007635815418325365,0.0003054326225537807
1772571198783670500,5.23367041015625,0.00045814894838258624,0.0009162978967651725,0.0010690141934901476
1772571198801505500,5.251505615234375,0.00015271631127689034,-0.0013744467869400978,0
1772571198819340800,5.2693408203125,-0.00015271631127689034,0.00045814894838258624,0.0006108652451075613
1772571198837175800,5.28717578125,0.0012217304902151227,-0.0013744467869400978,0.0006108652451075613
1772571198855011000,5.305010986328125,0.0003054326225537807,0.0013744467869400978,-0.00045814894838258624
1772571198872846600,5.3228466796875,-0.0003054326225537807,0.0010690141934901476,0
1772571198890681000,5.34068115234375,-0.00015271631127689034,-0.0006108652451075613,0.00045814894838258624
1772571198908516400,5.358516357421875,0,0.0019853119738399982,0.0006108652451075613
1772571198926351400,5.376351318359375,-0.0003054326225537807,-0.0003054326225537807,-0.0003054326225537807
1772571198944183300,5.394183349609375,-0.0012217304902151227,-0.0010690141934901476,-0.0003054326225537807
1772571198962021400,5.412021484375,-0.0007635815418325365,0.0003054326225537807,-0.0006108652451075613
1772571198979859500,5.429859375,-0.0007635815418325365,0.0010690141934901476,-0.00045814894838258624
1772571198997691400,5.44769140625,-0.0013744467869400978,0.0010690141934901476,0.00015271631127689034
1772571199015527000,5.46552685546875,0.0006108652451075613,-0.0013744467869400978,-0.0007635815418325365
1772571199033361400,5.483361328125,0.0003054326225537807,-0.0013744467869400978,0.0006108652451075613
1772571199051196700,5.50119677734375,-0.00045814894838258624,-0.0010690141934901476,0.00015271631127689034
1772571199069032000,5.519031982421875,-0.0007635815418325365,0.0009162978967651725,0.0007635815418325365
1772571199086867500,5.536867431640625,-0.00045814894838258624,0.00015271631127689034,-0.0010690141934901476
1772571199104702000,5.554701904296875,-0.0010690141934901476,0.0012217304902151227,-0.0010690141934901476
1772571199122537200,5.572537109375,-0.0006108652451075613,0.001679879380390048,-0.0006108652451075613
1772571199140372700,5.590372802734375,-0.0006108652451075613,0.0009162978967651725,-0.0003054326225537807
1772571199158207700,5.608207763671875,0.00015271631127689034,0.001527163083665073,-0.0007635815418325365
1772571199176042500,5.62604248046875,0.00045814894838258624,-0.0022907445672899485,0
1772571199193865000,5.643864990234375,0,0.0010690141934901476,0.0007635815418325365
1772571199211712800,5.661712646484375,-0.0013744467869400978,0,-0.0006108652451075613
1772571199229548000,5.679548095703125,-0.0007635815418325365,0.0006108652451075613,0.00015271631127689034
1772571199247382500,5.697382568359375,0.00015271631127689034,-0.001679879380390048,-0.0003054326225537807
1772571199265218300,5.71521826171875,-0.0007635815418325365,0.002138028386980295,0.0012217304902151227
1772571199283053000,5.733052978515625,-0.00045814894838258624,0.0007635815418325365,0.00045814894838258624
1772571199300888800,5.750888916015625,0.00015271631127689034,-0.0013744467869400978,0.00045814894838258624
1772571199318723000,5.76872314453125,-0.0006108652451075613,-0.0007635815418325365,0.0007635815418325365
1772571199336558600,5.78655859375,0.0003054326225537807,0.00045814894838258624,-0.00015271631127689034
1772571199354393600,5.8043935546875,-0.00045814894838258624,0.0012217304902151227,-0.00015271631127689034
1772571199372225800,5.822225830078125,0,-0.0006108652451075613,0.00045814894838258624
1772571199390063600,5.840063720703125,0,-0.0007635815418325365,0.00045814894838258624
1772571199407902200,5.857902099609375,-0.0006108652451075613,0.002138028386980295,0
1772571199425729300,5.875729248046875,-0.0007635815418325365,0,0.00015271631127689034
1772571199443574300,5.89357421875,-0.0006108652451075613,0.001679879380390048,-0.0003054326225537807
1772571199461401300,5.9114013671875,0.0009162978967651725,0.0012217304902151227,-0.0010690141934901476
1772571199479241500,5.929241455078125,0.00045814894838258624,0.0012217304902151227,-0.0003054326225537807
1772571199497074200,5.94707421875,0.0009162978967651725,-0.0019853119738399982,-0.0022907445672899485
1772571199514909200,5.9649091796875,0.0006108652451075613,0.0019853119738399982,-0.0006108652451075613
1772571199532744200,5.982744140625,-0.0007635815418325365,-0.00015271631127689034,-0.002138028386980295
1772571199550579200,6.0005791015625,-0.0006108652451075613,0.00045814894838258624,-0.0006108652451075613
1772571199568414500,6.01841455078125,-0.00015271631127689034,0.00045814894838258624,0
1772571199586250200,6.036250244140625,0.0006108652451075613,-0.001832595793530345,0.00015271631127689034
1772571199604084700,6.054084716796875,-0.0006108652451075613,0.0012217304902151227,0.001527163083665073
1772571199621920000,6.071919921875,0.0006108652451075613,-0.00015271631127689034,0.0003054326225537807
1772571199639754800,6.089754638671875,0.00045814894838258624,0.0009162978967651725,0.0007635815418325365
1772571199657590800,6.1075908203125,-0.00015271631127689034,-0.00045814894838258624,-0.0009162978967651725
1772571199675425000,6.125425048828125,0.00015271631127689034,-0.0003054326225537807,0.0006108652451075613
1772571199693260300,6.14326025390625,0.00015271631127689034,-0.0003054326225537807,0
1772571199711095300,6.16109521484375,0.0003054326225537807,-0.0012217304902151227,0.0013744467869400978
1772571199728930800,6.178930908203125,-0.0003054326225537807,0.001679879380390048,-0.0013744467869400978
1772571199746765300,6.196765380859375,-0.0003054326225537807,0.0006108652451075613,0.00015271631127689034
1772571199764600600,6.2146005859375,0.0006108652451075613,-0.001832595793530345,0.0010690141934901476
1772571199782435800,6.232435791015625,0,-0.001527163083665073,0.0009162978967651725
1772571199800270800,6.250270751953125,-0.0006108652451075613,-0.0009162978967651725,0.0006108652451075613
1772571199818105600,6.268105712890625,0.0006108652451075613,-0.0009162978967651725,0.0003054326225537807
1772571199835940600,6.285940673828125,-0.0006108652451075613,-0.0007635815418325365,-0.0003054326225537807
1772571199853776100,6.303776123046875,0.00045814894838258624,-0.0010690141934901476,0
1772571199871611100,6.321611083984375,0.0007635815418325365,-0.00045814894838258624,0.0009162978967651725
1772571199889443000,6.339443115234375,-0.0003054326225537807,-0.0013744467869400978,-0.0007635815418325365
1772571199907284200,6.3572841796875,-0.0006108652451075613,-0.00015271631127689034,-0.001679879380390048
1772571199925117400,6.375117431640625,0.00045814894838258624,-0.0003054326225537807,0.00045814894838258624
1772571199942938400,6.3929384765625,-0.00045814894838258624,-0.0019853119738399982,0.0010690141934901476
1772571199960786000,6.410785888671875,0.0006108652451075613,-0.0013744467869400978,0.0013744467869400978
1772571199978618400,6.428618408203125,-0.0006108652451075613,0.0006108652451075613,0.0012217304902151227
1772571199996459300,6.446459228515625,0.0007635815418325365,-0.001832595793530345,-0.0003054326225537807
1772571200014291700,6.464291748046875,0.00045814894838258624,-0.00045814894838258624,-0.001832595793530345
1772571200032126200,6.482126220703125,-0.00015271631127689034,0.0006108652451075613,0
1772571200049961500,6.49996142578125,-0.0003054326225537807,0.00015271631127689034,-0.0009162978967651725
1772571200067794000,6.5177939453125,0.00015271631127689034,-0.0012217304902151227,-0.00045814894838258624
1772571200085632500,6.535632568359375,0.00045814894838258624,0.0013744467869400978,0.0003054326225537807
1772571200103467000,6.553467041015625,-0.0003054326225537807,0,-0.00015271631127689034
1772571200121302000,6.571302001953125,0.00045814894838258624,0.0027488935738801956,-0.0006108652451075613
1772571200139137300,6.58913720703125,-0.001527163083665073,-0.0003054326225537807,-0.0006108652451075613
1772571200156972500,6.60697265625,0.00015271631127689034,-0.0006108652451075613,0
1772571200174807300,6.624807373046875,-0.001527163083665073,-0.0010690141934901476,0.0003054326225537807
1772571200192642800,6.642642822265625,0.00015271631127689034,-0.001527163083665073,-0.0006108652451075613
1772571200210477600,6.6604775390625,-0.0003054326225537807,0.0012217304902151227,0.00045814894838258624
1772571200228312800,6.678312744140625,0.0006108652451075613,-0.0010690141934901476,0.00045814894838258624
1772571200246147300,6.696147216796875,-0.0007635815418325365,0.00015271631127689034,0.0003054326225537807
1772571200263982800,6.71398291015625,-0.00045814894838258624,0.0024434609804302454,0.001679879380390048
1772571200281805300,6.731805419921875,-0.0006108652451075613,-0.001832595793530345,-0.0010690141934901476
1772571200299652900,6.74965283203125,0.00045814894838258624,0.001527163083665073,0.0010690141934901476
1772571200317487400,6.7674873046875,0.0003054326225537807,-0.0010690141934901476,-0.0006108652451075613
1772571200335322600,6.785322509765625,0.0007635815418325365,-0.0010690141934901476,-0.0006108652451075613
1772571200353158000,6.803157958984375,0.00045814894838258624,0.0007635815418325365,-0.0010690141934901476
1772571200370993200,6.8209931640625,-0.0007635815418325365,0,0.001527163083665073
1772571200388828000,6.838827880859375,0.0013744467869400978,-0.001679879380390048,0
1772571200406663700,6.85666357421875,-0.0006108652451075613,0.0003054326225537807,0
1772571200424498200,6.874498291015625,-0.00015271631127689034,-0.0022907445672899485,-0.00015271631127689034
1772571200442333400,6.89233349609375,0.0003054326225537807,0.001527163083665073,0
1772571200460168200,6.910168212890625,-0.0003054326225537807,0.0009162978967651725,0.00045814894838258624
1772571200478003200,6.928003173828125,-0.00045814894838258624,-0.0009162978967651725,-0.0006108652451075613
1772571200495838200,6.945838134765625,-0.0003054326225537807,-0.0007635815418325365,-0.0006108652451075613
1772571200513659600,6.96365966796875,-0.0003054326225537807,-0.00015271631127689034,0.0009162978967651725
1772571200531498000,6.981498046875,-0.0006108652451075613,-0.00015271631127689034,0
1772571200549348900,6.999348876953125,0,-0.00015271631127689034,0.0006108652451075613
1772571200567174400,7.01717431640625,0.00015271631127689034,-0.001679879380390048,0.0007635815418325365
1772571200585014300,7.03501416015625,0.00045814894838258624,0,0.0012217304902151227
1772571200602848500,7.0528486328125,0.00015271631127689034,0.002138028386980295,0.0003054326225537807
1772571200620684300,7.070684326171875,0.00015271631127689034,-0.0013744467869400978,-0.0013744467869400978
1772571200638519000,7.08851904296875,-0.00015271631127689034,-0.00045814894838258624,-0.0013744467869400978
1772571200656354800,7.106354736328125,-0.0006108652451075613,-0.0003054326225537807,0.0010690141934901476
1772571200674189000,7.12418896484375,0.0007635815418325365,0.0007635815418325365,0.0013744467869400978
1772571200692024300,7.1420244140625,0.00015271631127689034,0.0003054326225537807,0.0003054326225537807
1772571200709859600,7.159859619140625,-0.0003054326225537807,0.0006108652451075613,0.0003054326225537807
1772571200727691000,7.17769091796875,0,0.001527163083665073,0.0006108652451075613
1772571200745532700,7.19553271484375,-0.0006108652451075613,0.00045814894838258624,0
1772571200763363300,7.21336328125,0.0003054326225537807,-0.0006108652451075613,0.0006108652451075613
1772571200781200600,7.23120068359375,0.00015271631127689034,0.0006108652451075613,-0.00045814894838258624
1772571200799035000,7.249034912109375,-0.0009162978967651725,-0.0006108652451075613,0.0006108652451075613
1772571200816869000,7.266869140625,0.00045814894838258624,0.0009162978967651725,0.0003054326225537807
1772571200834704400,7.284704345703125,0.0003054326225537807,0.0010690141934901476,0
1772571200852539600,7.30253955078125,-0.0003054326225537807,0.0012217304902151227,0.0012217304902151227
1772571200870375000,7.320375,-0.00045814894838258624,-0.0007635815418325365,0
1772571200888210000,7.3382099609375,-0.0007635815418325365,0.0007635815418325365,-0.0012217304902151227
1772571200906044700,7.356044677734375,0.0003054326225537807,0.0003054326225537807,0.0003054326225537807
1772571200923880000,7.3738798828125,0.00045814894838258624,-0.0012217304902151227,-0.001679879380390048
1772571200941715500,7.391715576171875,-0.0006108652451075613,0.0003054326225537807,-0.00015271631127689034
1772571200959549700,7.4095498046875,-0.00015271631127689034,-0.0006108652451075613,0.0009162978967651725
1772571200977371400,7.427371337890625,0.00045814894838258624,-0.0019853119738399982,-0.001679879380390048
1772571200995206700,7.44520654296875,-0.0007635815418325365,0.0010690141934901476,-0.0012217304902151227
1772571201013055500,7.463055419921875,-0.0007635815418325365,0,0.0009162978967651725
1772571201030890000,7.480889892578125,-0.00045814894838258624,0.0007635815418325365,0.0007635815418325365
1772571201048725500,7.4987255859375,-0.0003054326225537807,-0.0007635815418325365,0.0006108652451075613
1772571201066560300,7.516560302734375,0.00015271631127689034,0.0006108652451075613,0.0012217304902151227
1772571201084395800,7.534395751953125,0,-0.0006108652451075613,0.0003054326225537807
1772571201102230300,7.552230224609375,-0.00045814894838258624,-0.001832595793530345,0.00045814894838258624
1772571201120065000,7.57006494140625,0.0006108652451075613,-0.001832595793530345,-0.0007635815418325365
1772571201137900500,7.587900634765625,-0.00015271631127689034,-0.0003054326225537807,0.00045814894838258624
1772571201155736000,7.605736083984375,0.0003054326225537807,-0.0010690141934901476,0
1772571201173570300,7.6235703125,0.0003054326225537807,0.0009162978967651725,0
1772571201191402500,7.641402587890625,0.0006108652451075613,-0.0009162978967651725,0.0003054326225537807
1772571201209244000,7.659243896484375,0.0009162978967651725,-0.001527163083665073,0.001527163083665073
1772571201227073300,7.6770732421875,-0.0006108652451075613,-0.0013744467869400978,0.00045814894838258624
1772571201244914000,7.694913818359375,-0.0003054326225537807,0.0007635815418325365,0.00045814894838258624
1772571201262744600,7.71274462890625,-0.0009162978967651725,-0.001679879380390048,-0.001527163083665073
1772571201280582100,7.73058203125,0.0003054326225537807,0,-0.0007635815418325365
1772571201298415900,7.748415771484375,0,0.00015271631127689034,-0.0013744467869400978
1772571201316250400,7.76625048828125,0.0006108652451075613,-0.002138028386980295,-0.0012217304902151227
1772571201334086000,7.7840859375,-0.0013744467869400978,-0.00015271631127689034,0.00015271631127689034
1772571201351921000,7.8019208984375,0.00015271631127689034,0.0010690141934901476,0.0019853119738399982
1772571201369756200,7.819756103515625,0.00045814894838258624,-0.0003054326225537807,-0.00045814894838258624
1772571201387591000,7.8375908203125,0.00015271631127689034,0.0006108652451075613,0
1772571201405426400,7.855426513671875,0,0.003054326167330146,-0.00015271631127689034
1772571201423264000,7.873263916015625,0.0009162978967651725,0.0003054326225537807,-0.00015271631127689034
1772571201441096400,7.891096435546875,0.0003054326225537807,0.0010690141934901476,0.0010690141934901476
1772571201458931000,7.908930908203125,-0.0003054326225537807,-0.0010690141934901476,-0.00015271631127689034
1772571201476766500,7.926766357421875,0.0009162978967651725,0.001832595793530345,0.0013744467869400978
1772571201494601200,7.944601318359375,-0.0006108652451075613,-0.0022907445672899485,0.0009162978967651725
1772571201512437000,7.96243701171875,-0.001679879380390048,0.0012217304902151227,0.0003054326225537807
1772571201530271200,7.980271240234375,0.0003054326225537807,-0.0010690141934901476,-0.00045814894838258624
1772571201548106800,7.998106689453125,-0.0006108652451075613,0.0006108652451075613,0.0009162978967651725
1772571201565941500,8.01594140625,-0.001679879380390048,0.0010690141934901476,-0.00015271631127689034
1772571201583776800,8.03377685546875,0.0007635815418325365,0.0022907445672899485,-0.00015271631127689034
1772571201601611300,8.051611328125,-0.00045814894838258624,0.0027488935738801956,-0.0006108652451075613
1772571201619446800,8.06944677734375,-0.00015271631127689034,-0.0024434609804302454,-0.001527163083665073
1772571201637281500,8.087281494140624,0.00015271631127689034,0.0019853119738399982,0.00015271631127689034
1772571201655117300,8.105117431640625,-0.0003054326225537807,0.0003054326225537807,0
1772571201672951300,8.122951416015624,0,0,-0.0013744467869400978
1772571201690787000,8.140787109375,0,0.00045814894838258624,-0.00015271631127689034
1772571201708621800,8.158621826171874,-0.0006108652451075613,0.0010690141934901476,0.00045814894838258624
1772571201726455000,8.176455078125,0,-0.00015271631127689034,-0.00015271631127689034
1772571201744293600,8.194293701171874,0.0007635815418325365,-0.00015271631127689034,0.0003054326225537807
1772571201762126600,8.212126708984375,0.0003054326225537807,0.00015271631127689034,0.00015271631127689034
1772571201779961900,8.2299619140625,-0.0007635815418325365,0.0019853119738399982,0.00015271631127689034
1772571201797796900,8.247796875,-0.0010690141934901476,-0.00045814894838258624,-0.0009162978967651725
1772571201815631600,8.265631591796875,0.00045814894838258624,-0.0013744467869400978,-0.0013744467869400978
1772571201833467000,8.283466796875,-0.0006108652451075613,-0.0013744467869400978,-0.0007635815418325365
1772571201851302000,8.301302001953125,-0.00045814894838258624,0.0013744467869400978,-0.001679879380390048
1772571201869138400,8.319138427734375,-0.00045814894838258624,0,-0.0012217304902151227
1772571201886972000,8.336971923828125,-0.0003054326225537807,-0.00045814894838258624,0
1772571201904807000,8.354806884765624,-0.0003054326225537807,0.0007635815418325365,0.0007635815418325365
1772571201922642000,8.372641845703125,0,0.0013744467869400978,0.0007635815418325365
1772571201940477400,8.3904775390625,-0.0013744467869400978,-0.002138028386980295,0.0003054326225537807
1772571201958312000,8.40831201171875,0.00045814894838258624,-0.00015271631127689034,0.001679879380390048
1772571201976147500,8.4261474609375,0.00015271631127689034,0.0007635815418325365,-0.0010690141934901476
1772571201993982200,8.443982177734375,-0.00045814894838258624,0.00015271631127689034,-0.001527163083665073
1772571202011817500,8.4618173828125,-0.00045814894838258624,0.00045814894838258624,-0.0019853119738399982
1772571202029652200,8.47965234375,0.0003054326225537807,-0.0013744467869400978,0.00045814894838258624
1772571202047487500,8.497487548828126,0.0010690141934901476,-0.0025961773935705423,0
1772571202065322200,8.515322265625,-0.00015271631127689034,0.0007635815418325365,0.00045814894838258624
1772571202083157500,8.533157470703125,-0.0007635815418325365,-0.0006108652451075613,-0.0006108652451075613
1772571202100991700,8.55099169921875,-0.0010690141934901476,0.0007635815418325365,-0.00015271631127689034
1772571202118827300,8.5688271484375,0,0.001527163083665073,0.0006108652451075613
1772571202136662300,8.586662353515624,0.00015271631127689034,-0.0006108652451075613,-0.00045814894838258624
1772571202154494700,8.60449462890625,-0.0006108652451075613,0.0013744467869400978,-0.0012217304902151227
1772571202172334800,8.6223349609375,0.00045814894838258624,-0.0007635815418325365,0.00015271631127689034
1772571202190167600,8.64016748046875,0.00045814894838258624,0.0003054326225537807,0.0003054326225537807
1772571202208002600,8.65800244140625,0.0013744467869400978,0.00015271631127689034,-0.0003054326225537807
1772571202225837800,8.675837890625,-0.0003054326225537807,0.0006108652451075613,0.00045814894838258624
1772571202243672300,8.69367236328125,0.0003054326225537807,0.0012217304902151227,0.0010690141934901476
1772571202261507600,8.711507568359375,-0.0003054326225537807,-0.0013744467869400978,-0.0012217304902151227
1772571202279342300,8.72934228515625,0,0.00045814894838258624,-0.0007635815418325365
1772571202297174500,8.747174560546876,0.00045814894838258624,0.001527163083665073,0.00045814894838258624
1772571202315012000,8.76501220703125,-0.001527163083665073,0.0009162978967651725,0.00045814894838258624
1772571202332842800,8.7828427734375,0.0006108652451075613,-0.0010690141934901476,-0.0012217304902151227
1772571202350670000,8.800670166015625,-0.0003054326225537807,-0.001832595793530345,-0.0024434609804302454
