time,seconds_elapsed,z,y,x
1772536735051949800,0.07194970703125,0.19376900643110273,0.4747770281150937,-0.2168365052204579
1772536735061998800,0.081998779296875,0.12592588878273964,0.5357867926120757,-0.38606680779848246
1772536735072046800,0.092046875,0.20234160446524618,0.5816176926776766,-0.5399772300392389
1772536735082095900,0.102095947265625,0.24709786103665826,0.6259568928807974,-0.6028828547528013
1772536735092144600,0.11214453125,0.12571604542434214,0.6113014678016304,-0.5928549068111926
1772536735102194000,0.12219384765625,-0.07183598667681217,0.5484980978861451,-0.5470292309099808
1772536735112243000,0.132242919921875,-0.2630465407967567,0.45399961302429437,-0.5872882491273805
1772536735122291000,0.142291015625,-0.18721125535070895,0.45116555864214897,-0.6653712039023637
1772536735132339700,0.152339599609375,-0.07640285620093346,0.5319441457092762,-0.6592997019689529
1772536735142388700,0.162388671875,-0.2240869878053665,0.5356584900572896,-0.6308996830452234
1772536735152438000,0.17243798828125,-0.4186404226124286,0.5928326219141483,-0.6325826676961034
1772536735162486800,0.18248681640625,-0.36279461674988267,0.6836135475575924,-0.6868986336428672
1772536735172535000,0.19253515625,-0.2334592117846012,0.6949620400458574,-0.7200500848773866
1772536735182583800,0.202583740234375,-0.1453600725710392,0.6851049551591277,-0.7125466504447162
1772536735192632800,0.2126328125,-0.01830605654120445,0.6515320636421441,-0.7056399397961794
1772536735202681900,0.222681884765625,0.09997837757766247,0.619568068626523,-0.684096216508001
1772536735212729900,0.232729736328125,0.21901859849989413,0.5394184271126985,-0.6479829928584396
1772536735222779000,0.24277880859375,0.3454658808082342,0.37106238661855456,-0.5741887847859413
1772536735232828000,0.252827880859375,0.5273316834777594,0.23442688777297735,-0.5080195916991681
1772536735242876700,0.262876708984375,0.7535317179143428,0.08676789060980081,-0.44654118677712973
1772536735252926000,0.272926025390625,0.8730687824428081,-0.0635521424561739,-0.3425981433521956
1772536735262973700,0.2829736328125,0.8964420592457055,-0.21488047578185795,-0.273420215169806
1772536735273023000,0.29302294921875,0.9137421536147594,-0.24702830293178557,-0.17642331935465336
1772536735283071700,0.30307177734375,0.7246271104693413,-0.3964844126448035,0.03236315953419543
1772536735293120800,0.313120849609375,0.5949170269727706,-0.593293809685111,0.0045380361552815884
1772536735303169800,0.323169677734375,0.7261842767834663,-0.6619567192837595,-0.00947986733848229
1772536735313217800,0.3332177734375,0.7928443221271038,-0.6914449718356133,-0.05202601011237129
1772536735323266800,0.343266845703125,0.7214250995576381,-0.723881552799046,-0.09321807139618321
1772536735333315800,0.35331591796875,0.6324503465533257,-0.7674059294879436,-0.10612578515834174
1772536735343364600,0.363364501953125,0.5929027645409107,-0.8156172949492931,-0.153907499631308
1772536735353414000,0.373413818359375,0.5458206953704356,-0.8860548130050301,-0.1646672507124953
1772536735363461600,0.383461669921875,0.4407061239480972,-0.9526444234609603,-0.1427542100547347
1772536735373511000,0.393510986328125,0.43595513002872466,-1.037868299499154,-0.11375342135941609
1772536735383560000,0.403559814453125,0.42819852455258367,-1.1087173209652303,-0.13727620790190995
1772536735393608700,0.413608642578125,0.3667629358589649,-1.143599541515112,-0.12168026883592828
1772536735403656700,0.42365673828125,0.34918870072364805,-1.2278890593126415,-0.13405836010025812
1772536735413705700,0.433705810546875,0.34623043543994425,-1.1658537511602043,-0.1734316267253831
1772536735423755000,0.443755126953125,0.3939034562408924,-1.0779238310337067,-0.2334055636349134
1772536735433804300,0.45380419921875,0.4176888209760189,-1.019662488462031,-0.21094865275826305
1772536735443853300,0.463853271484375,0.3584697392880916,-0.9963394805416464,-0.16696354495612903
1772536735453901300,0.4739013671875,0.4163058421850204,-1.0352551943913102,-0.09184154061228036
1772536735463950300,0.483950439453125,0.5166717577755451,-1.0350880211308597,-0.011683405264746398
1772536735473999400,0.493999267578125,0.440935841050744,-0.9993331093996762,0.07041061178250238
1772536735484048400,0.50404833984375,0.26915362550020216,-1.0116975009322167,0.17939417012529446
1772536735494097200,0.51409716796875,0.14138824633061886,-0.986530326449871,0.2546490070685744
1772536735504145400,0.5241455078125,0.08898235178887844,-0.8546586810052395,0.2619624170881696
1772536735514194200,0.534194091796875,0.1209603753298521,-0.6256701848939061,0.1661214315761812
1772536735524243500,0.544243408203125,0.03574994329512119,-0.5094546660035848,0.21192677707541732
1772536735534292200,0.554292236328125,-0.10255261197984218,-0.3535103633150458,0.28514210754772645
1772536735544340500,0.564340576171875,-0.18117548231780528,-0.22422785758078098,0.2578368067918345
1772536735554389200,0.57438916015625,-0.17470131786763668,-0.2117559140205383,0.3263168341042474
1772536735564438300,0.584438232421875,-0.21589900517463684,-0.25617782407104966,0.4447482754783705
1772536735574487600,0.594487548828125,-0.4156067540049553,-0.2751391296505928,0.632130247753486
1772536735584536300,0.604536376953125,-0.7053238595843315,-0.31440497211217877,0.8584539816349744
1772536735594584300,0.614584228515625,-0.8123977483808994,-0.3267249399811029,1.0250045801423489
1772536735604633300,0.62463330078125,-0.7546271119356155,-0.39199879166334867,1.150692130124569
1772536735614682400,0.634682373046875,-1.0307003075659273,-0.2838181106686592,1.154828864603117
1772536735624731400,0.6447314453125,-1.4162111985147,-0.08173106548637152,0.882216842277348
1772536735634780400,0.654780517578125,-1.7469985656291245,0.23846827211827037,0.7497634514220058
1772536735644828400,0.664828369140625,-2.1058499977111813,0.4875888711541891,0.7183095248203725
1772536735654877400,0.67487744140625,-2.2491437854021785,0.6078966277942061,0.39129060686137523
1772536735664926200,0.68492626953125,-1.9590052395403383,0.9497291205361484,0.21504125583413988
1772536735674975500,0.6949755859375,-1.7445429891705513,1.348720255304873,0.18531769668906925
1772536735685023200,0.705023193359375,-1.5759423262655734,1.4820932452231645,-0.031227680097706614
1772536735695072500,0.715072509765625,-1.0813432840883732,1.6353604376569388,-0.17145068204123526
1772536735705121300,0.725121337890625,-0.5212310285151005,1.7638024009138344,-0.14378003683798013
1772536735715170300,0.73517041015625,-0.1757458584845066,1.7565177968636154,-0.014628135213442146
1772536735725219300,0.74521923828125,-0.16629297048449515,1.5590063890337944,0.1992592744104564
1772536735735267300,0.755267333984375,-0.2401122399330139,1.2047802786648272,0.3405980555761605
1772536735745316400,0.76531640625,-0.2712391996026039,1.001002503916621,0.6179369602933525
1772536735755365400,0.775365478515625,-0.23238544507324693,0.8863666554331779,0.7879520200408995
1772536735765414100,0.7854140625,0.052481297865509986,0.8615814660057425,0.8001184778485446
1772536735775463400,0.79546337890625,0.1790185965448618,0.8760486750364304,0.676630702932924
1772536735785511200,0.80551123046875,0.025837036567926405,0.9055439418509602,0.6484510487616062
1772536735795560400,0.815560546875,-0.06824819131791592,0.9523927867874502,0.5295834079273045
1772536735805609200,0.825609130859375,0.07580138317644596,1.0059370377093553,0.3538714517123997
1772536735815658200,0.835658203125,0.08858896855711937,1.0290221452206372,0.18452015310321002
1772536735825706200,0.845706298828125,-0.09678221188485622,0.9991288189992308,0.0560424974784255
1772536735835755300,0.85575537109375,-0.32045360462665556,0.9208417564868926,0.02891925702486187
1772536735845804300,0.86580419921875,-0.36053894677758214,0.8234349829629063,-0.050583245691843325
1772536735855853300,0.875853271484375,-0.38222646245062347,0.7700763177409767,-0.05788746775798499
1772536735865902300,0.88590234375,-0.35652971113622184,0.7084013673335313,-0.09687354343011975
1772536735875950300,0.895950439453125,-0.31225977677702904,0.6531140721365809,-0.021806137084029613
1772536735885999400,0.905999267578125,-0.23312720335125922,0.6494698704153299,-0.006358885773736983
1772536735896048400,0.91604833984375,-0.1502870075792074,0.6497837586700916,0.012964384985994547
1772536735906097400,0.926097412109375,0.02358604277074337,0.7029641447156667,0.022434333718661218
1772536735916145400,0.9361455078125,0.2634673965573311,0.7684130607038736,0.061700468441192056
1772536735926194400,0.9461943359375,0.3913222075760364,0.7558063848480582,0.09211372688347473
1772536735936243200,0.9562431640625,0.3924263694256544,0.70496291731745,0.0560465525990352
1772536735946292500,0.96629248046875,0.4378969117462635,0.6336030237197876,0.0489760114246048
1772536735956341200,0.97634130859375,0.4666571422845125,0.5075038241967559,0.11750807945150882
1772536735966389500,0.986389404296875,0.4684469483107328,0.3707143038332462,0.17931757949143648
1772536735976438300,0.996438232421875,0.49381461380124086,0.23117314667403696,0.244909173619654
1772536735986487300,1.0064873046875,0.5473404522836208,0.11969985387474298,0.27696495683826505
1772536735996536300,1.016536376953125,0.590574613854289,0.014184592697024344,0.3228193839099258
1772536736006585300,1.02658544921875,0.5678361278235912,-0.08417670507282018,0.38711671871021386
1772536736016633300,1.03663330078125,0.5715408275604248,-0.18749357942342756,0.42886878849696364
1772536736026682400,1.046682373046875,0.5930184998750686,-0.23369360506236553,0.4709480078788474
1772536736036731100,1.056731201171875,0.531176083946228,-0.2515390583544969,0.48284657199792563
1772536736046780400,1.066780517578125,0.49652328823804853,-0.2920388265252113,0.4290418800415471
1772536736056828200,1.076828125,0.5892120933294296,-0.3046533934265375,0.4016537781067192
1772536736066877400,1.08687744140625,0.6250690041303635,-0.3029500966399908,0.3648485901376232
1772536736076926200,1.09692626953125,0.5866571481496096,-0.34973902808278795,0.362466188513115
1772536736086975200,1.106975341796875,0.5612111567258834,-0.42774931948035955,0.37125487698335197
1772536736097024500,1.1170244140625,0.5362298602044582,-0.4435243962392211,0.42990057923011477
1772536736107072300,1.127072265625,0.4489636646836996,-0.4190788140296936,0.4479411897681653
1772536736117121300,1.137121337890625,0.4605740229785442,-0.4096326480314135,0.44406836692281065
1772536736127170300,1.14717041015625,0.47312896864712234,-0.3910924904733896,0.4409760999958962
1772536736137219300,1.15721923828125,0.4459183056384325,-0.39195027634650464,0.45219110229760406
1772536736147267300,1.167267333984375,0.3916992241948843,-0.41254035217165946,0.49744091453962025
1772536736157316400,1.17731640625,0.2544540690183639,-0.427494760197401,0.549902703987062
1772536736167365400,1.187365478515625,0.05194646033644676,-0.4871124858140945,0.5784621147235856
1772536736177414400,1.197414306640625,-0.11273089164495467,-0.4729772852167487,0.5995574001245201
1772536736187463200,1.207463134765625,-0.33043256232738494,-0.4870867668509483,0.5622678627045825
1772536736197511400,1.217511474609375,-0.4316390203952789,-0.4828688568949699,0.49881735399197785
1772536736207560200,1.227560302734375,-0.511280127865076,-0.42291269310414786,0.3875671658914536
1772536736217609500,1.237609375,-0.6226110895842314,-0.3932417774617672,0.28161957771107554
1772536736227658200,1.247658203125,-0.6004594635307788,-0.3492404309108853,0.24804957227092234
1772536736237707300,1.257707275390625,-0.6423784508496523,-0.32001521320939064,0.19172464112192392
1772536736247755300,1.26775537109375,-0.6566553980052471,-0.28348960936665535,0.1673447262934409
1772536736257804300,1.27780419921875,-0.5948971532285213,-0.25725159078240395,0.1695148186078295
1772536736267853300,1.287853271484375,-0.44211482170224187,-0.35209231321066614,0.2573573527118191
1772536736277902300,1.29790234375,-0.4412690185278654,-0.5377300356343389,0.48767443054579196
1772536736287950300,1.307950439453125,-0.62804071341753,-0.6718447838306426,0.6131801942203193
1772536736297999400,1.317999267578125,-0.9120148914307356,-0.6718640730530023,0.603119111194089
1772536736308048100,1.328048095703125,-1.1421972735017538,-0.5748834159865975,0.48103557705320416
1772536736318097400,1.338097412109375,-1.1225327880889178,-0.3944461848154664,0.1935143375502899
1772536736328146200,1.348146240234375,-0.9304951354950666,-0.13988690185695885,-0.12681492831064387
1772536736338194400,1.3581943359375,-0.8921820637136697,0.14441548519730568,-0.3870538460744545
1772536736348243200,1.3682431640625,-0.8409072190284729,0.4355322284415364,-0.6613456747133284
1772536736358292200,1.378292236328125,-0.6734726772934198,0.6162111594140529,-0.7570025358300656
1772536736368341500,1.388341552734375,-0.5131751478314399,0.6708268389597535,-0.7559282576620578
1772536736378389200,1.39838916015625,-0.39285190136134623,0.6649219988301396,-0.6942630979962646
1772536736388438300,1.408438232421875,-0.26225685172379015,0.6256108559221029,-0.5929749529942869
1772536736398487300,1.4184873046875,-0.13142214811146258,0.5832645831018686,-0.5091019801083951
1772536736408536300,1.428536376953125,-0.04347556911110878,0.5669307034164667,-0.4477560424596071
1772536736418585300,1.43858544921875,-0.01224631811082363,0.5446870151653885,-0.39878834220562126
1772536736428633000,1.448633056640625,0.028061726880073547,0.5766489643543958,-0.4302145405501127
1772536736438682600,1.4586826171875,0.14701426951885221,0.6461021475479006,-0.49066298136990516
1772536736448731600,1.468731689453125,0.22000234884023664,0.6684516342610121,-0.5605380797699093
1772536736458780400,1.478780517578125,0.2343915241986513,0.6884218246221542,-0.6934155412562191
1772536736468828700,1.48882861328125,0.2365571777999401,0.7018252038136125,-0.7598683005247264
1772536736478877400,1.49887744140625,0.25723814677894113,0.6579626812115311,-0.795770511772111
1772536736488926700,1.5089267578125,0.23400106357634065,0.6085238197818398,-0.8347259731102734
1772536736498975500,1.5189755859375,0.16814532035291194,0.5815618708372116,-0.8456292060490697
1772536736509024500,1.5290244140625,0.1226899756014347,0.5116311332598328,-0.8558592889666556
1772536736519072500,1.539072509765625,0.033144729232788085,0.4664905535459518,-0.8963814881648868
1772536736529121500,1.54912158203125,-0.046156771019101143,0.47077889838963743,-0.9970923447355627
1772536736539170600,1.559170654296875,-0.02523030284643173,0.5009031107574701,-1.1406276130322366
1772536736549219600,1.569219482421875,-0.046212300598621366,0.4994590494289994,-1.2516662407413124
1772536736559267600,1.579267578125,-0.04979015908539295,0.5506275111302733,-1.2744193398192525
1772536736569316600,1.589316650390625,-0.14194061951637268,0.4708920033752918,-1.3315621997550129
1772536736579365400,1.599365478515625,-0.12635668141543865,0.37507571391314265,-1.3507802565746008
1772536736589414700,1.60941455078125,-0.17949907353818415,0.34748686524182554,-1.3443601603992283
1772536736599463400,1.61946337890625,-0.29525837309360503,0.27584289400577544,-1.322120271540433
1772536736609511700,1.62951171875,-0.25137422318160535,0.1832379678055644,-1.2908724619701504
1772536736619560400,1.639560546875,-0.09701602064073085,0.10057312860041856,-1.2361429467864333
1772536736629609500,1.649609375,0.013289689683914184,-0.02910626749694347,-1.1719319020301102
1772536736639658800,1.65965869140625,0.04540799847841263,-0.17137831092476843,-1.1272168542519212
1772536736649707500,1.66970751953125,0.11195523109734058,-0.29389059187173844,-1.0579511564545332
1772536736659755500,1.679755615234375,0.14389000001847743,-0.3824365980699658,-1.019149643569067
1772536736669804500,1.689804443359375,0.16329671127796172,-0.48198126040548084,-0.9984909594871103
1772536736679853600,1.699853515625,0.30831893019676204,-0.5168582202583551,-0.9889886063221841
1772536736689902600,1.709902587890625,0.4805506430804729,-0.513967759513855,-0.9662910368237644
1772536736699950600,1.71995068359375,0.5163578695207834,-0.5411006811112166,-0.9459451450180262
1772536736709999600,1.72999951171875,0.5323422051161527,-0.6231389128506183,-0.9127113492622971
1772536736720048600,1.740048583984375,0.5812053124845028,-0.671318129608035,-0.8122625046286731
1772536736730097400,1.750097412109375,0.563289716565609,-0.6697320294603705,-0.7202736645001918
1772536736740146700,1.760146728515625,0.5147656318932772,-0.6422536554262042,-0.6480879876028746
1772536736750194400,1.7701943359375,0.5260287841856479,-0.6007867957890033,-0.6007634879786521
1772536736760243700,1.78024365234375,0.5588333216786384,-0.5372662175148725,-0.5105962372541427
1772536736770292500,1.79029248046875,0.49956455563008784,-0.495552689640224,-0.46339196647610514
1772536736780341500,1.800341552734375,0.47451370100378987,-0.46770928168594833,-0.4266242609731853
1772536736790389500,1.810389404296875,0.42782852219641204,-0.47809623566567894,-0.4356570603976026
1772536736800438500,1.8204384765625,0.3411310664743185,-0.5300985178425908,-0.40466161815319207
1772536736810487600,1.830487548828125,0.25487317121326925,-0.5531821640491486,-0.39269619934298094
1772536736820536600,1.84053662109375,0.2494108141541481,-0.5922992456898093,-0.4336493007717654
1772536736830585600,1.850585693359375,0.186498723167181,-0.587829406799376,-0.43183450643476096
1772536736840633600,1.860633544921875,0.1727437540590763,-0.5543181823417545,-0.5094625570490956
1772536736850682600,1.8706826171875,0.12590776860415934,-0.47913522332459685,-0.5186572690369561
1772536736860731600,1.880731689453125,0.010357143363356589,-0.44180823997110125,-0.5693384586779401
1772536736870780400,1.890780517578125,-0.01087561427950859,-0.4306815735399723,-0.6026259939149021
1772536736880828700,1.90082861328125,0.05900222406685352,-0.43006694877296686,-0.5877420573094859
1772536736890877400,1.91087744140625,0.16642507243156432,-0.46015696661025285,-0.5684043561656028
1772536736900926500,1.920926513671875,0.1666179646551609,-0.5051692437693477,-0.48604566030018026
1772536736910975700,1.930975830078125,0.03410217608809471,-0.5243257796600461,-0.4138964064231142
1772536736921024500,1.9410244140625,-0.08137479939460754,-0.5034238614067434,-0.3587435877934098
1772536736931072500,1.951072509765625,-0.12296586993336676,-0.46482525068223474,-0.303093304502964
1772536736941121500,1.96112158203125,-0.26754151412844657,-0.44960634650140996,-0.2817512595330365
1772536736951170600,1.971170654296875,-0.3442717025876045,-0.39901714599281546,-0.3409024453502148
1772536736961219600,1.981219482421875,-0.38676410588026044,-0.2819499787092209,-0.4293539416654035
1772536736971267600,1.991267578125,-0.5355190815865993,-0.124073246653378,-0.5218326842026785
1772536736981316600,2.001316650390625,-0.754769735276699,0.013912790018320083,-0.5582768203070387
1772536736991365600,2.01136572265625,-0.8217074285179377,0.0716843032464385,-0.5548158296655863
1772536737001414700,2.02141455078125,-0.8395932138204574,0.11206219860315322,-0.517046363241598
1772536737011463700,2.031463623046875,-0.9433166231453418,0.1964817725211382,-0.48237563001792877
1772536737021511700,2.04151171875,-1.0082195956885813,0.3144686849981546,-0.4983144094385206
1772536737031560700,2.051560791015625,-0.9748340434372424,0.47110827647447584,-0.5073363952079788
1772536737041609500,2.061609375,-0.9165168790251016,0.5720163361176848,-0.49845038384310897
1772536737051658800,2.07165869140625,-0.7668857050061225,0.6924602863579988,-0.4837704088445753
1772536737061706500,2.08170654296875,-0.6154927820116282,0.823778681834042,-0.4612171431876719
1772536737071755500,2.091755615234375,-0.4542126712530851,0.8844558533757925,-0.39701121299788356
1772536737081804500,2.101804443359375,-0.2967687776565552,0.9254150557518005,-0.32469537038225676
1772536737091853600,2.111853515625,-0.17204349683523176,0.9313973450317978,-0.2398701930717565
1772536737101902600,2.121902587890625,-0.01847030719220638,0.8700926892414689,-0.08311808113167062
1772536737111950600,2.13195068359375,0.0332224706441164,0.7450210792005062,0.06432044168123975
1772536737121999600,2.14199951171875,0.044597266617417336,0.6245403040811419,0.12925990117681213
1772536737132048600,2.152048583984375,0.10146773935258388,0.5375944265559315,0.12003077546269632
1772536737142097400,2.162097412109375,0.10728080954551696,0.45270197442919013,0.16867509811436757
1772536737152145700,2.172145751953125,0.03570727319717407,0.40589550732970237,0.16311759185139088
1772536737162194400,2.1821943359375,0.0313140066742897,0.3781742644503712,0.1460312772303354
1772536737172243700,2.19224365234375,0.02511573655605316,0.4121463844180107,0.13993547197273
1772536737182292500,2.20229248046875,-0.009135492613911628,0.474239267976582,0.03689341424182057
1772536737192341500,2.212341552734375,-0.01600128673017025,0.5155129431292415,0.011559230895806103
1772536737202389500,2.222389404296875,-0.123696522295475,0.49006169100850816,0.025501393139082937
1772536737212438500,2.2324384765625,-0.2560334471642971,0.45760172916948794,0.03331142756920308
1772536737222487800,2.24248779296875,-0.31439328167438507,0.4180582388103008,0.07456959462547674
1772536737232536600,2.25253662109375,-0.37588147733807564,0.3831277952045202,0.1072007300466299
1772536737242584600,2.26258447265625,-0.45210663888454433,0.3625780513897538,0.12630632120138033
1772536737252633600,2.272633544921875,-0.49365445480346676,0.3530439148470759,0.08779779991311952
1772536737262682600,2.2826826171875,-0.4127478574424982,0.4225970512837171,-0.025055293339397756
1772536737272731600,2.292731689453125,-0.24121640178263187,0.4722901797354221,-0.04729828747073188
1772536737282779600,2.302779541015625,-0.29770693528950215,0.4818181787982583,-0.1399017888988368
1772536737292828700,2.31282861328125,-0.19017945750653742,0.5094657719194888,-0.01519537717476487
1772536737302877700,2.322877685546875,-0.011689268749952316,0.4548343102827668,-0.01819863237766549
1772536737312926500,2.332926513671875,0.08584580732882022,0.4429094792112708,-0.018525763706490398
1772536737322975700,2.342975830078125,0.1312993985146284,0.3735948277056217,0.04519444705927744
1772536737333023500,2.3530234375,0.2294803712815046,0.2285810843542218,0.11276340567506848
1772536737343072800,2.36307275390625,0.292666018512845,0.14282295530885458,0.10216711979359387
1772536737353121500,2.37312158203125,0.3779641288310289,0.06909282544851303,0.11812151690842583
1772536737363170600,2.383170654296875,0.47915363576412195,-0.008397825989127158,0.14367495989515444
1772536737373218600,2.393218505859375,0.5462286916494369,-0.05912994209975004,0.12641074969023466
1772536737383267600,2.403267578125,0.6581897679656744,-0.15654460666924713,0.16385697550922632
1772536737393316600,2.413316650390625,0.5515729752868413,-0.22063100213259457,0.19231219521891324
1772536737403365600,2.42336572265625,0.4713146127015352,-0.3382195629417896,0.16630356494374574
1772536737413414400,2.433414306640625,0.5435556730479002,-0.39110242734551426,0.14342602663538417
1772536737423462700,2.443462646484375,0.5925438681006431,-0.39022476772814985,0.14774302218481897
1772536737433511400,2.453511474609375,0.5801315457731485,-0.42726358179003,0.13069197067338972
1772536737443560000,2.463559814453125,0.56824880027771,-0.49379824718832965,0.1020973972919397
1772536737453608700,2.473608642578125,0.5725257469445467,-0.5436696548163891,0.06949234616011381
1772536737463657000,2.483656982421875,0.5381599514842033,-0.5841580248102546,0.10073115044003352
1772536737473705700,2.493705810546875,0.4950035313248634,-0.6188669346198439,0.10135364798624068
1772536737483754800,2.503754638671875,0.5650701702415942,-0.5872244266435503,0.02729242300800979
1772536737493803800,2.5138037109375,0.6372896032780409,-0.4820695232108235,0.07093427033042535
1772536737503852800,2.523852783203125,0.5738374140650033,-0.45534430563151834,0.08898964004619046
1772536737513900800,2.53390087890625,0.474528314051032,-0.5181725177273154,0.07723881383473054
1772536737523949800,2.54394970703125,0.4486673120856285,-0.5702247765257954,0.08594490205543115
1772536737533998800,2.553998779296875,0.43244799869060513,-0.5969377191454172,0.17404300008937715
1772536737544047900,2.5640478515625,0.29913550678789613,-0.6633233314618467,0.23692487860117106
1772536737554095900,2.574095947265625,0.1722609389781952,-0.7485355170622467,0.23819946511425077
1772536737564145000,2.584144775390625,0.09134440474510193,-0.8146902432322501,0.2648861773140728
1772536737574193700,2.594193603515625,-0.09884966580867767,-0.8964660246431827,0.3391808822546154
1772536737584243000,2.604242919921875,-0.32688568350076674,-1.02914781742692,0.3821376151233911
1772536737594290700,2.614290771484375,-0.4885305359184742,-1.125360997252166,0.37969606719017024
1772536737604339700,2.624339599609375,-0.6222299813121557,-1.1082979265093802,0.31196039197165515
1772536737614389000,2.634388916015625,-0.757175627374649,-1.0967284847468137,0.2539149571729824
1772536737624437800,2.644437744140625,-0.861599293923378,-1.0867492347851395,0.24597265639901159
1772536737634487000,2.654487060546875,-0.9827280115574598,-0.9704182728216052,0.22161508126650004
1772536737644534800,2.66453466796875,-1.1943635140687228,-0.7219590603038668,0.07743559678215534
1772536737654583800,2.674583740234375,-1.2055407416433095,-0.4375765937507152,-0.046213067783601576
1772536737664632800,2.6846328125,-0.9704963064938783,-0.2377054710522294,-0.09683836251888424
1772536737674681900,2.694681884765625,-0.696331574833393,-0.12276099501103162,-0.1260404916057363
1772536737684729900,2.704729736328125,-0.6249222891360521,0.02236819141358137,-0.08908920969683676
1772536737694779000,2.71477880859375,-0.5212099857270718,0.08344809853732585,-0.01708703614026308
1772536737704828000,2.724827880859375,-0.4019575833588838,0.02721592370569706,0.0906273425169289
1772536737714877000,2.734876953125,-0.4505179083883762,-0.04271773648113012,0.14937703486112877
1772536737724925700,2.74492578125,-0.528436429849267,-0.044509296073019504,0.17394982364689932
1772536737734974000,2.754973876953125,-0.5400520488411188,-0.07273088968992233,0.1354041486860253
1772536737745022700,2.765022705078125,-0.5254255575954914,-0.02622632814645767,0.015071878659259528
1772536737755072000,2.775072021484375,-0.694824677401781,0.09623977557122707,-0.05684066211879253
1772536737765120800,2.785120849609375,-0.7333177819252014,0.13878595487773418,-0.2199419969551265
1772536737775168800,2.795168701171875,-0.5816898811310529,0.26659517318904397,-0.34757786799352614
1772536737785217800,2.8052177734375,-0.49226153914034365,0.3475648989140987,-0.4895432566249743
1772536737795266800,2.815266845703125,-0.49108431205451486,0.3379422073051333,-0.6765276809498667
1772536737805315800,2.82531591796875,-0.43115328270494935,0.4264472969710827,-0.7750786560729146
1772536737815363800,2.83536376953125,-0.34503684174120425,0.5481181586578489,-0.8443544368728995
1772536737825412900,2.845412841796875,-0.16010288367271422,0.6085805184051394,-0.9304974735826254
1772536737835462000,2.8554619140625,0.1386111828327179,0.6644403527930378,-0.9842278947263956
1772536737845510700,2.8655107421875,0.38322131870687004,0.7262187635749578,-0.944626390569657
1772536737855560000,2.875559814453125,0.5213099389702082,0.7009574810683726,-0.8509804308839142
1772536737865607700,2.885607666015625,0.5553367117345333,0.6220765443161129,-0.7400321848720312
1772536737875657000,2.895656982421875,0.47701837730109686,0.56643970502913,-0.6103972855035216
1772536737885706000,2.9057060546875,0.3379489293068647,0.530299593372643,-0.5549541421577334
1772536737895754800,2.915754638671875,0.2716021876960993,0.5038762813493609,-0.5664361248325556
1772536737905802800,2.925802734375,0.294221431261301,0.47309652768224475,-0.5966944119088351
1772536737915851800,2.935851806640625,0.2687777779251337,0.44196430731564756,-0.6617686493657529
1772536737925901000,2.945901123046875,0.2288403198122978,0.37910131616741416,-0.7505556247130036
1772536737935949800,2.95594970703125,0.20992402241826055,0.2910655975788832,-0.7173723170354962
1772536737945998800,2.965998779296875,0.11755144366919994,0.2162795289248228,-0.7201030571736395
1772536737956046800,2.976046875,0.07286065354943275,0.16926964820772408,-0.7405703834019601
1772536737966096000,2.986095947265625,0.05527998867332935,0.13538725235015153,-0.7185988631557673
1772536737976145000,2.996144775390625,0.07970482035577296,0.10449760856777429,-0.6520647822793573
1772536737986194000,3.00619384765625,0.18744331054091454,0.051903790238499635,-0.6130397628363221
1772536737996242000,3.016241943359375,0.3271849587082863,-0.012256254982948302,-0.580235006147623
1772536738006291000,3.026291015625,0.4416384363621473,-0.03131576023995876,-0.5125267669253051
1772536738016339700,3.036339599609375,0.5470049367189407,-0.057097559489309786,-0.4593293566796928
1772536738026389000,3.046388916015625,0.6975187387913465,-0.10000380427986383,-0.3955521002307534
1772536738036436700,3.056436767578125,0.7952829474508762,-0.16467238354533908,-0.3314152532218024
1772536738046486000,3.066486083984375,0.7634902173489332,-0.24804829362928865,-0.24000898048793895
1772536738056534800,3.07653466796875,0.7434066297411919,-0.31450287952870126,-0.21035671474710105
1772536738066583800,3.086583740234375,0.7212859833478927,-0.37271804487109184,-0.17425395769262686
1772536738076632800,3.0966328125,0.6877794350653886,-0.4380658385723829,-0.18154700077762825
1772536738086680800,3.106680908203125,0.6629787558078766,-0.45970951510369773,-0.26669753758497533
1772536738096729900,3.116729736328125,0.6392074195981026,-0.4768140869006514,-0.3152556706573814
1772536738106779000,3.12677880859375,0.5682984846383333,-0.5312570402279496,-0.3483747174596414
1772536738116827600,3.13682763671875,0.5224561863958835,-0.6118009417563677,-0.3806945036429912
1772536738126876000,3.1468759765625,0.6247972014516592,-0.6372513170942664,-0.4068254816561937
1772536738136924700,3.156924560546875,0.5636871914505959,-0.6598363661289215,-0.3604380071537569
1772536738146974000,3.166973876953125,0.4966290867000818,-0.7268918405309319,-0.3492067843696102
1772536738157022700,3.177022705078125,0.559095187485218,-0.7115270981386304,-0.3587295958006754
1772536738167071000,3.187071044921875,0.5798585740506649,-0.6981000458106398,-0.39838093044850975
1772536738177119700,3.19711962890625,0.566184268963337,-0.7721960863739251,-0.32217925937548275
1772536738187168800,3.207168701171875,0.6178396373987197,-0.7510346404016017,-0.40273656837474553
1772536738197218000,3.217218017578125,0.6809037040770054,-0.765959822332859,-0.3576917771855369
1772536738207266800,3.227266845703125,0.7445154677659273,-0.8097428499579429,-0.26341214097244664
1772536738217314800,3.237314697265625,0.7470417713731526,-0.8516630063205957,-0.24431078760139643
1772536738227363800,3.24736376953125,0.7955377989947795,-0.9458467261448502,-0.17573908168384805
1772536738237412900,3.257412841796875,0.7880746235072612,-0.9833674785047769,-0.2113039142030291
1772536738247462000,3.2674619140625,0.7457932326167821,-1.0170926379740237,-0.17610828032242135
1772536738257510000,3.277510009765625,0.6411065312176942,-1.064349479189515,-0.12183867426803335
1772536738267559000,3.287558837890625,0.5366904634535312,-1.0481567615404725,-0.15586866190275175
1772536738277608000,3.29760791015625,0.5858434936791658,-1.0338841982990503,-0.16652455075066536
1772536738287656700,3.30765673828125,0.518674914291501,-0.9897358444929122,-0.16100180527381597
1772536738297706000,3.3177060546875,0.39634851130545135,-0.9717042209789156,-0.2122331396108493
1772536738307753700,3.327753662109375,0.3431605264753103,-0.9349912778705358,-0.21986222798349334
1772536738317803000,3.337802978515625,0.15419395188987253,-0.9213254483506083,-0.15279057876481675
1772536738327851800,3.347851806640625,-0.07281973701715469,-0.9384382034540176,-0.11512377813085913
1772536738337900800,3.35790087890625,-0.14692892932295798,-0.8982011778727174,-0.09967106519415975
1772536738347948800,3.36794873046875,-0.22302432700991628,-0.7734910946205258,-0.11805709163639694
1772536738357997800,3.377997802734375,-0.35967677699029443,-0.6756155345410109,-0.17685053179077803
1772536738368046800,3.388046875,-0.43936581525504587,-0.6040162792295217,-0.21460428918898106
1772536738378095900,3.398095947265625,-0.44239071603417396,-0.46933279123455285,-0.2549459441885352
1772536738388143900,3.408143798828125,-0.4577613036453724,-0.3416226493835449,-0.2641859566228464
1772536738398193000,3.41819287109375,-0.5931915183544159,-0.35708851406276226,-0.18214246418643742
1772536738408241700,3.42824169921875,-0.6026946752369403,-0.4641656177297234,-0.09965114578413777
1772536738418291000,3.438291015625,-0.5573948133081198,-0.5303282349452376,0.05217165652760304
1772536738428339700,3.448339599609375,-0.8171464042127132,-0.5672817088112235,0.23452366267833857
1772536738438387500,3.458387451171875,-1.054305055037141,-0.6685930885583162,0.370103916849941
1772536738448436500,3.4684365234375,-1.0316495711147784,-0.6621411359399557,0.48634394912701095
1772536738458485500,3.478485595703125,-1.0323837306082249,-0.5089923091888428,0.5274878604201599
1772536738468534500,3.488534423828125,-1.19865799639225,-0.3172667912840843,0.46068621464874593
1772536738478582300,3.498582275390625,-1.2896972807109355,-0.028209903179109094,0.3382624887680635
1772536738488631600,3.508631591796875,-1.2668337069958449,0.3131488345712423,0.1943882525742985
1772536738498680600,3.5186806640625,-1.108136013945937,0.5159919588178395,0.031623839808441696
1772536738508729300,3.528729248046875,-0.7982581638693809,0.649223494438827,-0.06131384374378249
1772536738518777600,3.538777587890625,-0.595475829899311,0.7505886501997708,-0.05963781855665147
1772536738528826400,3.548826416015625,-0.4981763161420822,0.7839344549626112,-0.02171599284885451
1772536738538875600,3.558875732421875,-0.33733576584458347,0.756681414116919,0.0744416939294897
1772536738548924400,3.56892431640625,-0.2392594224959612,0.6599629151180386,0.2045582393351011
1772536738558973400,3.578973388671875,-0.22959610661566257,0.5556698892116546,0.3432637676540762
1772536738569021400,3.589021484375,-0.23655893136560915,0.4225894524991512,0.4972007491081953
1772536738579070500,3.599070556640625,-0.1503618263810873,0.3607543430939317,0.6197574537187814
1772536738589119500,3.609119384765625,-0.03556815698742866,0.3532505433350801,0.6530208408951759
1772536738599168500,3.61916845703125,0.08911737634539604,0.39565351477861405,0.6673944533582776
1772536738609216500,3.629216552734375,0.09353577730953692,0.4673720125555992,0.687985771292448
1772536738619265500,3.639265625,0.052151042997837065,0.5795461471006274,0.673854004761204
1772536738629314300,3.649314208984375,0.07400982358455657,0.687243428492546,0.67330915729478
1772536738639363600,3.659363525390625,0.08289864796102046,0.7707640077441931,0.6762965756077319
1772536738649411300,3.669411376953125,0.03966156378090381,0.7956196320593356,0.6823351981848478
1772536738659460600,3.679460693359375,0.03696048812866211,0.7871741675361991,0.7131142211996019
1772536738669509400,3.68950927734375,-0.009777882170677184,0.7821423108488321,0.7185854191523044
1772536738679558400,3.699558349609375,-0.06691606593132018,0.77136664981246,0.7152850624326617
1772536738689606400,3.7096064453125,-0.19910510676205156,0.7621718282267451,0.7185233867667615
1772536738699655400,3.719655517578125,-0.30565701751112934,0.7610141826242208,0.6555965366020798
1772536738709704400,3.729704345703125,-0.3500917870432138,0.7887193511515855,0.5754757193239406
1772536738719753500,3.73975341796875,-0.25253917530775066,0.8208814990878105,0.46013431638702745
1772536738729802500,3.749802490234375,-0.1251122343122959,0.8795806485548615,0.3547104232871905
1772536738739850500,3.7598505859375,-0.03070493486523628,0.8943164453938602,0.3453306005233899
1772536738749899300,3.769899169921875,0.11136720207631587,0.8774512353107332,0.3243661384278908
1772536738759948500,3.779948486328125,0.35518297270238397,0.8592413326203823,0.314545403496176
1772536738769997600,3.78999755859375,0.5059007729142904,0.7998360807105899,0.3560801407378167
1772536738780045600,3.800045654296875,0.5725859526991843,0.6730529905766248,0.4561027227833867
1772536738790094600,3.810094482421875,0.5947445930153131,0.5419248569756746,0.5488739819938316
1772536738800143400,3.820143310546875,0.6087462303608655,0.44088820251673455,0.6093148970942944
1772536738810192600,3.830192626953125,0.6674860040992499,0.3490063298940658,0.6030109015792607
1772536738820240400,3.840240478515625,0.763494309002161,0.31728900311589237,0.5653602026967331
1772536738830289700,3.85028955078125,0.8298919040173292,0.2843628850698471,0.46473808385543525
1772536738840338400,3.86033837890625,0.8315279807865619,0.27184125714898105,0.3868381574971601
1772536738850387500,3.870387451171875,0.806829592859745,0.21112989107668398,0.3201475343521684
1772536738860436500,3.8804365234375,0.7800970687568187,0.13609189348816872,0.2832611709056422
1772536738870484500,3.890484375,0.765997231733799,0.041888884441554544,0.2216984852336347
1772536738880533500,3.900533447265625,0.8436714230448007,-0.05783318028748035,0.17891347393626347
1772536738890582500,3.91058251953125,0.9172159672051667,-0.17530512897968292,0.20359839959330855
1772536738900631600,3.920631591796875,0.9052946432650089,-0.32782851730883117,0.23115365652227773
1772536738910679600,3.930679443359375,0.828353442403674,-0.4778898994386196,0.2822876131657511
1772536738920728300,3.940728271484375,0.7256991236150264,-0.5930874734580517,0.2868955636189319
1772536738930777600,3.950777587890625,0.6143856975525617,-0.7047817155316471,0.2994478972053155
1772536738940826400,3.960826416015625,0.5365320580214261,-0.8010992325142026,0.30221400091778483
1772536738950874600,3.97087451171875,0.5142489145427942,-0.8802247916772961,0.28853322955705224
1772536738960923400,3.98092333984375,0.4357739282429218,-0.9024903994992375,0.2920961096704006
1772536738970972400,3.990972412109375,0.24709318486154078,-0.9633546180456877,0.32749873736519364
1772536738981021400,4.001021484375,0.09804770177602767,-1.0697802720665932,0.36899719771705564
1772536738991069400,4.0110693359375,-0.05758768109381199,-1.145639522910118,0.4243400590261444
1772536739001118500,4.021118408203125,-0.2260568265736103,-1.2157701669737695,0.44783199377264826
1772536739011167500,4.03116748046875,-0.42109015385210513,-1.2464166496500373,0.4521446693399921
1772536739021216500,4.041216552734375,-0.5525836136341095,-1.224070670068264,0.4143769199490547
1772536739031265500,4.051265625,-0.7120750874102115,-1.1432698711693285,0.4049569843705743
1772536739041313500,4.0613134765625,-0.8751853362053632,-1.0555296283960343,0.3093224812161177
1772536739051362600,4.071362548828125,-0.9357102397948502,-0.9472525012895464,0.22328465844653544
1772536739061411300,4.081411376953125,-1.0003665441006422,-0.7827332624793052,0.14222725443802772
1772536739071460600,4.091460693359375,-0.967013140553236,-0.6676780195400118,0.11141052976138889
1772536739081508400,4.10150830078125,-0.9253069192022084,-0.648934448364377,0.16665552018657326
1772536739091557400,4.111557373046875,-0.662172115600109,-0.6641270490601658,0.025253208797983824
1772536739101606700,4.121606689453125,-0.47614100994467734,-0.4882835754200816,0.13396003255862743
1772536739111655400,4.131655517578125,-0.5768003555238247,-0.5324950575903058,0.23092720908895134
1772536739121703400,4.141703369140625,-0.6406348220527172,-0.7031848017290234,0.368780705422163
1772536739131752400,4.15175244140625,-0.6392109267294407,-0.8492179512560367,0.5629588406434283
1772536739141801500,4.161801513671875,-0.7153747134774923,-0.835574918089807,0.5452024904068559
1772536739151850500,4.1718505859375,-0.8232868066638708,-0.7759276741176844,0.51233577439785
1772536739161898500,4.1818984375,-0.86784315674901,-0.6834995657891034,0.5730618996478617
1772536739171947500,4.191947509765625,-0.9570955576509237,-0.570492195290327,0.6106537079500034
1772536739181996500,4.20199658203125,-1.0172294160962103,-0.4360471922263503,0.5243717376936227
1772536739192045600,4.212045654296875,-0.9813350958943367,-0.2289434879258275,0.2843825030857697
1772536739202094600,4.222094482421875,-0.6715969465494156,0.044593174964189526,0.04370457382770255
1772536739212142600,4.232142578125,-0.4991834473580122,0.2897130139261484,-0.11910411647129804
1772536739222191600,4.242191650390625,-0.38415830729603767,0.48444706599712367,-0.28538092127228154
1772536739232240400,4.252240478515625,-0.20546645848751066,0.5924027060642838,-0.3400231052324176
1772536739242289700,4.26228955078125,-0.13260755850374698,0.7391901810899376,-0.3464380137760192
1772536739252337400,4.27233740234375,0.04062427133321762,0.857533359658718,-0.30011059889774766
1772536739262386700,4.28238671875,0.13260872754752634,0.9130506642192602,-0.2696915135028772
1772536739272435500,4.292435546875,0.13985679897964,0.9022966304928064,-0.28858510587476194
1772536739282484500,4.302484375,0.2526572487294674,0.8555781339377164,-0.2502288160061464
1772536739292532500,4.312532470703125,0.3401736196190119,0.8454606445491314,-0.23723924177996814
1772536739302581500,4.32258154296875,0.3422948495566845,0.8577917183339595,-0.17343250350821762
1772536739312630500,4.332630615234375,0.3402957846939564,0.8038684049665927,-0.16736607960872352
1772536739322679600,4.342679443359375,0.34292321058809755,0.7443702140763402,-0.14843799131219274
1772536739332727600,4.3527275390625,0.2815641942620277,0.7147527821868658,-0.14033297425718047
1772536739342776600,4.362776611328125,0.20884499500989911,0.7044581826657056,-0.18905929437018928
1772536739352825300,4.372825439453125,0.16103870321810246,0.6513017620176077,-0.24449852872584013
1772536739362874600,4.38287451171875,0.14504384622871874,0.577137332393229,-0.28319901065593583
1772536739372923600,4.392923583984375,0.15913608446717262,0.4993438986167311,-0.3029077736019157
1772536739382971600,4.4029716796875,0.09339841466546057,0.43185529349446294,-0.29132850456507875
1772536739393020400,4.4130205078125,-0.1065209310889244,0.36333705306351183,-0.24789218975212424
1772536739403069400,4.4230693359375,-0.23515549430847166,0.3451648520350456,-0.3150445121247321
1772536739413118700,4.43311865234375,-0.11307926669120788,0.38126024776697154,-0.3903957403808832
1772536739423166500,4.44316650390625,-0.02581073308289051,0.4316358055248856,-0.4531277986258268
1772536739433215500,4.453215576171875,-0.020531915897130965,0.41147506102770565,-0.5080190802425146
1772536739443265800,4.463265869140625,0.13544716584384442,0.3642009764164686,-0.5293446307353675
1772536739453314600,4.473314453125,0.3025397622734308,0.35101474710702896,-0.5022191252594813
1772536739463362800,4.48336279296875,0.40872810040712354,0.2952054738625884,-0.507724627340585
1772536739473411600,4.49341162109375,0.4717576802939176,0.1913572691142559,-0.46732378949970005
1772536739483460600,4.503460693359375,0.4883259532570839,0.07604542106539011,-0.3596126257129013
1772536739493509600,4.513509521484375,0.5131716407001018,-0.07795973025411367,-0.27757866828981786
1772536739503557600,4.5235576171875,0.5323462967693805,-0.22591566453725098,-0.19481690804883836
1772536739513606700,4.533606689453125,0.597989858546853,-0.3112085141584277,-0.18677629799954593
1772536739523655700,4.54365576171875,0.64939505161345,-0.38167145891636606,-0.13406703659705818
1772536739533704400,4.553704345703125,0.6344453197628259,-0.4276087419658899,-0.11068186842696741
1772536739543753700,4.563753662109375,0.5940776535391807,-0.4290940120875835,-0.11643942730668931
1772536739553801500,4.573801513671875,0.5945587150543927,-0.4167708293482661,-0.09973554526511579
1772536739563850800,4.583850830078125,0.5519266110301018,-0.38427988784909245,-0.12041801208145916
1772536739573899500,4.5938994140625,0.5732634135693311,-0.36097441558539867,-0.19689875582419333
1772536739583948500,4.603948486328125,0.586947071006894,-0.34572219365686174,-0.24954101640507578
1772536739593996500,4.61399658203125,0.554770310023427,-0.36646366065144537,-0.270057077145949
1772536739604045600,4.624045654296875,0.4417436503022909,-0.4050727927699685,-0.2628338113615289
1772536739614094600,4.634094482421875,0.42851007471978664,-0.4712953234791755,-0.18867193902041762
1772536739624143600,4.6441435546875,0.4092126690536737,-0.5202893637508154,-0.09280570033616385
1772536739634191600,4.654191650390625,0.3539537231683731,-0.5551867818698286,-0.029428110729297623
1772536739644240600,4.66424072265625,0.272632115265727,-0.572922345046699,0.07786141184563748
1772536739654289400,4.674289306640625,0.24821955854296682,-0.5826768463417887,0.1272266965824645
1772536739664338700,4.684338623046875,0.2982885345697403,-0.5168865695700049,0.10755510557540691
1772536739674386400,4.694386474609375,0.27171090876758097,-0.5256789478346705,0.15365047439662738
1772536739684435700,4.704435791015625,0.15769289992153643,-0.522841386321187,0.23597696675918994
1772536739694484500,4.714484375,0.019838672935962677,-0.5237281060278416,0.1884293989688158
1772536739704533500,4.724533447265625,0.02099485723376274,-0.49543578526228665,0.13158404240859672
1772536739714581500,4.73458154296875,-0.05135667774975299,-0.4731722232669592,0.08183385000741109
1772536739724630500,4.744630615234375,-0.18885025472939013,-0.5028215115994215,0.048088652397133405
1772536739734679600,4.754679443359375,-0.32097675171792506,-0.49641222907900806,0.053298180906078775
1772536739744728600,4.764728515625,-0.44888358518481253,-0.508007097543776,0.0480101529339794
1772536739754777600,4.774777587890625,-0.49832069304883475,-0.4713236727908253,-0.01570971990507096
1772536739764825600,4.78482568359375,-0.47713703524470324,-0.391584073382616,-0.04224557979158126
1772536739774874600,4.79487451171875,-0.48830900212228295,-0.3225242734208703,-0.060233373297005885
1772536739784923600,4.804923583984375,-0.5363929418116807,-0.306657426725328,-0.0507145530544687
1772536739794972700,4.81497265625,-0.4918196405917406,-0.40342122617065906,0.0623830895436462
1772536739805020700,4.825020751953125,-0.4960398886352777,-0.5458525518134236,0.15746522864550352
1772536739815069700,4.835069580078125,-0.7884189069002866,-0.5745066916286945,0.2552955978764221
1772536739825118500,4.845118408203125,-1.1163760190248488,-0.5210796373456716,0.2799456896821037
1772536739835167700,4.855167724609375,-1.2746388277888296,-0.5113169527441263,0.27119333290057257
1772536739845215500,4.865215576171875,-1.3346908531695603,-0.448173975610733,0.22897764592375605
1772536739855264800,4.8752646484375,-1.455607389357686,-0.1843830461874604,0.11786540498919784
1772536739865313500,4.8853134765625,-1.6168775632441044,0.19724048193395136,-0.06489915488464758
1772536739875362600,4.895362548828125,-1.6058938124150037,0.5450616936966777,-0.2244994045311585
1772536739885410600,4.90541064453125,-1.328604226732254,0.8365560380816459,-0.3633342765845358
1772536739895459600,4.91545947265625,-1.0489058263421058,1.0588055813267827,-0.28851364807374774
1772536739905508600,4.925508544921875,-0.8197188850492239,1.0600327850341795,-0.18783534206580368
1772536739915557600,4.9355576171875,-0.4845815060317516,1.1304279252529144,-0.1273170874128118
1772536739925605600,4.945605712890625,-0.3169219233691692,1.1703086847424506,0.0026848186371847987
1772536739935654700,4.955654541015625,-0.20067922421097753,1.014578317065537,0.14220566366072743
1772536739945703400,4.965703369140625,-0.1615191802114248,0.8589493639364838,0.3358068392442539
1772536739955752700,4.975752685546875,-0.09430559263825417,0.7094485382989049,0.45393188155032693
1772536739965801500,4.985801513671875,0.07213350831866264,0.6207359433621168,0.4733809706468135
1772536739975849700,4.995849609375,0.24910101755261418,0.6182488027215004,0.47867681203261014
1772536739985898500,5.0058984375,0.3109258978247642,0.6149474230885505,0.5066463305845856
1772536739995947500,5.015947509765625,0.31038463055491444,0.6031120238661766,0.48837161902971565
1772536740005996500,5.02599658203125,0.3078454674661159,0.6297475173354149,0.47730146855879574
1772536740016044500,5.03604443359375,0.2915092496931553,0.6322606692001224,0.4980833040963858
1772536740026093600,5.046093505859375,0.26733634694516656,0.6095861883163451,0.5204975996740162
1772536740036142600,5.056142578125,0.26218787814080713,0.6093044487655163,0.5391681786786765
1772536740046191600,5.066191650390625,0.2571580672800541,0.6098880938723683,0.627131635748595
1772536740056239600,5.076239501953125,0.1868734016984701,0.5180974066644907,0.7188990882113575
1772536740066288400,5.086288330078125,0.08890753298699855,0.4213493893101811,0.7770069937869906
1772536740076337700,5.096337646484375,0.04877192195355892,0.39387335336357354,0.7933391199067235
1772536740086386700,5.10638671875,0.03998421986401081,0.424221729876101,0.7449627000767737
1772536740096434700,5.1164345703125,-0.026036358532309532,0.4562178735956549,0.6847764538571238
1772536740106483500,5.1264833984375,-0.17645312997102736,0.4837456397294998,0.6760930158596485
1772536740116532500,5.136532470703125,-0.2905839515417814,0.4989508076459169,0.5702016513785347
1772536740126581800,5.146581787109375,-0.16795009004175662,0.5522273475423455,0.48603250855766233
1772536740136629500,5.15662939453125,-0.09024784168004989,0.6235486626952886,0.37927152163516725
1772536740146678800,5.1666787109375,-0.03167874833345413,0.6341279243767262,0.3864376138722524
1772536740156727600,5.1767275390625,0.05521101509034633,0.5665940188080072,0.4561185048744082
1772536740166776600,5.186776611328125,0.18183540753126143,0.5327975476682186,0.5027900570152327
1772536740176824600,5.196824462890625,0.35101123997569084,0.5665867122843862,0.47376777800731357
1772536740186873600,5.20687353515625,0.4762158287465572,0.5483847006395459,0.5201392512230202
1772536740196922600,5.216922607421875,0.49222120712995526,0.4805769465655088,0.6121860320838168
1772536740206971600,5.2269716796875,0.5137450566738844,0.395276790420711,0.7214942923363298
1772536740217020400,5.2370205078125,0.5842255370885133,0.2671983997792005,0.8558243637837469
1772536740227068700,5.247068603515625,0.6348036316812038,0.13128595451116562,0.914168635398522
1772536740237117400,5.257117431640625,0.6179261466383934,0.02865677016377449,0.9261812908839434
1772536740247166700,5.267166748046875,0.5956687221229076,-0.008242050905525685,0.9343610171429813
1772536740257215500,5.277215576171875,0.4925321727752685,-0.015965338633954523,0.9193613817360251
1772536740267263700,5.287263671875,0.378926251861453,-0.015902210269868374,0.8815567709334194
1772536740277312500,5.2973125,0.1580167250484228,-0.10466069017499685,0.7908077017329633
1772536740287361500,5.307361572265625,0.28333704915344715,-0.03166559659093618,0.7396358059655874
1772536740297410600,5.31741064453125,0.45990182280540465,0.05478460637181997,0.6437897789523005
1772536740307458600,5.32745849609375,0.2791378438979387,-0.19195114335417746,0.5376125102018937
1772536740317507600,5.337507568359375,0.24355624290704725,-0.24828999343067407,0.6325663010831922
1772536740327556600,5.347556640625,0.20451719493865966,-0.3211374952375889,0.7044913542829454
1772536740337605400,5.35760546875,0.22945991301536559,-0.501703321224451,0.7371035840742289
1772536740347653600,5.367653564453125,0.2127145299196243,-0.5505810416400432,0.800640528961271
1772536740357702400,5.377702392578125,0.21734102067649363,-0.5685685337513685,0.8358969896510243
1772536740367751700,5.387751708984375,0.274929870814085,-0.5926008589848876,0.8313567158728837
1772536740377800400,5.397800537109375,0.22365502612888813,-0.5381897621005773,0.9315043856028467
1772536740387848700,5.4078486328125,0.21890578577518463,-0.5331035448774695,0.9549233281783759
1772536740397897500,5.4178974609375,0.22360884889960286,-0.6052715399876236,0.9551730651557445
1772536740407946500,5.427946533203125,0.2561737324178219,-0.5037576234057546,0.9622510407179593
1772536740417995800,5.437995849609375,0.20480887136161327,-0.4791694178551435,0.9253631063688545
1772536740428043500,5.44804345703125,0.04232932168543339,-0.5760416461110115,0.931010976062715
1772536740438092500,5.458092529296875,-0.12614917614459992,-0.5698956907019018,0.8562023302506655
1772536740448141000,5.46814111328125,-0.1953133132636547,-0.583948181451857,0.8054985634516925
1772536740458190000,5.478190185546875,-0.4459773423492908,-0.5857333113029599,0.7796243366785347
1772536740468238000,5.488238037109375,-0.6699030021131038,-0.5483040366187691,0.6387503234803676
1772536740478287000,5.498287109375,-0.7180243512034415,-0.5045806302264333,0.4553692208770662
1772536740488336100,5.508336181640625,-0.7152151390016078,-0.45259822179377074,0.3195953803621232
1772536740498385200,5.51838525390625,-0.8314204287588596,-0.3867930397137999,0.32883561199214306
1772536740508433200,5.52843310546875,-0.8286281676918268,-0.46930327287912366,0.18325104648284612
1772536740518482200,5.538482177734375,-0.65200611089468,-0.415016094635427,0.18308252151552587
1772536740528531200,5.54853125,-0.596227525049448,-0.5227738740429282,0.28620274078287183
1772536740538580200,5.558580322265625,-0.7956015118807553,-0.6900263372093439,0.3574481411553919
1772536740548628000,5.5686279296875,-1.1036831261903046,-0.6533905509904027,0.3169110366489738
1772536740558677200,5.57867724609375,-1.2031833648622035,-0.5834004844412207,0.2283539062685333
1772536740568726000,5.58872607421875,-1.3205840018838644,-0.5284215245410799,0.17881748448219148
1772536740578775000,5.598775146484375,-1.334476918157935,-0.4580611633747816,0.08732464770972728
1772536740588823000,5.608822998046875,-1.267135320290923,-0.2420996143579483,-0.010932605163753032
1772536740598872000,5.6188720703125,-1.1435445964574813,0.08575023799985647,-0.2085694660041481
1772536740608921000,5.628921142578125,-0.917633315834403,0.316778715506196,-0.2791248200195841
1772536740618970000,5.63897021484375,-0.7211667408823966,0.4473030379951,-0.2785512579153292
1772536740629019100,5.64901904296875,-0.5870154600679874,0.5026037771955132,-0.24430050366939976
1772536740639067100,5.659067138671875,-0.5233744702845812,0.5210220619395375,-0.23278976982412858
1772536740649116200,5.6691162109375,-0.46865153097212314,0.5584755942821502,-0.2988281761380844
1772536740659165200,5.679165283203125,-0.39021103146374225,0.5971998772129417,-0.3791987851925194
1772536740669214000,5.6892138671875,-0.4433680366337299,0.6445362134054303,-0.4299067897751927
1772536740679262200,5.69926220703125,-0.430497449144721,0.7145408930018544,-0.577010856469348
1772536740689311000,5.70931103515625,-0.19988193635344503,0.8310740995392203,-0.7298856155194342
1772536740699360300,5.7193603515625,-0.02012041248679161,0.9734083945482969,-0.8491394791923463
1772536740709409300,5.7294091796875,-0.06075228260457515,1.0725707795679569,-0.9750895525682717
1772536740719457000,5.73945703125,-0.0435749378323555,1.0875281102031469,-1.0802495705675332
1772536740729506000,5.749506103515625,0.14861702854037284,1.087387824949622,-1.1173610845394433
1772536740739555000,5.75955517578125,0.32880408434271813,1.026421022811532,-1.0803031273856758
1772536740749604400,5.769604248046875,0.3428302716076374,0.8810723484173416,-1.0001664914838968
1772536740759652000,5.779652099609375,0.3010626754581928,0.7615121952742337,-0.9381906584337353
1772536740769701000,5.789701171875,0.3030757688462734,0.6931807095870375,-0.8631129133567214
1772536740779750100,5.799750244140625,0.4206219518184662,0.6540691809043288,-0.868395237673819
1772536740789799200,5.809799072265625,0.42531390902698035,0.6342720090225339,-0.7704433244224638
1772536740799847200,5.81984716796875,0.35182138731479645,0.5481126056998967,-0.7460168122395873
1772536740809896200,5.829896240234375,0.4394634304106235,0.5391778963550925,-0.7717948851618915
1772536740819945200,5.8399453125,0.5715455037355422,0.5373351910978555,-0.7991810508679598
1772536740829994200,5.849994140625,0.5721662659823894,0.5125117154866456,-0.7704048921082168
1772536740840042200,5.860042236328125,0.46863282627165315,0.4752659806758165,-0.8129057709682732
1772536740850091300,5.87009130859375,0.4834948798388242,0.43894729758203027,-0.8446344959232955
1772536740860140000,5.88014013671875,0.5710743790924548,0.391457232132554,-0.8320658139903098
1772536740870189300,5.890189208984375,0.5873381161510944,0.32145810549408194,-0.8168995167795569
1772536740880237000,5.900237060546875,0.5487082335054874,0.20283932485431433,-0.7812836481928825
1772536740890286000,5.9102861328125,0.5244125811606646,0.10226911886334418,-0.7473661079566926
1772536740900335000,5.920335205078125,0.552235823109746,0.014722352835536003,-0.683885131040588
1772536740910384000,5.930384033203125,0.5440694677889347,-0.1100301082536578,-0.6028157443333417
1772536740920433200,5.94043310546875,0.49805122845768923,-0.27141747877895833,-0.5859264957875013
1772536740930481200,5.950481201171875,0.49399055489003657,-0.38035833049118517,-0.5167156699825078
1772536740940530200,5.9605302734375,0.3962514806717634,-0.4650938384905457,-0.4377870216310024
1772536740950579200,5.9705791015625,0.3009890257000923,-0.5234776383981108,-0.46897667127326126
1772536740960628000,5.9806279296875,0.34463585972487926,-0.5315867105737329,-0.47080659011416137
1772536740970676200,5.99067626953125,0.3283504953563213,-0.509722961550951,-0.4391863670349121
1772536740980725000,6.00072509765625,0.24887246949374675,-0.5160989263236523,-0.45346024545058605
1772536740990774300,6.010774169921875,0.22286066088080406,-0.5557701347157359,-0.4188777384996414
1772536741000823000,6.020822998046875,0.24110943427681922,-0.5883952239885926,-0.36242717167697847
1772536741010871300,6.030871337890625,0.23883038342893123,-0.6270397196814418,-0.3101875736128539
1772536741020920000,6.040920166015625,0.22184885348975658,-0.707407972382009,-0.24349895976185798
1772536741030969000,6.050968994140625,0.20367197628617287,-0.7727356000781059,-0.1804350392140448
1772536741041018000,6.06101806640625,0.19211714757084844,-0.8306073588103056,-0.12837324540223927
1772536741051066000,6.071066162109375,0.17724340356588364,-0.8914195549085736,-0.08795830597076565
1772536741061115100,6.081115234375,0.07570026088953018,-0.8980962561935186,-0.07433288152646272
1772536741071164200,6.0911640625,-0.04051087408661842,-0.8880363422110676,-0.10535316595118492
1772536741081213200,6.101213134765625,-0.09052022888064384,-0.881325446395576,-0.13897533996999262
1772536741091262200,6.11126220703125,-0.15813596751391887,-0.8747019366025924,-0.2000529820714146
1772536741101310000,6.12131005859375,-0.26450550743341444,-0.8577139769226312,-0.2563166480198502
1772536741111359200,6.131359130859375,-0.3058575085192919,-0.8427350189775228,-0.32959994742814447
1772536741121408300,6.141408203125,-0.31344752525687214,-0.8379679507061839,-0.3612083339391276
1772536741131457000,6.15145703125,-0.32433599901795385,-0.8337877424120903,-0.40042668399717657
1772536741141505000,6.161505126953125,-0.2545551913052797,-0.842156634567678,-0.38944560004919765
1772536741151554000,6.171553955078125,-0.16556407168805598,-0.8692994930371641,-0.3204377860030159
1772536741161603300,6.181603271484375,-0.16920038236379623,-0.9044503013953566,-0.26007329713962973
1772536741171652000,6.191652099609375,-0.20605682559609412,-0.9540788401782512,-0.1731420326616615
1772536741181700400,6.201700439453125,-0.21377426810562608,-1.0130772648528217,-0.09757142603378742
1772536741191749000,6.2117490234375,-0.14579261876940727,-1.0726292317569255,-0.04454750919155776
1772536741201798100,6.221798095703125,-0.13637246399521827,-1.1188757268860936,0.009823584475927054
1772536741211847200,6.23184716796875,-0.20958383067846298,-1.1712988648235798,0.02440769788455218
1772536741221895200,6.241895263671875,-0.2870768202036619,-1.2205556476846338,0.010963767486996947
1772536741231944200,6.251944091796875,-0.3969359558045864,-1.247198155416548,0.02180895009562373
1772536741241993200,6.2619931640625,-0.5817249524444341,-1.2718150025397539,-0.023504867293313143
1772536741252042000,6.2720419921875,-0.7348843005895614,-1.274436875475943,-0.0770499219328165
1772536741262090200,6.28209033203125,-0.8781775037586689,-1.1979440029039978,-0.15206673060283063
1772536741272139000,6.292138916015625,-1.1092173794418572,-1.0491171310052274,-0.23686332113966344
1772536741282188300,6.302188232421875,-1.3323545191764832,-0.8777493414744735,-0.3058619654987007
1772536741292237000,6.312237060546875,-1.5785007785767315,-0.6364335709705948,-0.3934689007485285
1772536741302285300,6.322285400390625,-1.6613298684328794,-0.3077580814436078,-0.5482458766907453
1772536741312334000,6.332333984375,-1.6469933000445365,0.08399111937284469,-0.7153672608233987
1772536741322383000,6.342383056640625,-1.7488848177671432,0.3141962977975607,-0.6841550340231508
1772536741332432100,6.35243212890625,-1.82214820689857,0.4219888562574982,-0.6513045384965837
1772536741342480100,6.362480224609375,-1.771785800883174,0.5349330983921885,-0.6554046672917903
1772536741352529200,6.372529052734375,-1.6136171001434325,0.6509343900099396,-0.6207708685450255
1772536741362578200,6.382578125,-1.401257375010848,0.7067521388217807,-0.5880932453673332
1772536741372627000,6.392626953125,-1.2465168951541186,0.6243193548068404,-0.40266174957286566
1772536741382675200,6.40267529296875,-1.103186282584071,0.5613882668584584,-0.19871537679210305
1772536741392724000,6.412723876953125,-0.9065987116008997,0.5875722171679139,-0.018766952051222325
1772536741402773200,6.422773193359375,-0.7335071670174598,0.6304796310022472,0.11427373717278241
1772536741412822000,6.432822021484375,-0.69189856082201,0.688782182367146,0.24282434843592343
1772536741422870300,6.442870361328125,-0.650392830479145,0.8136562240093946,0.3576598476773128
1772536741432919000,6.4529189453125,-0.5978723696470261,0.899718012176454,0.4141312380922958
1772536741442967800,6.4629677734375,-0.4654255546629429,0.9956503292337059,0.38934776569791135
1772536741453017000,6.47301708984375,-0.30712533649802204,1.1089552213743328,0.38307811084389687
1772536741463064800,6.48306494140625,-0.2266325806349516,1.2351534973576663,0.3852557106113061
1772536741473114000,6.493114013671875,-0.14104922363460062,1.3061322826832533,0.37350155993159856
1772536741483163000,6.503162841796875,-0.014753917017579077,1.2963053006738423,0.40219471658300604
1772536741493212000,6.5132119140625,0.01969897220432758,1.2580664631724356,0.4574626129597425
1772536741503260000,6.523260009765625,-0.09919920989871024,1.211921967113018,0.5024817217184231
1772536741513309000,6.533308837890625,-0.1780991436123848,1.1755275884345173,0.5135834729040041
1772536741523358200,6.543358154296875,0.05071721080243587,1.1957321720734237,0.5580220418283716
1772536741533407000,6.553406982421875,0.14673895970880985,1.2162503517061471,0.5874286805113778
1772536741543455000,6.563455078125,0.17431494889855384,1.2122767719000578,0.6802100227244198
1772536741553504000,6.57350390625,0.2322124265938997,1.1809513670489191,0.6820752320744097
1772536741563553000,6.583552978515625,0.31611820577085015,1.1293041819199918,0.6728601714182645
1772536741573602000,6.59360205078125,0.32192250813543793,1.0691238539844752,0.6624236061431467
1772536741583650000,6.603650146484375,0.265890239790082,0.9959931513220072,0.6484186808619647
1772536741593699000,6.613698974609375,0.2335726090312004,0.910320654733479,0.5745090297162533
1772536741603748000,6.623748046875,0.2531529232919216,0.8520973060846329,0.5126429771834984
1772536741613796900,6.633796875,0.3432733392000198,0.7556845120340585,0.5222493021795526
1772536741623845000,6.64384521484375,0.38967853202223773,0.628255232951045,0.5684293444763868
1772536741633894000,6.653893798828125,0.42698622615337367,0.5271840917006134,0.6002321941135451
1772536741643943200,6.663943115234375,0.5133148485630751,0.4858481649667024,0.6391311394914985
1772536741653992000,6.673991943359375,0.5591968942940235,0.44189241112321614,0.6812029062192887
1772536741664040200,6.684040283203125,0.5442606064468621,0.350639776314795,0.7246659811750054
1772536741674089000,6.6940888671875,0.6326520066052674,0.30275545085072514,0.7654536263763904
1772536741684138000,6.704137939453125,0.7325736855596303,0.2659101135343313,0.7950308723859488
1772536741694187000,6.71418701171875,0.7478104176580905,0.2181704572379589,0.8070137903202325
1772536741704235000,6.724235107421875,0.6323539004415273,0.19140958382338286,0.817111332899332
1772536741714284000,6.734283935546875,0.6371504870682955,0.12051526191085576,0.7416486070927232
1772536741724333000,6.7443330078125,0.6790127757638692,0.1370132461167872,0.7241540130648761
1772536741734381800,6.7543818359375,0.6697650549471378,0.09887640768513083,0.7131206509403883
1772536741744430000,6.76443017578125,0.5877466969519853,0.04290273765921592,0.6465403928346931
1772536741754478800,6.774478759765625,0.7402963887661695,-0.07298837158232926,0.5636452154723927
1772536741764528000,6.784528076171875,0.7396177588522433,-0.11179156496822833,0.5400353534346446
1772536741774577000,6.794576904296875,0.7551905910372734,-0.14979367110431194,0.5473335476187989
1772536741784625200,6.804625244140625,0.8306535360395908,-0.336092780046165,0.5369075402703136
1772536741794674000,6.814673828125,0.9079144703745842,-0.42630934980511664,0.5585476366050541
1772536741804723000,6.824722900390625,0.8079378463625907,-0.4598297804825008,0.5844639489542692
1772536741814772000,6.83477197265625,0.9012965135395526,-0.5218269485816359,0.5876250798663124
1772536741824820000,6.844820068359375,0.979447090190649,-0.5374800063960253,0.6267685745898633
1772536741834869000,6.854868896484375,0.8679898717433213,-0.5714183702245355,0.6847478853497654
1772536741844918000,6.86491796875,0.9164858993649482,-0.5931152382478118,0.7086511043109
1772536741854966800,6.874966796875,0.9911749373853206,-0.5428242900334298,0.6611983751971274
1772536741865015000,6.88501513671875,0.980015829989314,-0.5861902612902223,0.7220446196954697
1772536741875063800,6.895063720703125,0.7353186003535985,-0.728226157874614,0.7018354329466819
1772536741885113000,6.905113037109375,0.8651753988444805,-0.7325248779818415,0.7243452978532761
1772536741895162000,6.915162109375,0.7523363706499337,-0.6722267688855529,0.6504645074758678
1772536741905210000,6.925210205078125,0.7703840685158968,-0.6869160962343216,0.6024430385634303
1772536741915259000,6.9352587890625,0.637147564458847,-0.7822143531717359,0.5155051251489668
1772536741925308000,6.945307861328125,0.6009428631335496,-0.789276108251512,0.6519355298765003
1772536741935357200,6.955357177734375,0.4718412669241428,-0.8188397641271352,0.620779344112426
1772536741945405000,6.965405029296875,0.2101969941407442,-0.8013302647911011,0.6361179291501641
1772536741955454200,6.9754541015625,0.0020867431461811066,-0.8209595327600836,0.6367426369197666
1772536741965503000,6.9855029296875,-0.014438859719038008,-0.7726186957001686,0.5820234969995915
1772536741975552000,6.995552001953125,-0.016335633251070975,-0.6790706434309483,0.5391834493130445
1772536741985600000,7.00560009765625,-0.2088853270202875,-0.627311522360146,0.5157428794275969
1772536741995649000,7.01564892578125,-0.41173780361711976,-0.5953580487385391,0.47749680846780534
1772536742005698000,7.025697998046875,-0.5198620782494545,-0.4939227503508329,0.380625822320953
1772536742015747000,7.0357470703125,-0.6562462326824665,-0.3391875311911106,0.2524791887488216
1772536742025795000,7.045795166015625,-0.66858607429564,-0.2720677593812346,0.07821640842892229
1772536742035844000,7.055843994140625,-0.6049661273002624,-0.13558832788020372,-0.07094685581736267
1772536742045892900,7.065892822265625,-0.5988882686913013,0.016480886940658093,-0.20999394584931433
1772536742055942100,7.075942138671875,-0.5638181243538856,0.09292933584898709,-0.3029346068099141
1772536742065990000,7.085989990234375,-0.4293775052040815,-0.0016056816309690475,-0.2360845187868923
1772536742076039200,7.0960390625,-0.312640300527215,-0.20597528479248284,-0.11420107379537076
1772536742086088000,7.106087890625,-0.36963878355622287,-0.38904315672814843,0.01786762859132141
1772536742096137000,7.116136962890625,-0.8027671657264233,-0.5537395056709646,0.1835525867126882
1772536742106185000,7.12618505859375,-1.11618721845448,-0.6168368900969624,0.10231430971194058
1772536742116234000,7.13623388671875,-0.8865893582731484,-0.6708525579228997,0.04535659708473831
1772536742126283000,7.146282958984375,-0.8695528832763433,-0.543076657359302,-0.10619790967963635
1772536742136332000,7.15633203125,-0.9828606980264186,-0.2895812042400241,-0.3046453562505543
1772536742146380000,7.166380126953125,-0.855918325677514,0.08854074550122022,-0.4632788249578327
1772536742156429000,7.176428955078125,-0.6695791769862175,0.37474867391586303,-0.6500329111255705
1772536742166477800,7.186477783203125,-0.45849312505125994,0.5596253488391637,-0.7158426232501864
1772536742176527000,7.196527099609375,-0.22710487432181833,0.8014969996601343,-0.7365829942662269
1772536742186574800,7.206574951171875,0.08731704892516136,0.9908005511149763,-0.7117882332928478
1772536742196624100,7.2166240234375,0.33058979871571065,1.024628586436808,-0.5754314417907967
1772536742206673000,7.2266728515625,0.4853513213604688,0.9978756040677428,-0.4311605892285704
1772536742216722000,7.236721923828125,0.6147790807843208,0.9787760590612887,-0.25169614861235023
1772536742226770000,7.24677001953125,0.6685176852345466,0.9132786277562379,-0.0630437910752371
1772536742236819000,7.25681884765625,0.5649041660249233,0.8176105145931244,0.05129694691915065
1772536742246868000,7.266867919921875,0.4759691605091095,0.6971306162565947,0.10861753804199396
1772536742256917000,7.2769169921875,0.3542003914058208,0.6934843687087296,0.01812733897343278
1772536742266965000,7.286965087890625,0.31143910804390906,0.7336749247997999,-0.09728303754646331
1772536742277014000,7.297013916015625,0.2355593989342451,0.7377846982061862,-0.2204942240104079
1772536742287062800,7.307062744140625,0.17915888179838657,0.7145739184886216,-0.3059562927186489
1772536742297112000,7.317112060546875,0.04092763819396496,0.6462398024529218,-0.30306057127714153
1772536742307159800,7.327159912109375,-0.13406652514040468,0.5168403923407197,-0.255831714047119
1772536742317209000,7.337208984375,-0.24468553919792174,0.38937925681471824,-0.1403442902356386
1772536742327258000,7.347258056640625,-0.3270563638925552,0.290014042699337,-0.030070582484453916
1772536742337307000,7.357306884765625,-0.3264046219855547,0.24207243409007786,0.017288915387913585
1772536742347355000,7.36735498046875,-0.23957974049150943,0.26250322770029305,0.03595427022818476
1772536742357404000,7.37740380859375,-0.08680033157467841,0.3472428273528814,0.02462371525540948
1772536742367453200,7.387453125,-0.03818856861889362,0.4448120979622006,0.042749300663173194
1772536742377502000,7.397501953125,-0.0875982039541006,0.4729401680767536,0.021090353497490284
1772536742387550000,7.407550048828125,0.0824485661059618,0.5395584201052784,0.01384721396882087
1772536742397599000,7.417598876953125,0.13077742046713828,0.5709320480123162,-0.0032662717869505285
1772536742407648000,7.42764794921875,0.05323474658131599,0.5141007382437587,-0.019128953764028848
1772536742417697000,7.437697021484375,0.13325345519185067,0.4969640177428722,-0.05779657460413873
1772536742427745000,7.4477451171875,0.2073293297499418,0.45349575515538454,-0.10612893609665333
1772536742437794600,7.457794677734375,0.3122264590293169,0.3703942780986428,-0.1234433512520045
1772536742447843600,7.467843505859375,0.3681581896096468,0.2783803035289049,-0.11570895760767161
1772536742457892600,7.477892578125,0.4121843783408403,0.19559446829259394,-0.0852563535356894
1772536742467940600,7.487940673828125,0.49814358291625976,0.1397629832163453,-0.11290032992772757
1772536742477989600,7.49798974609375,0.510739445117116,0.0695388156503439,-0.09014080110900104
1772536742488038700,7.50803857421875,0.5488391664087772,0.0029845687687397003,-0.09696531336680055
1772536742498087700,7.518087646484375,0.6194295369386673,-0.038429683898389334,-0.14135167717989533
1772536742508135700,7.5281357421875,0.7419470785826444,-0.15125643713325262,-0.10459264817377552
1772536742518184700,7.538184814453125,0.8404641514360904,-0.1237222412586212,-0.023428367991000412
1772536742528233500,7.5482333984375,0.8555459852337837,-0.10720131456851958,-0.13320915939239783
1772536742538282800,7.55828271484375,0.959510217577219,-0.07837006462067365,-0.12845067628631368
1772536742548330500,7.56833056640625,1.0500257702827454,-0.041161446949839586,-0.12029825815930961
1772536742558379800,7.5783798828125,1.0278875882327556,-0.015109014065563678,-0.14400014586206525
1772536742568428500,7.588428466796875,1.1939964343219995,-0.048072249251604075,-0.14406310982936993
1772536742578477600,7.5984775390625,1.2654337770700455,-0.07435381471663713,-0.12739538594656624
1772536742588525600,7.608525634765625,1.2805816618412733,-0.17610533944666384,-0.1737543193411082
1772536742598574600,7.61857470703125,1.349869133079052,-0.14557663793116807,-0.19276198481302706
1772536742608623600,7.62862353515625,1.2799848649919032,-0.20512275961637497,-0.17318347891690208
1772536742618672600,7.638672607421875,1.2240075417041778,-0.3189771023333072,-0.10248577555501832
1772536742628720600,7.648720703125,1.2087947750031947,-0.3757254099935293,-0.12129678594367578
1772536742638769700,7.658769775390625,1.1835200484931467,-0.44629152286499735,-0.1524751196074765
1772536742648818400,7.668818359375,1.0844640464574098,-0.484793395216763,-0.22756352307582273
1772536742658867700,7.67886767578125,1.0188426965117454,-0.43193624977618456,-0.34574835101142526
1772536742668915500,7.68891552734375,1.049684994021058,-0.34035949757993217,-0.4603652755986899
1772536742678964700,7.69896484375,0.886646056896448,-0.375716642165184,-0.5262732604660093
1772536742689013500,7.709013427734375,0.919296865132451,-0.3731599434196949,-0.4663614838061854
1772536742699062500,7.7190625,1.0577285997450352,-0.40653059036284683,-0.4595002927998081
1772536742709110500,7.729110595703125,0.9970698406428098,-0.4832563949078321,-0.4033082673154771
1772536742719159600,7.73915966796875,0.8079664879351854,-0.5458876231268048,-0.2301843548323959
1772536742729208600,7.74920849609375,0.6148468853235244,-0.5962605505362153,-0.1538771410256624
1772536742739257600,7.759257568359375,0.561187775850296,-0.6310258667081594,-0.23830968402307479
1772536742749305600,7.7693056640625,0.7196265257030725,-0.6328343774348497,-0.2568861184708774
1772536742759354600,7.779354736328125,0.6878449015170336,-0.6238742413878441,-0.15514480460761115
1772536742769403600,7.789403564453125,0.5955284368693828,-0.6461307891204953,-0.12984059627475217
1772536742779452700,7.79945263671875,0.41370822690725323,-0.716251788572967,-0.15661200934965164
1772536742789500400,7.80950048828125,0.1748345888584852,-0.7973644299000501,-0.12470402797074057
1772536742799549700,7.8195498046875,0.16274200000464914,-0.7058893845126032,0.009679961054422892
1772536742809598700,7.8295986328125,0.3826911573529243,-0.7634992774382233,-0.22183584787771105
1772536742819647500,7.8396474609375,0.47916357263624665,-0.7558823726937174,-0.286724737096671
1772536742829695500,7.849695556640625,0.13481295959353445,-0.7203317513629793,-0.12910859220577403
1772536742839744500,7.85974462890625,-0.0050040918976068495,-0.8388149229243397,-0.020899895259574985
1772536742849793800,7.869793701171875,-0.05915419975817203,-0.9680524204730987,-0.0006913558231142814
1772536742859842600,7.879842529296875,-0.26257483163177964,-0.982181191329658,0.10148587779747321
1772536742869890800,7.889890869140625,-0.5046335294574499,-1.029145771600306,0.2094001264083199
1772536742879939600,7.899939697265625,-0.8120639863818884,-1.07884065361768,0.19183226621486246
1772536742889988600,7.909988525390625,-1.2050129183769225,-1.0130120906621216,0.111357365668891
1772536742900036600,7.92003662109375,-1.5669301677703857,-0.8631254805773496,0.08989265330052003
1772536742910085600,7.930085693359375,-2.056988059386611,-0.5890311838045716,0.09413496704539284
1772536742920134700,7.940134765625,-2.2293881145745513,-0.2642085703134537,-0.0616428839019034
1772536742930183700,7.95018359375,-2.2031524340778588,0.32595483239144085,-0.16810012950431555
1772536742940231700,7.960231689453125,-2.0640046601504087,0.797614605268836,-0.292560293116048
1772536742950280700,7.97028076171875,-1.4226111286848782,1.1365449468284845,-0.6752185711126775
1772536742960329500,7.98032958984375,-0.9330927507728338,1.2637979925617575,-0.6445084486156701
1772536742970378800,7.990378662109375,-0.23470775054097173,1.0787488836809993,-0.6634602557145058
1772536742980426500,8.000426513671876,0.051014732444286344,1.0411050894632934,-0.5351586873089894
1772536742990475800,8.010475830078125,-0.4078501485288143,1.0359668497920036,-0.036196782880323006
1772536743000524500,8.020524658203126,-1.3951175570815801,0.5978790916487574,0.5398995616931468
1772536743010573600,8.030573486328125,-1.944557611992955,0.23473756115734576,0.7116974862694739
1772536743020621600,8.04062158203125,-1.7010387784868477,0.3730827865302562,0.6839733207806944
1772536743030670600,8.050670654296875,-1.5557248831450938,0.5721253494501114,0.5081056625474244
1772536743040719600,8.0607197265625,-1.6465116540074347,0.6082552319735288,0.3679990535251796
1772536743050768600,8.0707685546875,-1.7084850028395653,0.7078232751846313,0.22039545807735994
1772536743060816600,8.080816650390625,-1.7172709513634443,0.8269394839525223,0.1457292164106853
1772536743070865700,8.09086572265625,-1.5724346104055642,0.8207152026101946,-0.00761668554879725
1772536743080914400,8.10091455078125,-1.4560329212933778,0.9199626355648041,0.057994837122596794
1772536743090963700,8.110963623046874,-1.3464403276741503,0.8609922679409384,0.16597093545589595
1772536743101011500,8.121011474609375,-1.2197644973069428,0.751297090730071,0.2601103777470067
1772536743111060700,8.131060791015624,-0.9974527024805545,0.7092796114727854,0.30761596955917775
1772536743121109500,8.141109619140625,-0.6542530130386353,0.6376537604153156,0.3777297720858827
1772536743131158500,8.151158447265624,-0.3462807043224573,0.581786911764741,0.44673568643592293
1772536743141206500,8.16120654296875,-0.010394552764296532,0.5264864648252725,0.47159543893691147
1772536743151255600,8.171255615234376,0.29359190118610856,0.47793753797262906,0.5654245731698349
1772536743161304600,8.1813046875,0.6116770231157541,0.3590682897031307,0.5516138187538832
1772536743171353600,8.191353515625,0.8638257378011941,0.32562603882849217,0.6801417797937989
1772536743181401600,8.201401611328125,0.938099765279889,0.16794950551986693,0.7380635151475667
1772536743191450600,8.21145068359375,1.200981470903754,0.024690789142251014,0.6261821530040353
1772536743201499400,8.22149951171875,1.4045289440274238,-0.09464870698750019,0.6521531912151723
1772536743211548700,8.231548583984376,1.1618921540528535,-0.09310849180817604,0.7764079319152981
1772536743221596400,8.241596435546874,1.0753817453354597,-0.3433440663486719,0.7591494847308844
1772536743231645700,8.251645751953125,1.0405196907907723,-0.4144356643989682,0.733822297381237
1772536743241694700,8.26169482421875,0.8414069852441549,-0.43754210695922374,0.7742652938634157
1772536743251743500,8.271743408203125,0.6753823103070259,-0.5112926950857043,0.7761758767250925
1772536743261791500,8.28179150390625,0.5896399633526802,-0.48654842219054695,0.6333467839363962
1772536743271840500,8.291840576171875,0.5657265883237124,-0.3903475173249841,0.4605862248729914
1772536743281889800,8.301889892578124,0.5007213244497776,-0.3566325869888067,0.35784378940947353
1772536743291937500,8.3119375,0.3720329852163791,-0.39883214481472967,0.3419822034109384
1772536743301986800,8.32198681640625,0.24793431186079978,-0.3639721360966563,0.3031433541897684
1772536743312035600,8.33203564453125,0.2239472870737314,-0.37510201739817856,0.24080909962337463
1772536743322084600,8.342084716796874,0.2744242593795061,-0.3480632038250565,0.19445992957102134
1772536743332132600,8.352132568359375,0.23602760096788405,-0.3695966979801655,0.22304655710803342
1772536743342181600,8.362181640625,0.14644786780774594,-0.4921653852894902,0.33675628545619546
1772536743352230700,8.372230712890625,0.09626257192492485,-0.5841434117630123,0.4278738226428628
1772536743362279700,8.38227978515625,0.009266425517201422,-0.6612921178951859,0.4588193613309413
1772536743372327700,8.39232763671875,-0.09069616996943951,-0.7135086273446679,0.5069558349251747
1772536743382376700,8.402376708984375,-0.3125140437990427,-0.7457870951369404,0.5509630266949535
1772536743392425500,8.412425537109375,-0.5349222847372294,-0.7373308169588446,0.4762817335896194
1772536743402474800,8.422474853515626,-0.6782096426874399,-0.63000850635916,0.3829690244462341
1772536743412522500,8.4325224609375,-0.8150444634974002,-0.47368718705177304,0.21855887203365562
1772536743422571800,8.44257177734375,-0.9751865101367234,-0.3594455985829234,0.0612214527525939
1772536743432620500,8.45262060546875,-1.093257009243965,-0.3075938307926059,0.03894461115058511
1772536743442668500,8.46266845703125,-1.0984972479850053,-0.3584621405035257,0.034358087077923115
1772536743452716300,8.47271630859375,-1.2519342440277337,-0.3438765657901764,-0.02196015860196203
1772536743462765600,8.482765625,-1.5774416249126195,-0.13123276301920414,-0.16562659726394338
1772536743472814600,8.492814697265626,-1.7316420065432785,0.09402209952175616,-0.31476079981252547
1772536743482863400,8.50286328125,-1.5675187813133,0.24807781198471784,-0.4618977823955938
1772536743492911400,8.512911376953125,-1.2851222278803587,0.3644046822950244,-0.5524081474693492
1772536743502960400,8.52296044921875,-0.9513479539096354,0.4084253180682659,-0.6742145817019045
1772536743513009700,8.533009765625,-0.8429337564200162,0.544678831858933,-0.6513955777809024
1772536743523058400,8.543058349609375,-0.8135627005070447,0.48845630163848397,-0.6066496234077959
1772536743533106700,8.553106689453125,-0.6932043827235699,0.3575330429598689,-0.422105906765908
1772536743543155500,8.563155517578124,-0.7198387071490288,0.17723960417360066,-0.29749820617595685
1772536743553204500,8.57320458984375,-0.6340677186220884,0.09736877960115671,-0.2250102949290536
1772536743563253500,8.58325341796875,-0.7167974397569894,0.07612900769561529,-0.20195262341396883
1772536743573301500,8.593301513671875,-0.6934551426142453,0.015944295845925806,-0.3396060853967443
1772536743583350500,8.6033505859375,-0.6356856752127409,0.10422171423584223,-0.49294952140450476
1772536743593399600,8.613399658203125,-0.6364116513997315,0.2788271705135703,-0.6870321968946606
1772536743603447600,8.623447509765626,-0.5005477214485407,0.3917942090019583,-0.9878677125334739
1772536743613496600,8.63349658203125,-0.36619887223541736,0.5326715832009912,-1.1349079932764172
1772536743623545300,8.64354541015625,-0.17433482264280317,0.5869637298807502,-1.195568944335729
1772536743633594600,8.6535947265625,0.05752864438295364,0.5448623717322946,-1.1954978518608956
1772536743643642400,8.663642333984376,0.22694997602105138,0.5317880783647299,-1.1295990001481027
1772536743653691600,8.673691650390625,0.33438509934544564,0.45223084978610273,-1.0434617355920375
1772536743663740400,8.683740478515626,0.37665538432002066,0.3808776781901717,-0.9763760852474719
1772536743673789400,8.69378955078125,0.3955459627509117,0.34469928034991026,-0.9581809417348355
1772536743683837400,8.70383740234375,0.31551731726825233,0.38289778584092854,-0.9043355159092694
1772536743693886500,8.713886474609374,0.3725397656947374,0.3585065641671419,-0.9964905794501304
1772536743703935500,8.723935546875,0.5343552985042334,0.3555617428869009,-1.067198292749375
1772536743713984500,8.733984619140625,0.5227098688960075,0.33659020817428825,-1.097732620288059
1772536743724032500,8.744032470703125,0.4416331756651401,0.26265169626027346,-1.0951123547870665
1772536743734081500,8.75408154296875,0.3867822260588407,0.19074089078158138,-1.067071743760258
1772536743744130300,8.76413037109375,0.29236849687099453,0.1156225214332342,-1.0642558095566927
1772536743754179600,8.7741796875,0.3131312989145517,0.058093584789335725,-1.0752187367934734
1772536743764227300,8.784227294921875,0.40088557021319865,0.03299772197753191,-1.0582318730920552
1772536743774276600,8.794276611328126,0.4982341838091612,-0.0054065352186560625,-1.0838874886784702
1772536743784325400,8.804325439453125,0.518626398974657,-0.03314005305767059,-0.9973378439292311
1772536743794374400,8.81437451171875,0.5591378575831651,-0.08728460796028376,-0.9176965903289616
1772536743804422400,8.82442236328125,0.6635995180547237,-0.15294190600216387,-0.8698824805568903
1772536743814471400,8.834471435546876,0.7237345455437898,-0.21322920144349336,-0.8312203761421143
1772536743824520400,8.8445205078125,0.680460636484623,-0.2725733708158135,-0.7739038401398808
1772536743834568400,8.854568359375,0.6531593725830316,-0.34478491280674933,-0.7202665771722793
1772536743844617500,8.864617431640625,0.6918710882931948,-0.38961569591909645,-0.6728861095771194
1772536743854666500,8.87466650390625,0.6896557503312826,-0.433671695266664,-0.6489684967644512
1772536743864715300,8.88471533203125,0.7185147650688887,-0.49775546038150786,-0.6603746377240866
1772536743874763500,8.894763427734375,0.7725549828141928,-0.5613058492720127,-0.6488973312243819
1772536743884812300,8.904812255859374,0.7861351798772811,-0.6238561212092638,-0.6485624732468277
1772536743894861600,8.914861572265625,0.8018857067167758,-0.7230921559870243,-0.5927973314050584
1772536743904910600,8.92491064453125,0.8267103513717651,-0.8340168749928474,-0.5371300239145755
1772536743914958600,8.93495849609375,0.8058183699905872,-0.9012611499652265,-0.49211778328809885
1772536743925007400,8.94500732421875,0.7865192107588053,-0.9252636645823716,-0.4773344575129449
1772536743935056400,8.955056396484375,0.8316916469156742,-0.9926444254159926,-0.4405204651828855
1772536743945105700,8.965105712890624,0.7892880909502505,-1.0531395183891057,-0.406684173489362
1772536743955153400,8.9751533203125,0.7155576688289642,-1.1083607626125216,-0.39358050789684057
1772536743965202700,8.98520263671875,0.7038011800616979,-1.1693956615507601,-0.3754252580031752
1772536743975251500,8.99525146484375,0.6824509335190058,-1.2436509843289851,-0.36662893421575427
1772536743985300500,9.005300537109376,0.70750880240798,-1.3093985910028219,-0.39747981689032164
1772536743995348500,9.015348388671875,0.6263070214927197,-1.3144269405588507,-0.4255108929038047
1772536744005397500,9.0253974609375,0.506397616520524,-1.3266370183125138,-0.4351237207058817
1772536744015446500,9.035446533203125,0.5197328989118337,-1.333447575110197,-0.4307201519846916
1772536744025495600,9.04549560546875,0.4628986665338278,-1.30204442884773,-0.40248851189780976
1772536744035543600,9.05554345703125,0.3567769638955593,-1.2964309728801249,-0.3806114284694195
1772536744045592600,9.065592529296875,0.283538709205389,-1.2368182156994938,-0.42954866051990537
1772536744055641300,9.075641357421874,0.25276421623528,-1.1328110209971665,-0.5280660986995325
1772536744065690600,9.085690673828125,0.13840250851809976,-1.084426344795525,-0.5730743572706356
1772536744075738400,9.09573828125,0.06763853498697281,-1.0721358952820301,-0.547902323950082
1772536744085787600,9.10578759765625,0.01339315005838871,-1.0703551493450998,-0.5387303352506831
1772536744095836400,9.11583642578125,-0.09472820196449756,-1.0576464744195342,-0.5200649804104119
1772536744105884700,9.125884765625,-0.17818740641772746,-1.0425558727934956,-0.4960494601812213
1772536744115933400,9.135933349609376,-0.306135156416893,-0.970873615373671,-0.5154184697788209
1772536744125982500,9.145982421875,-0.45486908933520315,-0.8818138144344091,-0.5480099490430206
1772536744136031500,9.156031494140626,-0.5221019661307335,-0.8728840735256671,-0.48021607736386357
1772536744146079500,9.16607958984375,-0.492458523017168,-0.9913821503952145,-0.3790000842826441
1772536744156128500,9.17612841796875,-0.7024117715299129,-1.0373419375374913,-0.3364433470495045
1772536744166177500,9.186177490234375,-1.002951884418726,-0.9531877365574241,-0.3121709294497967
1772536744176226300,9.196226318359376,-1.1234604243278503,-0.7953817316502332,-0.3651757032001391
1772536744186274600,9.206274658203125,-1.1818904014647007,-0.5677741685032844,-0.5396583368157968
1772536744196323300,9.2163232421875,-1.3209253626674413,-0.2725549583762884,-0.6936449660979211
1772536744206372600,9.22637255859375,-1.451936591890454,0.0911059198141098,-0.8356050209671259
1772536744216421400,9.23642138671875,-1.456310569190979,0.47614451707601546,-1.0278805739700794
1772536744226469600,9.2464697265625,-1.2188964823007582,0.8887053275138139,-1.2170996620118617
1772536744236518400,9.256518310546875,-0.9517097729593514,1.1207558415442704,-1.2360292572788893
1772536744246567400,9.2665673828125,-0.5085054024547339,1.2049570965364576,-1.4497126322306693
1772536744256616400,9.276616455078125,-0.20992928311526773,1.431731715990603,-1.4030872207865117
1772536744266664400,9.28666455078125,-0.06844985136985779,1.4173551078528166,-1.3104790797159076
1772536744276713500,9.29671337890625,0.07388765850961208,1.17406803727597,-1.1944257656499744
1772536744286762500,9.306762451171876,0.32068449077308175,0.9461667518794536,-0.9926076005369424
1772536744296810500,9.316810546875,0.3519306929081678,0.8124030090779065,-0.6879588832855225
1772536744306859500,9.326859619140626,0.30158056185245513,0.6322688525065779,-0.5111847046665847
1772536744316908300,9.336908203125,0.22526187680363655,0.4799529694482684,-0.42713451205026354
1772536744326957600,9.34695751953125,0.2188333050608635,0.5121107334703207,-0.5438412119910121
1772536744337005300,9.35700537109375,0.3218523655086756,0.5425327597409486,-0.5571188824435696
1772536744347054600,9.3670546875,0.24013445176482198,0.5217024454191327,-0.5521893536195158
1772536744357103400,9.377103271484375,0.03880757730007171,0.5307040825203061,-0.5887133134944365
1772536744367151600,9.387151611328125,-0.06171732824444771,0.5352092849850655,-0.6046427770974114
1772536744377200400,9.397200439453124,-0.12908522959649563,0.5239855879202485,-0.5969996419331058
1772536744387249400,9.40724951171875,-0.24166999076902865,0.48107671278119085,-0.5733326428806409
1772536744397298400,9.41729833984375,-0.39059038617014885,0.4540399450346827,-0.6003445319142192
1772536744407346400,9.427346435546875,-0.4317664461672306,0.5028302794277668,-0.6989895419962704
1772536744417395500,9.4373955078125,-0.5017933375954627,0.560688009634614,-0.6626502545058727
1772536744427444500,9.447444580078125,-0.6320639775842428,0.5786266941681504,-0.6464754378397017
1772536744437493500,9.457493408203124,-0.605433160290122,0.5883528461515903,-0.7041976320333778
1772536744447542300,9.467542236328125,-0.45707215233743187,0.6593292933896183,-0.74075472699292
1772536744457591300,9.47759130859375,-0.4243991322696209,0.7213178397908806,-0.7183141279302537
1772536744467640000,9.48764013671875,-0.4335550831496715,0.7197682722613215,-0.6710683926306664
1772536744477689300,9.497689453125,-0.19319675950109957,0.6602449469298124,-0.6908353885699063
1772536744487737000,9.507737060546875,0.016097148320078847,0.6470043570846319,-0.5859334735175594
1772536744497786400,9.517786376953126,0.09432721994817256,0.5622957370921969,-0.41126777495257555
1772536744507835100,9.527835205078125,0.21483108368217943,0.4296943160682916,-0.30505861322656275
1772536744517883400,9.53788330078125,0.4163292230606079,0.35735739413201806,-0.20997184361536056
1772536744527932200,9.54793212890625,0.5799836617350578,0.2844222140416503,-0.10993037420623004
1772536744537981200,9.557981201171875,0.6589665975570679,0.20138561891466378,-0.08267353396825491
1772536744548030200,9.5680302734375,0.757349230375886,0.14976736761927603,-0.07250533730573952
1772536744558078200,9.578078125,0.7725298483729363,0.13159662789553403,-0.03589691401775926
1772536744568127200,9.588127197265624,0.7126923425257206,0.06336801806092261,-0.055051111820898946
1772536744578176300,9.59817626953125,0.7210416531980037,0.0520905449822545,-0.08900734009966253
1772536744588225000,9.60822509765625,0.7256956164836883,0.03682897070348263,-0.029520291657932102
1772536744598273300,9.618273193359375,0.7039326974868774,0.005128010538220405,-0.06338043915107845
1772536744608322000,9.628322021484376,0.5980389583855867,-0.050881461453437804,-0.06714505238160491
1772536744618371300,9.638371337890625,0.4767641102790832,-0.08283464281409979,0.07630988068785519
1772536744628420000,9.648420166015624,0.5956394960284233,-0.12142097857892513,0.07628007007148116
1772536744638468400,9.65846826171875,0.7167138531267643,-0.1760699758723378,0.11828118271585553
1772536744648517000,9.66851708984375,0.9564204348683357,-0.1995420368745923,0.03288936623223126
1772536744658566100,9.678566162109375,1.041439728245139,-0.18477263002693653,0.0643960094017908
1772536744668615200,9.688615234375,0.337821503534913,-0.13535422686338425,0.38595534678064286
1772536744678663200,9.6986630859375,0.10239420654773712,-0.4557087550297379,0.42177101225573566
1772536744688712200,9.708712158203125,0.3619166648715734,-0.4860916183337569,0.4532236602157354
1772536744698761200,9.71876123046875,0.3513584459781647,-0.3495306460291147,0.42038576844241465
1772536744708809200,9.728809326171875,0.13220657648742198,-0.36805735958367586,0.44731334019340574
1772536744718858200,9.738858154296874,-0.12702245184779165,-0.3708189332515001,0.501016398406215
1772536744728907000,9.748906982421875,-0.33794366860985753,-0.309710384555161,0.5014887286256998
1772536744738956300,9.758956298828124,-0.2686246331900358,-0.1995610338360071,0.3368073580563068
