time,seconds_elapsed,z,y,x
1772536278900618800,0.10261865234375,-0.035514380973577495,0.04473214504346251,-0.017124591671675442
1772536278910667800,0.112667724609375,-0.11493044751584529,0.03069682462401688,-0.011777568087913096
1772536278920715800,0.1227158203125,-0.06680968294739723,0.044185178685188294,-0.02787416841872036
1772536278930763800,0.132763671875,0.006726093384623527,0.10141133299022913,0.01838657443150878
1772536278940812800,0.142812744140625,0.036599838122725485,0.16589016183726488,0.1292545217487961
1772536278950860300,0.1528603515625,0.0591816722869873,0.1683225766159594,0.19992040520031004
1772536278960908300,0.162908203125,0.06866203281581401,0.12223061446137726,0.20115834949743003
1772536278970957300,0.172957275390625,0.07487316241562365,0.09467274545021355,0.19549714539796112
1772536278981005300,0.18300537109375,0.07684183214008808,0.09592961364351213,0.1670649047050625
1772536278991054300,0.193054443359375,0.08309212470650672,0.12360080683603882,0.11916932719461619
1772536279001102300,0.203102294921875,0.17476678431928155,0.16926731012016533,0.07747969165220857
1772536279011150000,0.213150146484375,0.16863748778402804,0.15968736167438327,0.10341474523451179
1772536279021199000,0.22319921875,0.013970073163509369,0.08422850832529366,0.14175430316403506
1772536279031247000,0.2332470703125,-0.07228840661942959,0.008515314888954162,0.07693659775145352
1772536279041296100,0.243296142578125,-0.025118074643611907,0.03130480045452714,0.027118144153337922
1772536279051344100,0.25334423828125,-0.02580021168887615,0.07866334847882389,0.039421179153770206
1772536279061392400,0.263392333984375,-0.07006020917594433,0.06888305515535176,0.022846476449817417
1772536279071441200,0.273441162109375,-0.1446194833368063,-0.008073416340351105,-0.04632398081216961
1772536279081489400,0.283489501953125,-0.19807868632376194,-0.08276135838218032,-0.09824506924534215
1772536279091538200,0.2935380859375,-0.14528408472537993,-0.09792626735344528,-0.08348331598117947
1772536279101586400,0.30358642578125,-0.05352233135104179,-0.10674597201645374,-0.025467892728280275
1772536279111634200,0.31363427734375,-0.0407166257917881,-0.1356198189970106,0.000046962680574506516
1772536279121683200,0.32368310546875,-0.06807751092612743,-0.17394779608659444,-0.0375619246205315
1772536279131731200,0.333731201171875,-0.08992752368450165,-0.17176102663204074,-0.07387353865271434
1772536279141780200,0.3437802734375,-0.08707096520960331,-0.1396684368006885,-0.10123860677182674
1772536279151828200,0.353828125,-0.10247428604662417,-0.09699227443896233,-0.053164110764209176
1772536279161876200,0.363876220703125,-0.18537585661709308,-0.044371348907053465,0.01580828490871936
1772536279171925200,0.37392529296875,-0.12334697820544242,-0.024835458309948443,-0.06647504416555165
1772536279181973200,0.38397314453125,0.0178290866792202,-0.004561681892350316,-0.08601786682694218
1772536279192022300,0.394022216796875,0.0503846178472042,0.014317644492164253,-0.10095486706015654
1772536279202070300,0.4040703125,0.04354746530354023,0.0203816207062453,-0.07880296701206825
1772536279212118300,0.4141181640625,-0.030721886000037193,-0.01285970076881349,0.008557126470375806
1772536279222167300,0.424167236328125,-0.10279401952028273,-0.04060176724046469,0.0769953696008306
1772536279232215000,0.434215087890625,-0.10910744045078753,-0.002581687056273222,0.08172940325224771
1772536279242264300,0.444264404296875,-0.061109425479173654,0.015554565875977276,0.040581884363060816
1772536279252312000,0.45431201171875,-0.006565934386849403,0.011926511571928857,-0.053614073888259006
1772536279262360300,0.4643603515625,0.04998538939654827,0.005625219470635056,-0.1302176128936
1772536279272409000,0.4744091796875,0.021004209583997725,-0.016401318898424506,-0.1424162650709506
1772536279282457000,0.48445703125,0.007243395256996154,-0.05944046935364604,-0.12647517496226354
1772536279292506000,0.494506103515625,0.03504033372104168,-0.1005376188956201,-0.07373621254125609
1772536279302554000,0.50455419921875,0.0035790275305509567,-0.13186185470297931,-0.04689457464120351
1772536279312602400,0.514602294921875,-0.02752221317589283,-0.14867898786067962,-0.06454203940951266
1772536279322651100,0.524651123046875,-0.034434769043326374,-0.17703282955512403,-0.062059885471267624
1772536279332699400,0.534699462890625,-0.011605097597837448,-0.17491927146725356,-0.06493591583161615
1772536279342748200,0.544748046875,-0.0072188453376293175,-0.16038652291968464,-0.05685397825809195
1772536279352796400,0.55479638671875,0.008473813834786414,-0.13559592666476963,-0.022619946818100287
1772536279362844200,0.56484423828125,-0.015598551148176192,-0.11149828111007809,-0.0017025661341845987
1772536279372893400,0.5748935546875,-0.043076925182342525,-0.09404000050462782,-0.011527191789727657
1772536279382941200,0.584941162109375,-0.012926117068529128,-0.0546349322354421,-0.048053005695017054
1772536279392990500,0.594990478515625,0.05013093534708023,-0.012606931584142148,-0.061920266938023265
1772536279403038200,0.6050380859375,0.050965048083662985,-0.00483991431184113,-0.052953573286067694
1772536279413086200,0.615086181640625,-0.018823358413577077,-0.01667381569687277,-0.017780215169349686
1772536279423135200,0.62513525390625,-0.027875264397263524,-0.010255582685023546,0.03508634655354544
1772536279433183200,0.635183349609375,-0.016320435681939124,0.015190920195356011,0.0396599654788617
1772536279443232300,0.645232177734375,-0.05909691661298275,0.027840960268862545,0.012301856823498382
1772536279453280300,0.6552802734375,-0.04287935678362846,0.012241130479052661,-0.024882612786768003
1772536279463328000,0.665327880859375,-0.0034141923576593396,-0.0038094022203236815,-0.00007069974918849765
1772536279473377300,0.675377197265625,-0.03641980538070202,-0.036614597300440074,0.05676822707024402
1772536279483425000,0.685425048828125,-0.054853287693858145,-0.06521247688382864,0.07050932291662321
1772536279493474300,0.695474365234375,0.01734627159833908,-0.0552458672080189,0.030458225528593175
1772536279503522000,0.70552197265625,0.0649023880213499,-0.014419643561914563,-0.029007990187662654
1772536279513570300,0.7155703125,0.03375730817317962,0.028814189215190706,-0.03880662288542371
1772536279523619000,0.725619140625,0.013852584263682365,0.002226151616871357,-0.028444670916208996
1772536279533667300,0.735667236328125,-0.04924947633743286,-0.056661981083638964,-0.014813853344158268
1772536279543716000,0.745716064453125,-0.09672551326155662,-0.09614650779720395,0.028709139671828598
1772536279553764400,0.755764404296875,-0.12930150269567967,-0.12756901634726672,0.05857739538406022
1772536279563812400,0.765812255859375,-0.12080430798530578,-0.13646218810528515,0.06329012138596736
1772536279573861000,0.775861083984375,-0.10041852256059645,-0.1330423331918195,0.06141646386804059
1772536279583909400,0.785909423828125,-0.11434417206048965,-0.10860252313595264,0.0586760608524084
1772536279593958100,0.795958251953125,-0.14888123243451118,-0.10257281451765447,0.05782887857169844
1772536279604006400,0.80600634765625,-0.16836626962721346,-0.11193433443978427,0.05293408313430845
1772536279614054100,0.81605419921875,-0.1472714591503143,-0.10186590835731477,0.020667451910302042
1772536279624103400,0.826103515625,-0.0818248812496662,-0.03486709604598581,0.0017375004502478985
1772536279634151200,0.836151123046875,-0.05394260258972645,0.0535217468291521,0.041528298367699605
1772536279644200400,0.846200439453125,-0.07898761199712753,0.07652027203552425,0.032455934117874126
1772536279654248200,0.856248291015625,-0.06109539695382118,0.020607063492573796,-0.025765907560475167
1772536279664296200,0.866296142578125,-0.05717442411780357,-0.04057802103869617,-0.06866811549672856
1772536279674345200,0.87634521484375,-0.00840951642692089,-0.07033723601903766,-0.04455180177418515
1772536279684393200,0.886393310546875,0.029338322687149046,-0.07250961162205785,-0.016631081666843964
1772536279694442200,0.896442138671875,0.046751814302802085,-0.07134184648431838,-0.015449772060941903
1772536279704490200,0.906490234375,0.07387889068126678,-0.0695955142736435,-0.02648904333640821
1772536279714538200,0.916538330078125,0.10236556497514247,-0.07372293293457478,-0.07938691351301967
1772536279724587300,0.926587158203125,0.1026391212195158,-0.10951244105510413,-0.08912459153747186
1772536279734635000,0.936635009765625,0.06505319466888904,-0.15418076361473648,-0.07793591098710895
1772536279744684300,0.946684326171875,0.04454758225679397,-0.1842188686016947,-0.028743416400765998
1772536279754732000,0.95673193359375,0.04182955546975135,-0.17990158992446958,0.013304576725792138
1772536279764780300,0.9667802734375,0.023064649245142937,-0.15996332907155156,-0.01694889717805199
1772536279774829000,0.9768291015625,0.048180385801196095,-0.11277703234162181,-0.029988621555734424
1772536279784877300,0.986877197265625,0.05639817904829979,-0.07071699258424341,-0.02714624686981551
1772536279794926000,0.996926025390625,0.03915478330254554,-0.05777903894744813,-0.0476093079149723
1772536279804974300,1.006974365234375,0.03684007661938667,-0.050603155968710775,-0.025057677092729134
1772536279815022300,1.017022216796875,0.015187632259726523,-0.024471447303146123,0.03855323721282184
1772536279825071400,1.0270712890625,-0.02043839239478111,-0.022625965566933155,0.01645848331260495
1772536279835119400,1.037119384765625,-0.03980944781899452,-0.031848953801207246,0.012475423292117193
1772536279845168000,1.047168212890625,-0.06882569894492625,-0.030238522929884493,0.025264725705841554
1772536279855216400,1.05721630859375,-0.09595862054228782,-0.04589019250478595,0.02383345992686227
1772536279865264000,1.06726416015625,-0.09948270301520824,-0.05569868900943547,0.03532408256586641
1772536279875313400,1.0773134765625,-0.0877507641673088,-0.06590948270466178,0.03562609771974384
1772536279885361200,1.087361083984375,-0.11044015035927295,-0.061959685632959005,0.048178157311491665
1772536279895410200,1.09741015625,-0.1415080733180046,-0.06276351282913238,0.03916354199773632
1772536279905458200,1.107458251953125,-0.11858078671693802,-0.049902898744866246,0.01320645924671553
1772536279915507200,1.117507080078125,-0.07774141132831573,-0.02274279687963426,0.007881930622551589
1772536279925555200,1.12755517578125,-0.07899696434736252,-0.038720227810181675,-0.0009107855688314884
1772536279935603200,1.137603271484375,-0.041973932376503945,-0.05050985166206955,-0.012876770634623244
1772536279945652200,1.14765234375,0.00040448914766311644,-0.04939856595192104,0.014571372658060864
1772536279955700500,1.157700439453125,-0.021094225955009458,-0.04825918665844947,0.04052482041358016
1772536279965749500,1.16774951171875,-0.026853520134091376,-0.059829870530031616,0.029080164941307156
1772536279975797500,1.177797607421875,-0.013464461728930472,-0.029874329259991644,-0.005108529519615695
1772536279985845200,1.18784521484375,0.03969838865995407,-0.013684315024688838,-0.043147003877023235
1772536279995894500,1.19789453125,0.06484042870104313,-0.008245375373773277,-0.02268785182200372
1772536280005942300,1.2079423828125,0.025344284614920616,-0.05313822740428149,-0.01478083242396824
1772536280015991600,1.217991455078125,0.025574001717567442,-0.10426087720245122,-0.021498249311791732
1772536280026039300,1.228039306640625,0.05581716428995132,-0.10040902407988905,-0.019010706812376155
1772536280036087600,1.238087646484375,0.07521452319920062,-0.09494126019328832,-0.0406641558190342
1772536280046136300,1.24813623046875,0.07027765131890773,-0.08867529513370245,-0.033639490479789674
1772536280056184600,1.2581845703125,0.05404840105175972,-0.11650606280211359,-0.03871748786382377
1772536280066233300,1.2682333984375,0.07138415125608444,-0.114663138349168,-0.06693737358083017
1772536280076281600,1.278281494140625,0.0965127472937107,-0.08998100743740796,-0.060178967095492406
1772536280086329300,1.288329345703125,0.05494564215242862,-0.07794818594679236,-0.038263615749636666
1772536280096378400,1.29837841796875,-0.006767594438791275,-0.08648538387399167,-0.02665928533677943
1772536280106426400,1.30842626953125,-0.013677227696776388,-0.06797938431389629,-0.04215830336692743
1772536280116475400,1.318475341796875,-0.08133914355933666,-0.04676522177364677,-0.02430729711684398
1772536280126523400,1.3285234375,-0.13179448855519293,-0.045730070039629936,-0.052045116671640426
1772536280136571400,1.3385712890625,-0.12842296629548072,-0.015127243841998279,-0.04621246499540284
1772536280146620400,1.348620361328125,-0.15833645852208136,0.030030761930719015,-0.0293363316594623
1772536280156668400,1.35866845703125,-0.19819149904847144,0.0631457170797512,-0.045535798709699885
1772536280166717400,1.368717529296875,-0.17513737119734285,0.059627772086672484,-0.04663236177475191
1772536280176765400,1.378765380859375,-0.13737082738280296,0.053739115906879305,-0.022255707482434807
1772536280186813400,1.3888134765625,-0.12213292624056339,0.03450114881042391,-0.026640544103691353
1772536280196862500,1.398862548828125,-0.10906301678717135,0.005401274521648883,0.0031927407598588615
1772536280206910500,1.408910400390625,-0.09065642248094082,-0.011807196041196583,0.006284496230119839
1772536280216959500,1.41895947265625,-0.05864800380170345,-0.0334337753072381,-0.01298766539688222
1772536280227007500,1.429007568359375,-0.004053074783086776,-0.05229447005651891,-0.03607730295280926
1772536280237056500,1.439056396484375,0.029604280146956444,-0.07653809995315969,-0.02143402496916242
1772536280247104500,1.4491044921875,0.013316577690839767,-0.09407182041499763,0.0022157854864839465
1772536280257152500,1.459152587890625,-0.012615151423215865,-0.13269439653698353,0.0005612140793353319
1772536280267201500,1.469201416015625,-0.027843115693330762,-0.1281636577721685,0.02854991225581616
1772536280277249300,1.479249267578125,-0.001415127494931221,-0.09108221014495939,0.004673489970061928
1772536280287298600,1.489298583984375,0.005125087928771972,-0.09276113967522978,0.004426310275960714
1772536280297346300,1.49934619140625,-0.01901157446205616,-0.10135737431328744,-0.009064747198950498
1772536280307394600,1.50939453125,-0.00845218652486801,-0.08721596317086368,-0.019692505930922925
1772536280317443300,1.519443359375,0.00009936872124671936,-0.07558785002361983,-0.0028449959012679755
1772536280327491600,1.52949169921875,-0.03403846320211887,-0.07699979918077587,-0.016346145511930806
1772536280337540400,1.539540283203125,-0.02333060670495033,-0.08225128996819257,-0.03497469373946078
1772536280347588600,1.549588623046875,-0.020710195073485375,-0.09362389398440718,-0.028362591256480663
1772536280357636400,1.55963623046875,-0.05489245066046714,-0.09974153661448508,-0.011889348766161129
1772536280367685600,1.569685546875,-0.08186813586950302,-0.11333265693038701,0.0015554675473831592
1772536280377733400,1.5797333984375,-0.07740005054473877,-0.0916386384513229,-0.002914197813114151
1772536280387782400,1.589782470703125,-0.0671118807643652,-0.06832688257731497,-0.008020069584762677
1772536280397830400,1.599830322265625,-0.08619885855019092,-0.05680164528265595,-0.022576326872082424
1772536280407878400,1.60987841796875,-0.08918342731893063,-0.04266655428316444,-0.018192303101578728
1772536280417927400,1.619927490234375,-0.06469196014106274,-0.020846571336872875,-0.015138724217237904
1772536280427975400,1.629975341796875,-0.04829962826669216,-0.01582125398814678,-0.01078045594249852
1772536280438024400,1.6400244140625,-0.06120645611286163,-0.024075141461938617,-0.01851791832675226
1772536280448072400,1.650072509765625,-0.03939093014597893,-0.03101257604230195,-0.019805866644904017
1772536280458121500,1.66012158203125,0.03375263199806213,-0.023044812033511698,-0.02022451218208298
1772536280468169500,1.67016943359375,0.060195817765593525,-0.03354556511864066,-0.023503515586443244
1772536280478217500,1.680217529296875,0.012430442506074904,-0.056377574651688335,0.0063781841292511665
1772536280488266500,1.6902666015625,0.013629881423711776,-0.06265285552889108,0.000660500602191314
1772536280498314500,1.700314453125,0.024282792863249778,-0.04944843297563493,-0.01116718110460788
1772536280508363500,1.710363525390625,-0.0013794716596603393,-0.040788412386365235,-0.004333152099791914
1772536280518411500,1.72041162109375,-0.033875381594896316,-0.04398702576458454,-0.01694990182504989
1772536280528459500,1.73045947265625,-0.00035831191837787623,-0.051182782487571236,-0.017134428079100324
1772536280538508300,1.74050830078125,-0.02952244708240032,-0.028784670859761535,0.01248945181746967
1772536280548556300,1.750556396484375,-0.05869359650909901,-0.011348346357792615,-0.009260890825558454
1772536280558605300,1.760605224609375,-0.010977321088314056,-0.010386296392604709,-0.0147167724781204
1772536280568653300,1.7706533203125,-0.03645779930353164,0.004702953526563942,0.009434146766923368
1772536280578701600,1.78070166015625,-0.04234101212322712,-0.0012489406151697038,-0.0041732305640354754
1772536280588750300,1.790750244140625,-0.04924655372798443,-0.016321239399537443,0.009153557993564754
1772536280598798600,1.800798583984375,-0.03786006731688976,-0.023972630935534832,-0.0012814729115925728
1772536280608847400,1.810847412109375,-0.031387656432390214,-0.030163229203969237,0.006075009064748883
1772536280618895600,1.8208955078125,-0.04870002576112747,-0.021775851543620228,0.011146576707996427
1772536280628943400,1.830943359375,-0.01919803694486618,-0.010995112473331391,0.0031155199383385477
1772536280638992600,1.84099267578125,-0.04794190087020397,-0.008292612048983574,0.011963884440250695
1772536280649040400,1.851040283203125,-0.07325462130308151,-0.021498313243873416,-0.00403648897446692
1772536280659089400,1.86108935546875,-0.08017360691130161,-0.030149018015526233,-0.017234171259682626
1772536280669137400,1.871137451171875,-0.08339958322048187,-0.031457945189625025,-0.0039319326214492314
1772536280679186400,1.8811865234375,-0.07828209407627582,-0.03977339012492448,-0.015014869508706032
1772536280689234400,1.891234375,-0.056170800033211704,-0.04520023747924715,-0.040048334608785804
1772536280699282400,1.901282470703125,-0.04608429030478001,-0.0526738247629255,-0.03499556299755349
1772536280709331500,1.91133154296875,-0.0657826779872179,-0.06526311109252274,-0.03432469626497477
1772536280719379500,1.92137939453125,-0.05718669907748699,-0.06568393032047898,-0.034206184451840815
1772536280729428500,1.931428466796875,-0.04182721738219261,-0.07297741179689765,-0.01954699651300907
1772536280739476500,1.9414765625,-0.045595045483112336,-0.06234090350288898,-0.0204136780786328
1772536280749524500,1.9515244140625,-0.019265841484069825,-0.03187266347035766,-0.04086434543309733
1772536280759573500,1.961573486328125,0.04382628224492073,-0.012550634819641708,-0.05794281467441469
1772536280769621200,1.971621337890625,0.057656070154905315,-0.014598214999213814,-0.032373251669947055
1772536280779670500,1.98167041015625,-0.016905542093515396,-0.03570727319717407,0.012506759145297109
1772536280789718300,1.99171826171875,-0.07044073292613029,-0.04183671586290002,0.02988496025186032
1772536280799766500,2.0017666015625,-0.013646248036623,-0.030978819903172552,-0.009084767073672265
1772536280809815300,2.011815185546875,0.04315174398422241,-0.014279906297661363,-0.020874171729851513
1772536280819863600,2.021863525390625,0.028763153147697448,-0.015057028149999678,-0.00010588979357853531
1772536280829912300,2.031912353515625,-0.03370528572499752,-0.05198850937988609,0.03916908582253381
1772536280839960300,2.041960205078125,-0.12409224361479282,-0.026695078169368208,0.03998694154405966
1772536280850008600,2.052008544921875,-0.056979778328537935,0.03556132538784295,-0.04171573809804394
1772536280860057300,2.062057373046875,0.03328969066143036,0.06636924570351839,-0.05242225202149711
1772536280870105600,2.072105712890625,-0.027546763095259663,0.03867163942810148,-0.029586105169449
1772536280880154400,2.082154296875,-0.05428980859220028,-0.029421361328102646,-0.0005988609422929585
1772536280890202600,2.09220263671875,-0.027442133677005768,-0.0737291800122708,0.03150733728930354
1772536280900251400,2.10225146484375,-0.08340952009260653,-0.06393858449049293,0.05285962965860962
1772536280910299600,2.112299560546875,-0.08828501717448234,-0.048432314735651016,-0.008320048045180738
1772536280920347400,2.122347412109375,0.005580430480837822,-0.0352079088402912,-0.04713416468389332
1772536280930396700,2.132396728515625,0.036678748577833174,-0.023649536461010572,-0.026834541438985615
1772536280940444400,2.1424443359375,0.0014776713371276854,-0.05600128868520259,-0.005869768816232681
1772536280950493400,2.152493408203125,-0.02603869661986828,-0.10802936289049685,0.008877042607124894
1772536280960545300,2.162545166015625,-0.0070686232119798655,-0.09965882676709442,0.014697127062734216
1772536280970593300,2.17259326171875,0.027559038054943082,-0.07841050622891635,0.008334332298859954
1772536280980642300,2.182642333984375,-0.004342413118481636,-0.05474456662237644,-0.010404160842858255
1772536280990690300,2.192690185546875,-0.013316577690839767,-0.04337214526925236,-0.02702926029348746
1772536281000739300,2.2027392578125,0.023004443490505216,-0.035611375074647365,-0.05489329091068357
1772536281010787300,2.212787353515625,0.02215864031612873,-0.03041464668177068,-0.028972631179913878
1772536281020836000,2.222836181640625,-0.035275896042585374,-0.04654682978261262,0.0009835128783248364
1772536281030884400,2.23288427734375,-0.05441022010147571,-0.059026627855747936,-0.016131141921225934
1772536281040932000,2.24293212890625,-0.051096565508842465,-0.054619844264164566,-0.027422533927392214
1772536281050981400,2.2529814453125,-0.04824000703394413,-0.06667473145611584,-0.012035360507573931
1772536281061029000,2.263029052734375,-0.05493921241164207,-0.0739810358814895,-0.003236296773795038
1772536281071078400,2.273078369140625,-0.044754503005743025,-0.07919219465851783,-0.01011255748514086
1772536281081126100,2.283126220703125,-0.05761573814451694,-0.05327138879727572,0.008442925506178289
1772536281091174100,2.293174072265625,-0.07362170104980469,-0.04013791258838027,0.007218279082048684
1772536281101223200,2.30322314453125,-0.04088146096467971,-0.02105210384633392,-0.009502791556343435
1772536281111271200,2.313271240234375,-0.0022118308305740355,-0.01834452538806945,-0.015842004515230653
1772536281121320200,2.3233203125,-0.04764963992536068,-0.03262461434882134,-0.005945391335710883
1772536281131368200,2.3333681640625,-0.038460371297597884,-0.06390497448183596,-0.002379533813986927
1772536281141417200,2.343417236328125,-0.027616321200132368,-0.06763268976807595,0.015331077584717422
1772536281151465200,2.35346533203125,-0.005527823510766029,-0.06564524227790534,-0.011239881014637649
1772536281161513200,2.36351318359375,0.019719430470466613,-0.06694536509104072,-0.007632723368145525
1772536281171562200,2.373562255859375,0.011771686336398125,-0.0760642718963325,-0.019305369776859878
1772536281181610200,2.3836103515625,0.01733282759487629,-0.08922832590658217,-0.026410872666817155
1772536281191659300,2.3936591796875,-0.016543138521909712,-0.08959273877218366,-0.009903974502068012
1772536281201707000,2.40370703125,-0.04318213912248611,-0.0797050395514816,-0.030125728471484033
1772536281211755300,2.41375537109375,-0.01507189692556858,-0.04655044651180505,-0.050279842298477886
1772536281221804000,2.423803955078125,-0.03458148403763771,-0.014596169172599911,-0.04327347066774964
1772536281231852300,2.433852294921875,-0.054144847163558,-0.01567468512430787,-0.05736483212336897
1772536281241901000,2.443901123046875,-0.011668810483813285,-0.008428659518808126,-0.057278414215240624
1772536281251949300,2.45394921875,-0.013833295041322708,-0.023181918949261308,-0.045823867536615576
1772536281261997300,2.463997314453125,-0.04022913453578949,-0.06087042909152805,-0.029926662235427646
1772536281272046300,2.47404638671875,-0.07598375400602816,-0.06748758220896124,-0.01562965867249295
1772536281282094300,2.48409423828125,-0.05856792430281639,-0.07270213851947337,-0.05348724177135154
1772536281292143400,2.494143310546875,-0.006166705936193466,-0.06049805211517959,-0.09950763652706518
1772536281302191400,2.50419140625,0.01172784719467163,-0.04229644232913851,-0.06673161274250597
1772536281312240000,2.514240234375,-0.04193243132233619,-0.05656319688428193,-0.03795200165035203
1772536281322288400,2.524288330078125,-0.0644365240752697,-0.0868629484821111,-0.05187891152556985
1772536281332336000,2.534336181640625,-0.04905249246060848,-0.06476977461762726,-0.039331144516449416
1772536281342385400,2.544385498046875,-0.020951018092036245,-0.04262074238006025,-0.05975475946720689
1772536281352433200,2.55443310546875,0.03254442525207996,-0.037511801868490874,-0.06445964922253042
1772536281362482400,2.564482421875,0.043192075994610786,-0.037896490337140855,-0.0076744070854038
1772536281372530200,2.5745302734375,-0.022281389912962912,-0.05841251454539597,0.017398239247594028
1772536281382578200,2.584578125,-0.042159810337424275,-0.07463705210480838,0.010447451995313167
1772536281392627200,2.594627197265625,-0.018545125994086264,-0.05966901741251349,0.006990114615671336
1772536281402675200,2.60467529296875,-0.04093582150042057,-0.05227806691098958,-0.01594228655193001
1772536281412724200,2.61472412109375,-0.025455928295850753,-0.04284563717711717,-0.04160937338043004
1772536281422772200,2.624772216796875,-0.009911737683415413,-0.02558620361201465,-0.02738240284640342
1772536281432820200,2.6348203125,-0.01707622248530388,-0.011148841730318963,-0.026205541086755692
1772536281442869200,2.644869140625,-0.02806464948952198,-0.018946948260627684,-0.023359193478617816
1772536281452917200,2.654917236328125,-0.015019874477386473,-0.028564123444259164,-0.024420557366125285
1772536281462966300,2.66496630859375,-0.021428572475910186,-0.038136655768565834,0.003223528623767197
1772536281473014000,2.675013916015625,-0.03585165010392666,-0.07152805323880165,0.015394973133783787
1772536281483063300,2.685063232421875,-0.019226093995571136,-0.09139785196539015,-0.004055650332663208
1772536281493111000,2.695111083984375,0.001187163957953453,-0.08469674689155071,-0.007037680084444582
1772536281503159300,2.7051591796875,-0.043158758246898646,-0.08605433551296592,-0.016599106492847203
1772536281513208000,2.7152080078125,-0.061443187478184697,-0.07966978557500988,-0.038449192316457624
1772536281523256300,2.72525634765625,-0.055204000827670095,-0.06276011529564857,-0.032430717478226866
1772536281533305000,2.73530517578125,-0.06500643291771412,-0.03742953041251749,-0.02917969805933535
1772536281543353300,2.745353271484375,-0.08217091820836067,-0.003426467317342758,-0.009300473917275667
1772536281553401300,2.7554013671875,-0.06495616403520107,0.017588117530196904,-0.017741243998985738
1772536281563450400,2.765450439453125,-0.01487842018008232,0.02548438720535487,-0.01990430378438905
1772536281573498400,2.775498291015625,-0.005847556984424591,0.02229432245977223,0.0007701441222801804
1772536281583547100,2.785547119140625,-0.019701310291886327,-0.0035111499261111017,0.02311511905705556
1772536281593595400,2.795595458984375,0.0058317748934030526,-0.01891739337258041,0.018953834659140557
1772536281603644200,2.80564404296875,0.03378711878955364,-0.027956257211603223,0.027279837521072475
1772536281613692200,2.815692138671875,0.00047054012119770045,-0.04715838580969721,0.030496680675726383
1772536281623740200,2.825740234375,-0.08840542868375778,-0.07076934382598847,0.0250613029550761
1772536281633789200,2.8357890625,-0.04782850362360477,-0.06486464982684702,-0.037877968299761415
1772536281643837200,2.845837158203125,0.0469470446139574,-0.012628193567879498,-0.05858292094254866
1772536281653886200,2.85588623046875,-0.012501754176616668,-0.011004209095239638,-0.0311968648343347
1772536281663934200,2.865934326171875,-0.08451192837655544,-0.06456219628155231,-0.009119345196709037
1772536281673982200,2.875982177734375,-0.10411971516609192,-0.06869177036695182,0.012177381060458719
1772536281684031200,2.88603125,-0.09170505475103854,-0.04316241150870919,-0.004448503841459751
1772536281694079200,2.896079345703125,-0.0462719218313694,-0.0359693947320804,-0.02218969304151833
1772536281704128300,2.906128173828125,-0.016173136165738105,-0.04438471984528005,-0.015604798225872218
1772536281714176300,2.91617626953125,-0.0012245733588933945,-0.05304773610923439,-0.006485964485816657
1772536281724225300,2.926225341796875,-0.01644435432255268,-0.07783464256972074,0.022087456509750334
1772536281734273300,2.936273193359375,-0.07451718858480454,-0.0798906983166933,0.036617940034996715
1772536281744321300,2.9463212890625,-0.031841829940676684,-0.06224095025975257,-0.0056740818473510445
1772536281754370300,2.956370361328125,0.01841068595945835,-0.010359335320442914,-0.023751809525396673
1772536281764418000,2.96641796875,-0.019390344646573066,0.0005652691999450326,-0.024400793219730255
1772536281774467300,2.97646728515625,-0.015022212564945221,-0.030506014759652315,-0.019590616459026933
1772536281784515000,2.98651513671875,0.012401800933480263,-0.050842919541336594,-0.0011086736279539763
1772536281794563300,2.996563232421875,-0.023083353945612905,-0.04278820790145546,0.04249083239007741
1772536281804612000,3.006612060546875,-0.07913374246954917,-0.05085734992548823,0.030081560536194592
1772536281814660400,3.016660400390625,-0.017409984484314918,-0.016784911388531325,-0.02910659629050642
1772536281824709000,3.026709228515625,0.0023386720806360243,0.028264738638885317,-0.0286713649447076
1772536281834757400,3.03675732421875,-0.05412497341930866,0.014894384934194385,-0.0057650663327425715
1772536281844806100,3.04680615234375,-0.050153731700778005,-0.017303053511120377,-0.008240991459600626
1772536281854854400,3.0568544921875,-0.03617956688404083,-0.02256597900800407,0.019138324380572884
1772536281864902100,3.066902099609375,-0.07693827825188636,-0.02335059004705399,0.017668598887883125
1772536281874951200,3.076951171875,-0.04150222321152687,-0.05556143596321344,-0.020790329371299595
1772536281884999200,3.086999267578125,-0.012221768191456794,-0.045485228433087464,-0.025431981164682656
1772536281895048200,3.097048095703125,-0.016153262421488762,-0.04824366029575467,-0.033787356251571324
1772536281905096200,3.10709619140625,0.006703881552815437,-0.06815010123830288,-0.013170702946744859
1772536281915145200,3.117145263671875,-0.005888473516702652,-0.06497242105025798,-0.03322435207394883
1772536281925193200,3.127193115234375,0.0132715695053339,-0.06463011041861028,-0.028667967411223797
1772536281935241200,3.1372412109375,0.03263794875442982,-0.08580733848195522,-0.018082385586854068
1772536281945290200,3.147290283203125,-0.004348842859268188,-0.078727499756217,-0.003181497846636921
1772536281955334700,3.157334716796875,-0.005704933643341064,-0.07293419370967895,-0.006481470973789692
1772536281965383700,3.1673837890625,0.04870820906758308,-0.057641712835989886,-0.028391616421565413
1772536281975431700,3.177431640625,0.07104103690683841,-0.030834771789982913,-0.032472766521666196
1772536281985479700,3.187479736328125,0.0007388356685638427,-0.06335088426303118,-0.00014017565567046403
1772536281995528700,3.19752880859375,-0.06171849728822708,-0.0924763679170981,0.031565150157455354
1772536282005576700,3.20757666015625,-0.07425356921255588,-0.08816909917723387,0.03183224012842402
1772536282015625700,3.217625732421875,-0.06938391734957694,-0.06944532868061214,0.022511289678700266
1772536282025673700,3.227673828125,-0.04176876519322395,-0.033076778563112016,-0.008797766825836151
1772536282035721700,3.2377216796875,-0.028732758009433746,-0.02200403427630663,-0.01501655000913888
1772536282045770800,3.247770751953125,-0.021159692406654357,-0.017735490111634136,-0.014034279239829629
1772536282055818800,3.25781884765625,0.001443184545636177,-0.0316036007380113,-0.011355543283559382
1772536282065867800,3.26786767578125,-0.011148001480102539,-0.04978993988968432,-0.0024031886842101812
1772536282075915500,3.27791552734375,-0.0168617029517889,-0.06580551087353378,0.001720814176928252
1772536282085964800,3.28796484375,-0.020892565903067588,-0.06872497851680964,0.017800536438170818
1772536282096012500,3.298012451171875,-0.02755436187982559,-0.07421352946311235,0.009908979470748454
1772536282106060800,3.308060791015625,-0.04402092803418636,-0.07867127605695277,-0.007877692838851362
1772536282116109600,3.318109619140625,-0.04787994154989719,-0.0743488462805748,-0.010661971528828144
1772536282126157800,3.32815771484375,-0.05172726462781429,-0.057168505833670495,-0.012012070963531732
1772536282136206600,3.33820654296875,-0.0792284350156784,-0.04153513910043984,-0.013150317745842039
1772536282146254800,3.3482548828125,-0.07668518027365208,-0.02776457056440413,-0.03808408533111214
1772536282156303600,3.3583037109375,-0.06867723038494586,-0.008488755675591528,-0.024451628357823937
1772536282166352000,3.368351806640625,-0.10875848088264464,0.01529967779945582,-0.02163741118730977
1772536282176399600,3.378399658203125,-0.07617138553261757,0.0037055399870499967,-0.03204336212845519
1772536282186448600,3.38844873046875,-0.05473112261891365,-0.002166859177686274,-0.017931250145751983
1772536282196496600,3.39849658203125,-0.04949556005299091,0.0029424466600641605,-0.007014536670874804
1772536282206545700,3.408545654296875,-0.02063712983727455,-0.022586546871997414,-0.018736977038066833
1772536282216593700,3.41859375,0.000007014262676239014,-0.04701075749993324,-0.012830730402655898
1772536282226641700,3.4286416015625,-0.015635960549116135,-0.0705130309773609,-0.010036971498280763
1772536282236690700,3.438690673828125,-0.03269289381206036,-0.10061780799236147,-0.0009608626550994813
1772536282246738700,3.44873876953125,-0.02275952881872654,-0.08154836586322635,-0.027969427220430224
1772536282256787700,3.45878759765625,0.02487082188427448,-0.07373542708996683,-0.05323622615234926
1772536282266835700,3.468835693359375,0.02653612474799156,-0.06792557176742703,-0.04811309271864593
1772536282276884700,3.478884765625,0.009793664261698722,-0.06465853279549628,-0.0470006927636452
1772536282286932700,3.4889326171875,0.008324176231026648,-0.08573715932257472,-0.030155283359531312
1772536282296980700,3.498980712890625,-0.0008954875349998473,-0.08022409498952329,-0.010393767313007264
1772536282307029800,3.50902978515625,0.008015548673272132,-0.0599944499745965,-0.02535445894906297
1772536282317077800,3.519077880859375,0.022620997130870818,-0.054634493844024835,-0.03745735000120476
1772536282327126800,3.529126708984375,0.0014829320341348648,-0.05147003846373409,-0.02684754705103114
1772536282337174500,3.539174560546875,-0.01632277376949787,-0.05847239150647074,-0.029951486149430273
1772536282347223800,3.549223876953125,0.009580313771963118,-0.05640588743072003,-0.01923619526447728
1772536282357271600,3.559271484375,-0.009870821151137351,-0.06691003804933279,-0.00837062745494768
1772536282367319600,3.569319580078125,-0.023063480201363562,-0.05813778925724327,-0.01667052776124328
1772536282377368600,3.57936865234375,-0.0518137738674879,-0.06522825897485017,-0.016360804224945603
1772536282387416600,3.58941650390625,-0.06604921996891498,-0.054864758935943246,-0.013594006392732262
1772536282397465600,3.599465576171875,-0.06099076753556728,-0.058118719230592246,-0.008026015268359332
1772536282407513600,3.609513671875,-0.045191140857338906,-0.05402019787058234,-0.009536218901909888
1772536282417561900,3.619561767578125,-0.0512736756414175,-0.04602054088618606,-0.01103047604765743
1772536282427610600,3.629610595703125,-0.05931377423405647,-0.04719659892823547,0.0030504918781109154
1772536282437659000,3.639658935546875,-0.07185995207428932,-0.06342716436963527,0.017472126467712224
1772536282447707600,3.649707763671875,-0.09128302994668483,-0.05888630606960505,0.013363869164977222
1772536282457756000,3.659755859375,-0.10591711997687817,-0.041553916866146026,0.010611885309405624
1772536282467804700,3.6698046875,-0.07301438280642032,-0.03842730927821249,0.001789532031584531
1772536282477852700,3.679852783203125,-0.06412322034239769,-0.03218490775730461,-0.013274017190746962
1772536282487900700,3.689900634765625,-0.055740591922402376,-0.026607984407804906,-0.02049940186701715
1772536282497949700,3.69994970703125,-0.045889059993624685,-0.030379173509590327,-0.004981971397344023
1772536282507997700,3.709997802734375,-0.04887655137181282,-0.046574850300699466,0.011583013630192726
1772536282518046700,3.720046630859375,-0.03254150264263153,-0.058673174775578076,0.0004858655544929206
1772536282528094700,3.7300947265625,-0.016609189495444297,-0.039519196168147024,0.0037335422388277946
1772536282538142700,3.740142822265625,-0.009625321957468985,-0.037764680651016534,-0.01136370832370594
1772536282548191700,3.750191650390625,-0.00830196439921856,-0.042676235426962375,-0.031763376143295316
1772536282558239700,3.76023974609375,-0.0011450783818960188,-0.044682351084984834,-0.02474577073249966
1772536282568288800,3.770288818359375,0.007795768442749976,-0.04292067517470568,-0.02474145988356322
1772536282578336800,3.780336669921875,0.0011585223853588103,-0.03871021787282079,-0.02104879764439538
1772536282588385500,3.790385498046875,-0.019092238482832907,-0.046143582743965086,-0.0011705598830245435
1772536282598433800,3.800433837890625,-0.020000000977516173,-0.03694755558185279,0.01448686357922852
1772536282608481500,3.8104814453125,0.022216507983207703,-0.028708536883629857,-0.014198036700487136
1772536282618530800,3.82053076171875,0.050365328624844545,-0.019129136427119373,-0.024473365265596656
1772536282628578600,3.83057861328125,0.050691491839289664,-0.033495734627544876,-0.007905731623247265
1772536282638627800,3.8406279296875,0.031301147192716594,-0.04889934772551059,0.012407956679631025
1772536282648675600,3.850675537109375,0.005705518165230751,-0.05513557523395866,0.03218412230601534
1772536282658724900,3.860724853515625,-0.011575871503353118,-0.04769607288297265,0.03509549797438085
1772536282668772600,3.870772705078125,-0.05348492195010185,-0.032942630789428946,0.02707551058800891
1772536282678820600,3.880820556640625,-0.043325346985459326,-0.00353537105191499,0.014260087352339178
1772536282688869600,3.89086962890625,-0.016615034714341163,0.016444171659462152,-0.025093214196991172
1772536282698917600,3.900917724609375,-0.02487082188427448,0.013448679637908936,-0.026014110167883336
1772536282708966700,3.910966552734375,-0.04724690434336662,-0.014452559450827539,-0.012030337272584438
1772536282719014700,3.9210146484375,-0.06830313637554646,-0.02870890220981091,0.005002502728719264
1772536282729063000,3.93106298828125,-0.044048985084891315,-0.024018698566965757,-0.00519365965295583
1772536282739111700,3.941111572265625,-0.007244564300775528,-0.02933583846911788,-0.016543723043799398
1772536282749159700,3.95115966796875,-0.01787351034283638,-0.03978961060736328,-0.009674330464657396
1772536282759208700,3.961208740234375,-0.046426820132136344,-0.06818699918258934,0.016927151137124747
1772536282769256700,3.971256591796875,-0.074178750410676,-0.06929693318586796,0.016051098954956978
1772536282779305700,3.9813056640625,-0.05626607710123062,-0.050477447229810055,-0.014868391976412385
1772536282789353700,3.991353759765625,-0.023709961411356926,-0.02288596820998937,-0.04015996002340689
1772536282799401700,4.001401611328125,-0.006911971345543861,-0.00015445990934967994,-0.05687675634548068
1772536282809450800,4.01145068359375,-0.023361001843214033,-0.006874306216277182,-0.041731246194429694
1772536282819498800,4.021498779296875,-0.04606850821375846,-0.033497086334414776,-0.014710881593450903
1772536282829547500,4.031547607421875,-0.045723055776953694,-0.017382219694554803,0.005647486101370305
1772536282839595800,4.041595703125,-0.03507189790308475,-0.018056502226926386,-0.0074671940755099055
1772536282849644500,4.05164453125,-0.043289106628298754,0.006324672976881265,-0.010675671260617673
1772536282859692500,4.061692626953125,-0.011417466071248054,0.007615114646218717,-0.01740927209826186
1772536282869740800,4.07174072265625,-0.013982932645082474,-0.0009097352560609579,-0.014516692461911588
1772536282879789600,4.08178955078125,-0.03790858263373375,-0.023556707078404723,-0.006719992437399924
1772536282889837800,4.091837890625,-0.0492214192867279,-0.042552645579911764,0.011339889056701212
1772536282899886600,4.101886474609375,-0.033279753789305686,-0.03972834540680051,0.0265826490371488
1772536282909934800,4.111934814453125,-0.016122867283225057,-0.02956409426704049,-0.013354078423324972
1772536282919983600,4.121983642578125,0.0026589900761842724,-0.02648994751870632,-0.022091767358686773
1772536282930031900,4.132031982421875,-0.0207657246530056,-0.023135887850448487,-0.019862072077859193
1772536282940079600,4.14207958984375,-0.03520867602527141,-0.03810516465175896,-0.013696169859264045
1772536282950129000,4.15212890625,-0.024537059885263442,-0.042782983737066384,-0.02181368106966838
1772536282960176600,4.1621767578125,-0.044720016214251514,-0.030653679602034387,-0.040308008458279074
1772536282970226000,4.172225830078125,-0.028263386932015418,-0.043311720318906004,-0.07337079502865672
1772536282980273700,4.182273681640625,-0.0007499415844678879,-0.0540395236255601,-0.057255325600598005
1772536282990321700,4.19232177734375,-0.016937690797448158,-0.06993566948082297,-0.05759606532966718
1772536283000370700,4.20237060546875,-0.03131926737129688,-0.06817213040702044,-0.03650976695278659
1772536283010418700,4.212418701171875,-0.01754851617217064,-0.0725409931410104,-0.035700770391151306
1772536283020467700,4.2224677734375,-0.025749942806363103,-0.06817403010316193,-0.03928613633094355
1772536283030515700,4.232515625,-0.01718026738166809,-0.046731721362844106,-0.027984168131835758
1772536283040564700,4.242564697265625,-0.02251110701560974,-0.03958396850004792,-0.04254369508847594
1772536283050612700,4.25261279296875,-0.021409867775440215,-0.028265578889101743,-0.029827804970834402
1772536283060660700,4.26266064453125,-0.01613631128668785,-0.025204145491868255,-0.02905756951700896
1772536283070709800,4.272709716796875,-0.017757190486788747,-0.028519553650170563,-0.020747147816698997
1772536283080757500,4.282757568359375,-0.020593290695548057,-0.022452252967841924,-0.007807550212088972
1772536283090806800,4.292806884765625,-0.005796703580021858,-0.008691475173458457,-0.03249401023909449
1772536283100854500,4.3028544921875,-0.021095394998788833,0.001505143865942955,-0.04667982677882537
1772536283110903800,4.31290380859375,-0.021266659912467,0.011116181569732726,-0.042619244542717934
1772536283120951600,4.32295166015625,-0.021276596784591675,-0.006005998949147761,-0.01155192437218502
1772536283130999800,4.332999755859375,-0.04219605069458485,-0.022243761316314337,0.018322916344460097
1772536283141048600,4.343048583984375,-0.007737316253781318,-0.030176380946487186,0.0057588192550465465
1772536283151096800,4.353096923828125,0.03523848664164543,-0.028635362049564718,-0.029888467383198437
1772536283161145600,4.3631455078125,0.02805763522684574,-0.0662863531930372,-0.058756542210094624
1772536283171193900,4.37319384765625,0.013826865300536156,-0.11785283776856958,-0.07273096275515854
1772536283181242600,4.38324267578125,0.04311433458328247,-0.1540195086384192,-0.0764896211689338
1772536283191290600,4.39329052734375,0.01899286976158619,-0.19588676577005534,-0.0647335707930848
1772536283201339000,4.4033388671875,0.0001543137788772583,-0.21341347196921706,-0.030128504950460044
1772536283211387600,4.4133876953125,-0.035523733323812486,-0.20632786108981815,-0.00882922141002491
1772536283221436000,4.423435791015625,-0.0425683911383152,-0.17014376416113228,-0.03015716478936374
1772536283231484700,4.433484619140625,0.01513327172398567,-0.11953556669112295,-0.062126164773665365
1772536283241533000,4.443532958984375,0.05312193385660648,-0.08073617269750684,-0.07821640842892229
1772536283251580700,4.45358056640625,0.04496376184225082,-0.05479578535296022,-0.08613461594125256
1772536283261629700,4.463629638671875,-0.029770868885517117,-0.02689783419985324,-0.055336705562938
1772536283271677700,4.473677734375,-0.122376087346673,0.005716185689717531,-0.050778658666089174
1772536283281726700,4.483726806640625,-0.09673837274312973,-0.017056093012727796,-0.14232908911099657
1772536283291774700,4.493774658203125,-0.04034311630427837,-0.006887604089267551,-0.18835911021158097
1772536283301823700,4.50382373046875,-0.0021837737798690794,0.042060806942358614,-0.1394681832545437
1772536283311871700,4.513871826171875,-0.010370002844929695,0.06652962389700115,-0.04935790514796972
1772536283321919700,4.523919677734375,-0.03190612734854221,0.06853398598935455,0.021210326615348458
1772536283331968800,4.53396875,-0.07255377955734729,0.07266023560650646,0.01906255573062226
1772536283342016800,4.544016845703125,-0.01737842030227184,0.10897785925436765,0.0055481539127416905
1772536283352065800,4.554065673828125,-0.0180991357922554,0.1522690482418984,0.027876871832460164
1772536283362113800,4.56411376953125,-0.0800344907015562,0.15460578409377485,0.05095332111325115
1772536283372162800,4.574162841796875,-0.09241992502212523,0.12833006384763865,0.08026493845656514
1772536283382210800,4.5842109375,-0.07504793446063995,0.13699081508927047,0.10207555078631267
1772536283392258600,4.594258544921875,-0.08900222553312778,0.1665903094632551,0.08619315946176648
1772536283402307800,4.604307861328125,-0.03486147002279758,0.1748501882864162,-0.007435100170504302
1772536283412355600,4.61435546875,0.022742577683925628,0.17268018730357287,-0.05773414035979658
1772536283422404900,4.62440478515625,0.0499450573861599,0.15865761676784604,-0.05261349114412441
1772536283432452600,4.63445263671875,0.050232057633996005,0.08222831095140427,-0.02954047592943534
1772536283442502000,4.644501953125,0.03310322817862034,0.006522789364866912,0.011293529164325446
1772536283452549600,4.654549560546875,0.003264554753899574,-0.0235822068458423,0.039806872269418085
1772536283462598000,4.664597900390625,0.012986907345056533,-0.05933445169590413,0.03225433799801394
1772536283472646700,4.674646728515625,0.007352700850367546,-0.07122333467118441,0.04781633826177567
1772536283482694700,4.684694580078125,-0.003038344782590866,-0.06417473133392632,0.07668828554619103
1772536283492743700,4.69474365234375,-0.002777063497900963,-0.0538747615179047,0.09029016471812501
1772536283502791700,4.704791748046875,-0.07578326299786567,-0.03890482712946832,0.10171747632995247
1772536283512840700,4.7148408203125,-0.15644553020894528,-0.008091974910348654,0.11900401709768921
1772536283522888700,4.724888671875,-0.1638555142045021,0.006483005343750119,0.09318729266542941
1772536283532936700,4.734936767578125,-0.1422492470741272,0.026094737656041977,0.038106954750046135
1772536283542985700,4.74498583984375,-0.19134616319835185,0.012435520539991557,-0.015283420784398913
1772536283553033700,4.75503369140625,-0.17233634230196476,-0.017386201749928294,-0.06432535531837492
1772536283563082800,4.765082763671875,-0.12732523418664932,-0.06734126907344908,-0.07693604976218194
1772536283573130800,4.775130859375,-0.11494330699741839,-0.09043631345685571,-0.06509367280974984
1772536283583179800,4.7851796875,-0.0709498514920473,-0.12588120939079672,-0.03581526361629367
1772536283593227500,4.7952275390625,-0.037004327270388604,-0.15780458013508467,-0.008438724255096166
1772536283603275800,4.80527587890625,-0.05041618202924728,-0.1835336262838915,0.040892804342601445
1772536283613324500,4.815324462890625,-0.06653261957168578,-0.18125293146818874,0.06496726995110512
1772536283623372800,4.825372802734375,-0.07878887455463408,-0.12794975929316132,0.06023251478048041
1772536283633421600,4.835421630859375,-0.054475102031230925,-0.06107029904518276,0.025167357145436105
1772536283643469800,4.8454697265625,-0.04153378739356994,-0.006321238910779356,0.016336692696996034
1772536283653517800,4.855517822265625,-0.04344049779772758,0.04024078844096511,0.002512092418782413
1772536283663566800,4.86556689453125,-0.056307578155398365,0.06086761607993394,0.013880476917605846
1772536283673614800,4.87561474609375,-0.07294774731099606,0.06468059849683196,0.0328238084490411
1772536283683664000,4.885663818359375,-0.07674830863773822,0.07613134578317403,0.011882234038785099
1772536283693712000,4.8957119140625,-0.04707973108291626,0.07902560591995715,-0.0016178835254162549
1772536283703760600,4.9057607421875,-0.06531096882224083,0.09725297120176254,-0.0015059293172322212
1772536283713809000,4.915808837890625,-0.06753799722194671,0.09069237057715654,-0.026708376042358577
1772536283723856600,4.925856689453125,-0.050309214523434634,0.06987919005323201,-0.04850793725512922
1772536283733906000,4.935906005859375,-0.055362406259775156,0.06039857379607856,-0.03808023113990203
1772536283743953700,4.94595361328125,-0.0318108502805233,0.018480609390512107,-0.04363074140651151
1772536283754002700,4.956002685546875,-0.04441431126594543,-0.00808715260475874,-0.0245850454791449
1772536283764050700,4.96605078125,-0.05189794501960277,-0.012471103310026228,-0.044278446459211404
1772536283774099700,4.976099609375,-0.02676759541630745,-0.006431896211020648,-0.05805043976735323
1772536283784147700,4.986147705078125,-0.023792963519692418,-0.006190780931524932,-0.052076516456902026
1772536283794195700,4.99619580078125,-0.04716273319125175,-0.009912322205305099,-0.044464306153822686
1772536283804244700,5.00624462890625,-0.02265139226913452,-0.017411664984747766,-0.04118764083702117
1772536283814292700,5.016292724609375,-0.03911912746727467,-0.03210322082322091,-0.04241148354355245
1772536283824341800,5.026341796875,-0.0446422748029232,-0.03602152677811682,-0.03751189320003614
1772536283834389800,5.0363896484375,-0.03968494465649128,-0.03391417923532426,-0.01706529923249036
1772536283844438800,5.046438720703125,-0.06003215163648128,-0.024912724797241388,-0.02263935477146879
1772536283854486800,5.05648681640625,-0.05722586204409599,-0.010173420826904474,-0.02271274880124256
1772536283864534500,5.066534423828125,-0.03577390869259834,-0.0020188290091231464,-0.03391178634883836
1772536283874583800,5.076583740234375,-0.059687868243455885,0.009129610862396657,-0.02874643947491422
1772536283884631600,5.086631591796875,-0.060252516388893125,0.0045125455209985375,-0.012772369545232504
1772536283894680800,5.096680908203125,-0.057988663110136986,0.004636391096375882,-0.021348054585605857
1772536283904728600,5.106728515625,-0.06740005005598068,0.003920351781509817,-0.0041724268464371555
1772536283914777900,5.11677783203125,-0.05319733718037605,0.014355894143320619,-0.009703355629742144
1772536283924825600,5.12682568359375,-0.044261166530847544,0.026257380871847272,-0.007736037612147629
1772536283934873900,5.136873779296875,-0.04641746778190136,0.023956300855241714,-0.007921550246886908
1772536283944922600,5.146922607421875,-0.03600128770768642,0.022690153376944362,-0.020573581348080187
1772536283954971000,5.156970947265625,-0.0532388382345438,0.02251461414694786,-0.017284659337904303
1772536283965019600,5.16701953125,-0.04773264203369617,0.023400785864330826,-0.01147732476601377
1772536283975068000,5.17706787109375,-0.030520810469985008,0.004497713278047741,-0.05241340199476108
1772536283985116700,5.18711669921875,-0.02228548156619072,0.00705481388233602,-0.06864223213680089
1772536283995165000,5.1971650390625,-0.0017693477600812912,0.002022336140461266,-0.08650812542876228
1772536284005212700,5.207212646484375,0.02355973928570747,0.014824899894557892,-0.06281748977238312
1772536284015262000,5.217261962890625,0.02510930681526661,0.018114333361387253,-0.05297333743246272
1772536284025309700,5.227309814453125,0.022359131324291227,-0.0003280263779684901,-0.06584085618155076
1772536284035359000,5.23735888671875,0.02790390596985817,0.010423632728308438,-0.07861598393945023
1772536284045406700,5.24740673828125,0.01764262419641018,0.015650244802795348,-0.08706261750636622
1772536284055456000,5.2574560546875,0.06858721401393413,0.02301372277550399,-0.10161898439154028
1772536284065503700,5.267503662109375,0.06984685868620873,0.006130611709505319,-0.06844846313036977
1772536284075551700,5.2775517578125,-0.03657704176902771,-0.02641184078119695,-0.024529917758423832
1772536284085600800,5.287600830078125,-0.06481237165033817,-0.03993628906905651,-0.0016061200223863124
1772536284095648800,5.297648681640625,-0.025265958681702613,-0.039869434377923604,-0.023260281415097415
1772536284105697800,5.30769775390625,-0.027680034086108207,-0.0356068450300023,-0.028378318548575043
1772536284115745800,5.317745849609375,-0.07818623248636722,-0.041873833002895114,0.010032861578743904
1772536284125794000,5.3277939453125,-0.07517068405747414,-0.059179516862519085,-0.002260766272526234
1772536284135842800,5.3378427734375,-0.05873685112893581,-0.06370393548440188,-0.008899491900950669
1772536284145890800,5.347890869140625,-0.058790627142786975,-0.0637114612037316,-0.010885094493906945
1772536284155939800,5.35793994140625,-0.05226151763498783,-0.06418021122664212,0.01976580862915143
1772536284165987800,5.36798779296875,-0.06892740575373173,-0.06190799197833985,0.03907525179293007
1772536284176036900,5.378036865234375,-0.044158875200152395,-0.04958853556606918,0.03342617652267217
1772536284186084900,5.3880849609375,-0.02642272750139236,-0.04492836173530668,0.03271419232841581
1772536284196132900,5.3981328125,-0.04325637340247631,-0.05580229551438242,0.043348508665338154
1772536284206182000,5.408181884765625,-0.04092705367207527,-0.06726338153164833,0.02920285973921418
1772536284216230000,5.41822998046875,-0.02435936523079872,-0.08729940367061645,0.031214236094243824
1772536284226278700,5.428278564453125,-0.02093523600101471,-0.06514985997639595,0.012893347310088574
1772536284236327000,5.438326904296875,-0.01957096191048622,-0.06653108520172536,0.0025932496299035847
1772536284246375000,5.448375,-0.02205751802921295,-0.08065843128617853,-0.013074622161127626
1772536284256423700,5.458423583984375,-0.05443067836761474,-0.06934325654562562,-0.016278167442791164
1772536284266472000,5.468471923828125,-0.06095978787541389,-0.05624328074753284,-0.00890908171320334
1772536284276520700,5.478520751953125,-0.02223229007422924,-0.03711078331954777,-0.030101361215207723
1772536284286569000,5.48856884765625,-0.013802899903059005,-0.022858897539973257,-0.026113880747929214
1772536284296617700,5.49861767578125,0.009861468800902365,-0.022772059506736695,-0.0320265936567448
1772536284306666000,5.508666015625,0.016512158861756325,-0.04014653428625315,-0.016137224602140485
1772536284316714800,5.51871484375,0.006473579928278923,-0.05821436162479222,0.00865052210856229
1772536284326763000,5.528762939453125,0.011034019711613654,-0.06952708867993206,0.009823200883436948
1772536284336810800,5.538810791015625,-0.0132236387103796,-0.05988185644559562,0.02056172651350498
1772536284346860000,5.548860107421875,-0.03569090658426285,-0.04447254425920546,0.030008878892473875
1772536284356907800,5.55890771484375,-0.012572481325268744,-0.02135919703412801,0.023508867614995686
1772536284366956800,5.568956787109375,-0.00940203459560871,-0.004530629166960716,0.0059792205400764934
1772536284377004800,5.5790048828125,-0.03199205206632614,-0.006621683162078261,0.004976948162354528
1772536284387052800,5.589052734375,-0.03781973530650139,-0.031128786300495266,0.013455766965821384
1772536284397101800,5.599101806640625,-0.04603402142226696,-0.04841108928453177,0.023333291852381078
1772536284407149800,5.60914990234375,-0.04963584530651569,-0.052771403385885055,0.029328057021461424
1772536284417198800,5.61919873046875,-0.015555881050229071,-0.062474722483009094,0.02197104532215744
1772536284427246800,5.629246826171875,-0.007505845585465431,-0.0654950932174921,0.01861713178437203
1772536284437295900,5.6392958984375,-0.038353403791785236,-0.07595993473902345,0.025330036893859504
1772536284447343900,5.64934375,-0.034465164181590076,-0.07697064615152775,0.02988888750830665
1772536284457391600,5.6593916015625,-0.04436521142721176,-0.08446494742967188,0.04519106779210269
1772536284467441000,5.66944091796875,-0.044264673662185665,-0.07333835406377912,0.03142411598525941
1772536284477488600,5.679488525390625,-0.05314005403518676,-0.06385623996928334,0.013317271810583769
1772536284487538000,5.689537841796875,-0.08894377334415912,-0.04154007100388407,0.01995541291711852
1772536284497585700,5.699585693359375,-0.06912614319622516,-0.03755399704240262,-0.001111486639548093
1772536284507635000,5.709635009765625,-0.031224574825167654,-0.03767966924868524,-0.0029398528441786764
1772536284517682700,5.7196826171875,-0.037791093733906746,-0.03899429551120847,0.011171382355690002
1772536284527730700,5.729730712890625,-0.038376200145483014,-0.04226451282091438,0.008462196462228894
1772536284537779700,5.73977978515625,-0.009921090033650397,-0.04117653492111713,0.0033106041190214455
1772536284547827700,5.74982763671875,-0.020347206979990005,-0.030510544804297386,0.011395071576349437
1772536284557876700,5.759876708984375,-0.03372925112247467,-0.02367204055376351,-0.003973433675616979
1772536284567924700,5.7699248046875,-0.05175707524418831,-0.010327661540545523,-0.007856522186659276
1772536284577973800,5.779973876953125,-0.04168342499732971,0.01250515171010047,-0.020935619593504814
1772536284588021800,5.790021728515625,-0.037053427109122274,0.033627361650578676,-0.03139074343862012
1772536284598070000,5.800070068359375,-0.040992520123720164,0.033854521469958127,-0.026869722350221125
1772536284608118800,5.810118896484375,-0.03953881418406963,0.00968388374429196,-0.024496362548694015
1772536284618167000,5.8201669921875,-0.02593348267972469,0.005761303473077714,-0.013401570826862006
1772536284628215800,5.8302158203125,-0.03936345761716366,-0.0055594972906634205,0.018421682277508077
1772536284638263800,5.840263916015625,-0.02404781506359577,-0.027292678736336527,0.005353471590857952
1772536284648312800,5.850312744140625,0.025122166296839714,-0.0278926539234817,-0.004240213119331747
1772536284658360800,5.86036083984375,0.023800562304258345,-0.029928762860968707,0.0018468151767738162
1772536284668408800,5.870408935546875,-0.008868950632214545,-0.052055327538400885,0.005072225230373442
1772536284678457900,5.880457763671875,-0.01666355003118515,-0.058068742609024046,0.0022726576397195455
1772536284688505900,5.890505859375,0.006660042411088943,-0.04671378384735435,-0.007746960864961147
1772536284698555000,5.900554931640625,0.0035977322310209274,-0.028168255994468927,-0.01773707928052172
1772536284708603000,5.910602783203125,-0.01208908172249794,-0.012947561715357004,-0.042371115000545974
1772536284718651600,5.920651611328125,-0.00956979237794876,-0.006480192332156002,-0.04801502090534195
1772536284728700000,5.930699951171875,-0.029783728367090225,-0.025667634817771613,-0.02831208491194993
1772536284738748000,5.940747802734375,-0.061789808958768844,-0.03945201268345117,-0.019868574883881954
1772536284748796700,5.950796630859375,-0.032148703932762146,-0.03200071029681712,-0.008632602859381586
1772536284758845000,5.960844970703125,-0.02285480588674545,-0.014460158235393464,-0.028449831148516385
1772536284768893700,5.970893798828125,-0.012801613906025886,-0.01687755810804665,-0.021790154063608496
1772536284778942000,5.98094189453125,-0.03504676346182823,-0.029606581701897082,-0.012096808371227234
1772536284788990700,5.99099072265625,-0.030814240458607672,-0.028283333741500973,-0.00979391999002546
1772536284799039000,6.0010390625,-0.02809036845266819,-0.0018923165526241062,-0.021405483861267567
1772536284809087700,6.011087646484375,-0.025551789885759353,0.00013352671917527914,-0.028529563587531444
1772536284819136000,6.021135986328125,-0.03769932379722595,-0.01356941994074732,-0.02584030623724684
1772536284829183700,6.031183837890625,-0.029379823741316792,-0.0061714917091652746,-0.015780556651577352
1772536284839233000,6.04123291015625,-0.04813420857191086,-0.02017678231652826,-0.010223214785382151
1772536284849280800,6.05128076171875,-0.06056172846853733,-0.027028767103143034,-0.009427735292445867
1772536284859329800,6.061329833984375,-0.0388736282736063,-0.032252346970327195,-0.04073892895514145
1772536284869377800,6.071377685546875,-0.034850948628783227,-0.027779074013791975,-0.05981021598149091
1772536284879426800,6.0814267578125,-0.04204290595948696,-0.028678141745366155,-0.05099619214059785
1772536284889474800,6.091474853515625,-0.048507718059420585,-0.022791312196478248,-0.047244986380916086
1772536284899522800,6.101522705078125,-0.0698088647633791,-0.010416837661340833,-0.04646755400132387
1772536284909571800,6.11157177734375,-0.05565817433595657,-0.01326758744996041,-0.039721933932323004
1772536284919619800,6.121619873046875,-0.02268237192928791,-0.004776091828010976,-0.035964663758035746
1772536284929668900,6.1316689453125,-0.03639583998322487,0.01070515308342874,-0.020233663602918384
1772536284939716900,6.141716796875,-0.016277765583992004,0.0007041296813637017,-0.014347710836865007
1772536284949766000,6.151765869140625,0.003251110750436783,-0.0013856091395020485,0.013770148410927503
1772536284959813600,6.161813720703125,-0.041246202623844146,0.0034851752346381545,0.012966357747372238
1772536284969861600,6.171861572265625,-0.041138650596141815,0.019438494637235997,0.001734714838117361
1772536284979910400,6.181910400390625,-0.027467852640151978,0.03487184528633952,0.0016111432573758064
1772536284989958400,6.19195849609375,-0.04078676841855049,0.025447818054631352,-0.0010523585971444845
1772536285000007400,6.20200732421875,-0.04482639919817447,0.012653985596261918,0.012027012804336846
1772536285010055400,6.212055419921875,-0.03194119866192341,-0.00975139602255076,0.029233327942714094
1772536285020104400,6.2221044921875,-0.01421440331339836,-0.029980675711296496,0.028585202764905986
1772536285030152400,6.23215234375,-0.025893735191226005,-0.05229085332732648,0.03645874915160238
1772536285040200400,6.242200439453125,-0.0107183778911829,-0.0604650266284123,0.04206102613806724
1772536285050249500,6.25224951171875,0.002351531562209129,-0.05523249626979231,0.012747216837666928
1772536285060297500,6.26229736328125,0.0016319851160049438,-0.03507050966359675,-0.00047810237314552066
1772536285070346500,6.272346435546875,-0.003916881182789802,-0.04309077104460448,-0.012025186173431575
1772536285080394500,6.28239453125,-0.022211831808090207,-0.04896930768918246,0.004727613043785095
1772536285090443300,6.292443359375,-0.007585340562462807,-0.050254305998422205,0.011585077723115681
1772536285100491500,6.302491455078125,0.0019786065965890884,-0.05393036416266113,0.029695648224838077
1772536285110539500,6.31253955078125,-0.01953472155332565,-0.050858738164976235,0.03831500801015645
1772536285120588500,6.322588623046875,-0.02901391303837299,-0.04776771334707737,0.025975385592691597
1772536285130636500,6.332636474609375,-0.00734685563147068,-0.034520109239220616,0.038518312029913064
1772536285140685600,6.342685546875,-0.04371756117343902,-0.005713372678123415,0.03795472333040088
1772536285150733600,6.352733642578125,-0.07858429189324379,-0.006614157442748546,0.013268208504468202
1772536285160782600,6.362782470703125,-0.06799275525212288,0.02317687744796276,0.0006248539000749588
1772536285170830600,6.37283056640625,-0.0986000749617815,0.025183139236457645,-0.017227577122114597
1772536285180878300,6.38287841796875,-0.10756430266201496,0.02014430481903255,-0.016232611268013716
1772536285190927600,6.392927734375,-0.07394435713291168,0.01977868637703359,-0.002381159515492618
1772536285200975400,6.402975341796875,-0.06148118140101432,0.023286548367515206,0.0013949249571189282
1772536285211024600,6.413024658203125,-0.07371113289892674,-0.003342551893554628,-0.011638853736966848
1772536285221072400,6.423072265625,-0.04629004200994968,-0.00273019214887172,-0.010131225652992725
1772536285231121700,6.43312158203125,-0.028253450059890745,-0.012533647152222693,0.00547423016000539
1772536285241169400,6.44316943359375,-0.03980360260009765,-0.03736139707975089,-0.005077887786179781
1772536285251217400,6.453217529296875,-0.004049567651748657,-0.04697524779513478,0.007301482119783759
1772536285261266400,6.463266357421875,0.0009001637101173401,-0.04610372565761208,-0.009316000279970467
1772536285271314400,6.473314453125,-0.006876315510272979,-0.04162753009162843,-0.021011443042382595
1772536285281363500,6.483363525390625,0.011808511215448379,-0.03779397981073707,-0.022352007463760672
1772536285291411500,6.493411376953125,0.002361468434333801,-0.041946057988889514,-0.005074197991751134
1772536285301460500,6.50346044921875,-0.016041618740558622,-0.05074336815699935,-0.042511473319306964
1772536285311508500,6.513508544921875,0.015379939961433409,-0.03664203329663723,-0.03701013595666736
1772536285321556500,6.523556396484375,0.0052069209933280946,-0.041886546353995795,0.0009004925036802887
1772536285331605500,6.53360546875,-0.05891220769584179,-0.04741473519094288,0.018736776108667252
1772536285341653500,6.543653564453125,-0.045474633973836893,-0.022295929894968865,-0.01818480478171259
1772536285351702500,6.55370263671875,0.01937222446799278,0.010076828584633766,-0.032421164198592305
1772536285361750300,6.563750244140625,0.015748188751935958,0.022801504796929654,-0.03830083335433155
1772536285371799600,6.573799560546875,-0.013353402569890021,-0.004287066202051938,-0.01458535551764071
1772536285381847300,6.583847412109375,-0.033442250874638556,-0.02455667790118605,0.008176620986498892
1772536285391895600,6.5938955078125,-0.06675181528031826,-0.03486278519704938,0.03488123416919261
1772536285401944300,6.6039443359375,-0.06312427243292332,-0.03167754275705665,0.011783997828699648
1772536285411992600,6.61399267578125,-0.033552140989899636,-0.011861885370500385,-0.01630392293855548
1772536285422041300,6.624041259765625,-0.04244038084447384,-0.0026349150808528065,-0.016908026311546562
1772536285432089600,6.634089599609375,-0.04391103791892528,0.004293459410220384,-0.04152096444461494
1772536285442138400,6.644138427734375,-0.03037994069457054,-0.004775215045176446,-0.045013592333346605
1772536285452186600,6.6541865234375,-0.06751987704336643,-0.01716528900824487,-0.019338979785516856
1772536285462234600,6.664234619140625,-0.07867138565480708,-0.02315857460629195,-0.027117760560847817
1772536285472283400,6.674283447265625,-0.024929858595132828,-0.028812837508320806,-0.027637473586015402
1772536285482331400,6.684331298828125,-0.02267535766661167,-0.04008084863889962,-0.008471183486282825
1772536285492380400,6.69438037109375,-0.02937573208808899,-0.06986289650555699,0.0027997137211263176
1772536285502428400,6.704428466796875,-0.028238252490758894,-0.07441135359015315,0.0299813698310405
1772536285512477400,6.7144775390625,-0.03884966287612915,-0.07377338448017835,0.0024986484153196216
1772536285522525400,6.724525390625,-0.0028857845693826675,-0.06224891437049955,-0.03445431399401277
1772536285532574500,6.734574462890625,0.005249006569385528,-0.04275916447006166,-0.03629186815209687
1772536285542622500,6.74462255859375,-0.0297106631308794,-0.049600043340772386,-0.051243938090279696
1772536285552670500,6.75467041015625,-0.04444003022909164,-0.04756112139169127,-0.019480068756639955
1772536285562719500,6.764719482421875,-0.0815858117967844,-0.017171718749031423,-0.00925283538326621
1772536285572767500,6.774767578125,-0.08595511292219161,0.010150734071061015,-0.020965448476187882
1772536285582816500,6.78481640625,-0.06210778886675834,0.03719831547252834,-0.01853241264298558
1772536285592864500,6.794864501953125,-0.082630936935544,0.06263203193657099,-0.020488990070857107
1772536285602913300,6.804913330078125,-0.06446458112597465,0.064293498875387,0.003320997648872435
1772536285612961500,6.81496142578125,-0.03661971186697483,0.044067543654888866,0.021737638425081966
1772536285623009500,6.825009521484375,-0.047374330115318296,0.01551138432137668,0.041671369233354925
1772536285633058600,6.83505859375,-0.07089958260953426,0.0014321882275864482,0.06254818957801908
1772536285643106600,6.8451064453125,-0.043022564646601674,-0.0053912280516698954,0.04224423721786588
1772536285653155600,6.855155517578125,-0.01528407837152481,-0.0012010828854516148,0.010920257138833402
1772536285663203600,6.86520361328125,-0.008069324687123298,-0.006546937425434589,-0.006842559371143579
1772536285673252600,6.875252685546875,-0.02362520573735237,-0.028260245126858353,-0.010708952475711703
1772536285683300600,6.885300537109375,-0.026925416326522827,-0.037376119724847376,-0.010431048849783837
1772536285693348400,6.895348388671875,-0.024105098208785057,-0.0550440610256046,-0.02518061848580837
1772536285703397600,6.905397705078125,-0.04297580289542675,-0.06986413861457258,-0.0366897448958829
1772536285713445400,6.9154453125,-0.04522387408316135,-0.06293832140676676,-0.044676944257505236
1772536285723494700,6.92549462890625,-0.012168576699495314,-0.06949545143265276,-0.03798617791458964
1772536285733542400,6.93554248046875,-0.012661328652501105,-0.06209321235213428,-0.025064262097142635
1772536285743591400,6.94559130859375,-0.028567922836542126,-0.053444772602804,-0.03627360184304416
1772536285753639400,6.955639404296875,-0.017987492111325262,-0.04380337629336863,-0.032552973884716625
1772536285763687400,6.9656875,-0.020711364117264746,-0.0343472003577277,0.014857377392053603
1772536285773736400,6.975736328125,-0.044347675770521164,-0.017613434634543953,0.004973769824579358
1772536285783784400,6.985784423828125,-0.02622866623401642,0.0032885566839948293,0.002728000191785395
1772536285793833500,6.99583349609375,-0.01948211458325386,0.015089213386550546,0.017271927720494566
1772536285803881500,7.005881591796875,-0.054169981604814524,0.015665405839309095,0.021883549701794982
1772536285813930500,7.015930419921875,-0.04560615139901638,0.025940606540255248,0.015718049341998993
1772536285823978500,7.025978515625,-0.049321957051753997,0.018862777108512817,0.015428089952096342
1772536285834026500,7.036026611328125,-0.06576806493997574,0.00876899738907814,0.027999694494530557
1772536285844075500,7.046075439453125,-0.06340016676485538,0.008457008830457925,0.013938691644556819
1772536285854123500,7.05612353515625,-0.03534077797234058,0.0007239303603768348,-0.003407397290691733
1772536285864172500,7.066172607421875,-0.02946750202476978,-0.0052256987590342755,0.006709872902184724
1772536285874220300,7.07622021484375,-0.0598006809681654,-0.03384706881586462,0.0009239099118858575
1772536285884269600,7.08626953125,-0.04462824627757072,-0.042480347528681156,0.00375774509832263
1772536285894317300,7.0963173828125,-0.04366261611580848,-0.043970586086437106,-0.0070222998522222035
1772536285904365600,7.106365478515625,-0.01755143878161907,-0.055799044111371036,-0.02667019945643842
1772536285914414300,7.116414306640625,0.008244096732139586,-0.053875894029065965,-0.024382673041149973
1772536285924462600,7.126462646484375,0.0006762918263673782,-0.05557389358598738,-0.009896503581665456
1772536285934511400,7.136511474609375,-0.030495091506838795,-0.04759944410808384,-0.018033486677519975
1772536285944559600,7.1465595703125,-0.02525660633146763,-0.03936543037854135,-0.010215433337725698
1772536285954608400,7.1566083984375,-0.018522914162278175,-0.014793445310369134,0.0006969327555969358
1772536285964656600,7.16665673828125,-0.019145429974794386,0.014532748547568917,-0.007538359615579247
1772536285974704400,7.176704345703125,-0.008870119675993918,0.018003822191618384,0.03232753109838813
1772536285984753700,7.186753662109375,-0.03688333123922348,0.016956578161008654,0.03710143096931279
1772536285994801400,7.196801513671875,-0.02461129416525364,0.022190423693880437,0.017330452974699435
1772536286004850700,7.2068505859375,-0.014091069194674491,0.022766944940201938,0.010219926849752665
1772536286014898400,7.2168984375,-0.023888240587711333,0.02260210976731032,0.011438691522367298
1772536286024947700,7.22694775390625,-0.01393207924067974,0.0178176154371351,-0.0016272358756512402
1772536286034995500,7.236995361328125,-0.012090835288166998,0.010137326600216328,0.009420410502515733
1772536286045043500,7.24704345703125,-0.05408171879947185,-0.0011672536810860036,0.017201821626350283
1772536286055092500,7.257092529296875,-0.07553776380419731,-0.012358254052698612,-0.014311580077558755
1772536286065140500,7.267140380859375,-0.054478609162569046,-0.006045856035500764,-0.01679356961902231
1772536286075189500,7.277189453125,-0.06666530604064465,0.00711691933311522,-0.025387721897847947
1772536286085237500,7.287237548828125,-0.047511692759394646,0.0018812106367200611,-0.032539383750781414
1772536286095286500,7.29728662109375,-0.02859656440913677,-0.014239062830619513,-0.031972507115639745
1772536286105334500,7.30733447265625,-0.04385200120806694,-0.025887743841856718,-0.017068367972411215
1772536286115382800,7.3173828125,-0.029041970089077947,-0.037248657420277595,-0.009876849033124744
1772536286125431600,7.327431640625,-0.01556464887857437,-0.04887859719842672,0.0024247063962742686
1772536286135479600,7.3374794921875,-0.010994272223114967,-0.04384776342436671,0.017558087718114256
1772536286145528600,7.347528564453125,0.00365033920109272,-0.03402560372054576,0.006062624507211148
1772536286155576600,7.35757666015625,-0.006654197192192077,-0.016738441898301242,-0.004007116749510169
1772536286165625600,7.36762548828125,-0.025156068566441533,-0.013442651755921542,-0.013961013074219226
1772536286175673600,7.377673583984375,-0.027029461222887036,0.002428907647356391,-0.016838723935000598
1772536286185722600,7.38772265625,-0.034278701698780056,0.022629143904708323,-0.023053689459711313
1772536286195770600,7.3977705078125,-0.04004267205297947,0.020246230823546648,-0.0389161887736991
1772536286205818600,7.407818603515625,-0.04524140973985195,0.022557174647040663,-0.03352408393919468
1772536286215867400,7.417867431640625,-0.09980477457642555,0.03900167510006577,-0.012286138664558528
1772536286225915600,7.42791552734375,-0.09926935252547263,0.026155345269478856,-0.032625673794746395
1772536286235964400,7.43796435546875,-0.04505962343215942,0.034577282786555585,-0.029148535736091434
1772536286246012400,7.448012451171875,-0.05060498259961605,0.05119027167428285,-0.03097962362077087
1772536286256061400,7.4580615234375,-0.032847207590937615,0.027657347330264745,-0.019208631404116747
1772536286266109400,7.468109375,-0.025414427241683003,0.006450673976726829,-0.0017759236313402652
1772536286276157700,7.47815771484375,-0.019909400084614753,-0.0033663346279412506,-0.006821005126461386
1772536286286206500,7.48820654296875,-0.005395721563696861,-0.007487031287141144,0.01553001595661044
1772536286296254700,7.498254638671875,-0.01866787559092045,-0.014583784615062175,0.03355363882724195
1772536286306303500,7.508303466796875,0.012242810979485512,-0.020037958367727697,0.009169248753041028
1772536286316351700,7.518351806640625,0.00800561180114746,-0.023983590720966456,0.01593096144031733
1772536286326400500,7.528400390625,-0.008325929796695709,-0.03165642690379172,0.004669343517906963
1772536286336448800,7.53844873046875,-0.015071312403678892,-0.042311164974235,-0.002606492703966796
1772536286346496500,7.54849658203125,-0.04307283352911472,-0.04558236866462975,0.009721439275704324
1772536286356545500,7.558545654296875,-0.053446928027272224,-0.04860178955104202,-0.022622604566067454
1772536286366593500,7.568593505859375,-0.02677928585410118,-0.038177316572517155,-0.03232785989195108
1772536286376642600,7.578642578125,-0.03906242884397507,-0.04146879586596042,-0.032115897641703486
1772536286386690600,7.588690673828125,-0.0514957939594984,-0.06562525893580168,-0.020496150464005766
1772536286396739600,7.598739501953125,-0.04193360036611557,-0.06714998428504913,-0.02502363782580942
1772536286406787600,7.60878759765625,-0.028020225825905798,-0.061762555625662206,-0.04179992751646787
1772536286416836600,7.618836669921875,-0.046857612764835355,-0.0573866055637598,-0.027892873119190333
1772536286426884600,7.628884521484375,-0.06433014109134674,-0.05820139254536479,-0.029318777736462652
1772536286436932600,7.6389326171875,-0.03617839784026146,-0.03720522013735026,-0.03044635699428618
1772536286446981600,7.648981689453125,-0.009250058904290199,-0.02236716850027442,-0.032878077653236686
1772536286457029600,7.659029541015625,-0.03876198459267616,-0.011080708397552371,-0.030241518604569136
1772536286467078400,7.669078369140625,-0.05448737699091434,-0.009176482211425899,-0.012402385455369948
1772536286477126700,7.679126708984375,-0.03625380116403103,0.008475823128782213,-0.007858093089237808
1772536286487175400,7.689175537109375,-0.022508184406161307,0.025026268174313006,0.011813698847219348
1772536286497223700,7.6992236328125,-0.04616553884744644,0.0420559846367687,0.007747728049941361
1772536286507271400,7.709271484375,-0.031065000349283216,0.024480909251235423,0.007774469926394522
1772536286517320700,7.71932080078125,-0.027615736678242683,0.029345044688880443,0.01836059974003583
1772536286527368400,7.729368408203125,-0.018630466189980505,0.009518244853802024,0.011813004727475344
1772536286537417700,7.739417724609375,-0.014422493106126784,-0.006122976392321288,0.0038079409155994653
1772536286547465500,7.749465576171875,-0.03816284965574741,-0.02200608010292053,0.00919599062949419
1772536286557514800,7.7595146484375,-0.02164309200942516,-0.02864138993155211,-0.01370605193246156
1772536286567562500,7.7695625,-0.01545534328520298,-0.015674100602418185,-0.024623240331374106
1772536286577610500,7.779610595703125,-0.029925182664394378,-0.0269616932163015,-0.027869126917421817
1772536286587659500,7.789659423828125,-0.013446926072239875,-0.03393989819847047,-0.022119294686429203
1772536286597707500,7.79970751953125,-0.015839374166727066,-0.03281356104966253,-0.0012624942164868116
1772536286607756500,7.809756591796875,-0.038411855980753896,-0.028423655527643858,0.003683474285714328
1772536286617804500,7.819804443359375,-0.01772971795797348,-0.02707315423414111,0.0005195668946951627
1772536286627853600,7.829853515625,-0.02486731475293636,-0.014337262508086859,-0.004558649685047567
1772536286637901600,7.839901611328125,-0.03961071037650108,-0.004368387809954583,-0.01545501449164003
1772536286647949600,7.849949462890625,-0.010526654711365699,0.00569079552013427,-0.015045812636241315
1772536286657998600,7.85999853515625,-0.02831248677074909,0.002119987828657031,-0.018312230553664266
1772536286668046600,7.870046630859375,-0.05508826549351215,-0.0229145367173478,0.0015313012205064296
1772536286678095600,7.880095703125,-0.06881400850713253,-0.022350728822126985,0.03989146354664117
1772536286688143600,7.8901435546875,-0.05589139856994152,-0.0002550342069938779,0.014293386833742261
1772536286698192600,7.900192626953125,-0.024849194574356078,0.02783946243152022,0.0016251900490373372
1772536286708240400,7.910240478515625,-0.028082185146212576,0.04938789842743426,0.009071670130081474
1772536286718289700,7.92028955078125,-0.03940905032455921,0.04458605110365897,0.02298716356214136
1772536286728337400,7.93033740234375,-0.0075479311615228644,0.03834485515914857,0.011764927802048623
1772536286738385700,7.9403857421875,-0.022418168035149573,0.022846805243380366,-0.0063044704390689725
1772536286748434400,7.950434326171875,-0.009768529820442198,0.0024596315791830417,-0.01003938265107572
1772536286758482400,7.960482421875,0.004969605106115341,-0.013696188125573099,0.002527984107658267
1772536286768531500,7.970531494140625,0.0033048867642879484,-0.04785575695671141,-0.00018010580725967882
1772536286778579500,7.980579345703125,-0.022964111480116844,-0.07207293723784387,-0.005960661970078945
1772536286788628500,7.99062841796875,-0.010138532176613807,-0.07271803020834923,-0.02782810078728944
1772536286798676500,8.000676513671875,-0.033228315863013266,-0.032842823676764964,-0.026803908838704225
1772536286808724700,8.010724853515624,-0.05049684605002403,-0.015672675830312073,-0.05184398634266108
1772536286818773500,8.0207734375,-0.02395721417069435,-0.02565736915208399,-0.08598320650551468
1772536286828821800,8.03082177734375,-0.04624795643389225,-0.00446395713891834,-0.0406423915117979
1772536286838870500,8.04087060546875,-0.10413374369144439,-0.011685615488141775,-0.031011845389939844
1772536286848918800,8.050918701171875,-0.10498071590960026,-0.005816504259034991,-0.01844371144622564
1772536286858967600,8.060967529296875,-0.060382280248403544,0.014582359842956066,-0.016327011553198097
1772536286869015600,8.071015625,-0.05027531225383281,0.03455905301012099,-0.02078632904961705
1772536286879063600,8.0810634765625,-0.05037935715019703,0.025404088510759173,-0.00956931745391339
1772536286889112600,8.091112548828125,-0.042564299485087394,0.018298786550201476,0.0021488120643422008
1772536286899160600,8.10116064453125,-0.023394904112815855,0.009500197740457952,0.018466873126104472
1772536286909209600,8.111209716796875,-0.051180152139067646,-0.004740216797031462,0.018000351592898367
1772536286919257600,8.121257568359376,-0.05722177039086818,-0.011601517401263117,0.004287468060851097
1772536286929306600,8.131306640625,-0.025832944914698598,-0.0017238646505400538,-0.011849318149872123
1772536286939354600,8.141354736328125,-0.016598668101429938,-0.009161540370620787,-0.010203194910660386
1772536286949402600,8.151402587890624,-0.02218377475738525,-0.02748166196979582,-0.027043635878711936
1772536286959451600,8.16145166015625,-0.014607786545157432,-0.04409592949915677,-0.04477379222810268
1772536286969499400,8.17149951171875,-0.013628127858042717,-0.04439498551096767,-0.03464764460902661
1772536286979548400,8.18154833984375,-0.05319324552714824,-0.04631291142888367,-0.03155862908512354
1772536286989596400,8.191596435546876,-0.02944879732429981,-0.04806611177176237,-0.05003748490996659
1772536286999645400,8.2016455078125,0.00833762023448944,-0.034341793530248105,-0.032897987930104136
1772536287009693400,8.211693359375,-0.005517302116751671,-0.032866204552352424,-0.01230674306116998
1772536287019742500,8.221742431640624,-0.01261456690132618,-0.05710260099060833,0.0028691987607628107
1772536287029790500,8.23179052734375,-0.0041238019317388535,-0.04966046829111874,0.012706008044444024
1772536287039838500,8.24183837890625,-0.02073474499285221,-0.05123929844778031,0.030222412045300004
1772536287049887500,8.251887451171875,-0.013078677281737327,-0.034977132291719316,0.00830649444386363
1772536287059935200,8.261935302734376,-0.014400865796208381,-0.0135733289308846,0.002320369238965213
1772536287069984500,8.271984619140625,-0.024846271964907643,-0.004132679357938468,0.012454809762351214
1772536287080032300,8.2820322265625,-0.06579612199068069,0.008755005396343767,0.02914243478886783
1772536287090081500,8.29208154296875,-0.0754816497027874,0.009455079957097769,0.0000706540834158659
1772536287100129300,8.30212939453125,-0.04656768990755081,0.026515045427344737,0.0010761413315311073
1772536287110177500,8.312177490234374,-0.07050970650911331,0.03834375918060541,0.013505743587389587
1772536287120226300,8.322226318359375,-0.09268120630681514,0.023744594333320854,-0.005521138041652739
1772536287130274600,8.332274658203126,-0.0646364305615425,0.02945372922774404,-0.013653591092862188
1772536287140323300,8.3423232421875,-0.05834463694095611,0.024954846905916928,-0.0074051616899669164
1772536287150371600,8.35237158203125,-0.08930442335009574,0.00007785100918263196,-0.0031593773463740944
1772536287160420400,8.36242041015625,-0.06519990966320037,-0.018392492715641855,-0.019131109188497065
1772536287170468400,8.37246826171875,-0.015681553256511688,-0.02654799784887582,-0.03641523880343884
1772536287180516600,8.3825166015625,-0.03139174808561802,-0.03396444811783731,-0.024641945031844078
1772536287190565400,8.3925654296875,-0.07488134572207927,-0.05939988161493093,-0.015931545962207017
1772536287200613400,8.40261328125,0.01103109710216522,-0.04333992350008339,-0.057081813930906354
1772536287210662400,8.412662353515625,0.04209668197333812,-0.0046820203363895415,-0.04422200356423855
1772536287220710400,8.42271044921875,-0.024833997005224227,-0.013701302692107856,-0.029169724654592572
1772536287230759400,8.432759521484375,-0.011533785927295684,-0.03231200473569333,-0.014052271554246544
1772536287240807400,8.442807373046875,0.0012070377022027968,-0.014085845030285418,-0.015237608881294726
1772536287250856400,8.4528564453125,0.0036731355547904966,-0.008888166789337992,-0.022728658756427465
1772536287260904400,8.462904541015625,0.0078045362710952755,-0.013731295971572398,-0.021745419872738418
1772536287270952400,8.472952392578126,0.0224345346480608,0.00022069354597479104,-0.009137209646962583
1772536287281001200,8.483001220703125,0.0007248071432113647,-0.012748130153119564,-0.02028042535409331
1772536287291049500,8.493049560546876,0.0005962123274803161,-0.02201660149693489,-0.01561352952159941
1772536287301098200,8.50309814453125,-0.024053660282492638,-0.012682371440529822,0.00011467588823288679
1772536287311146500,8.513146484375,-0.05928805527091026,-0.008633424843288958,-0.018804836376197634
1772536287321195300,8.5231953125,-0.033926234999299046,-0.014329882919229566,-0.01832359219789505
1772536287331243500,8.533243408203125,0.002777063497900963,-0.013295827163755892,-0.024939831999875605
1772536287341291500,8.54329150390625,-0.026247370934486387,-0.01941664813160896,-0.00992488942593336
1772536287351340500,8.553340576171875,-0.04570668916404247,-0.033581330551765855,-0.020108685516379773
1772536287361388500,8.563388427734376,-0.04571428794860839,-0.01605509927663952,0.005092098974622786
1772536287371437600,8.5734375,-0.08641162451803684,-0.0013207272097468376,0.0030901480350643395
1772536287381485600,8.583485595703126,-0.05470657269954681,-0.010707418105751276,-0.02039079039338976
1772536287391534300,8.593534423828125,-0.029602526581287383,-0.01979501645732671,-0.007457951323129236
1772536287401582600,8.60358251953125,-0.05045066882073879,-0.02863485059291124,0.027624175713025032
1772536287411630300,8.61363037109375,-0.04271569065451622,-0.05099803703781217,0.0247892810806632
1772536287421679600,8.6236796875,-0.033633974054455756,-0.05068067818433046,0.001608750370889902
1772536287431727400,8.633727294921876,-0.04727203878462315,-0.046253655522316695,-0.00883070098105818
1772536287441776600,8.643776611328125,-0.05686638108193874,-0.04129256251621991,-0.0005949336858466267
1772536287451824400,8.653824462890626,-0.040431379109621045,-0.032972514471039174,0.011754479473270475
1772536287461873400,8.663873291015625,-0.05261515337824821,-0.01806760814283043,0.014219152553752064
1772536287471921400,8.67392138671875,-0.05597381615638732,-0.009270955561846494,0.008440386489219963
1772536287481969400,8.683969482421874,-0.0490256044536829,0.001535867797769606,0.022811076342873274
1772536287492018400,8.694018310546875,-0.06017652854323387,0.009267996419779956,0.011932575986534357
1772536287502066400,8.70406640625,-0.0026437925070524216,0.017503654117137193,-0.009190876062959432
1772536287512115500,8.714115478515625,0.00922609350681305,0.018865115196071564,0.01609459103681147
1772536287522163500,8.72416357421875,-0.02347498361170292,0.0019815657386556265,0.014152443993091582
1772536287532212500,8.73421240234375,-0.016667057162523268,-0.022477460474334656,0.007799348639324307
1772536287542260500,8.744260498046875,-0.007920856127142906,-0.011364786035940051,0.013055479069240391
1772536287552309500,8.7543095703125,0.015035656568408011,-0.012618512424081563,-0.019313991474732756
1772536287562357500,8.764357421875,0.028864275434613226,-0.028605953291989863,-0.033163360868021845
1772536287572405200,8.7744052734375,0.004898293435573578,-0.038119083579257126,-0.012118052088655532
1772536287582454500,8.78445458984375,0.018301964887976644,-0.05455035922452807,-0.03291051861811429
1772536287592502300,8.794502197265626,-0.026398177582025527,-0.04878098204284906,0.028261633366346357
1772536287602551600,8.804551513671875,0.2102531082421541,-0.03338847486078739,-0.07946512984838336
1772536287612599300,8.814599365234375,0.10243044690489768,0.02120689254924655,0.015797507786378263
1772536287622648600,8.824648681640625,-0.13048691308796406,-0.009054097940772771,-0.014487849959917365
1772536287632696300,8.8346962890625,-0.06672083562016487,-0.02604903535079211,-0.0817141143515706
1772536287642744600,8.84474462890625,-0.02424655250608921,-0.029060565191693602,-0.05592274355627596
1772536287652793300,8.85479345703125,-0.11303367398381232,-0.04163527500666678,-0.0034247137516736983
1772536287662841600,8.864841552734376,-0.09437515074312687,-0.08002079096976668,-0.0009571911269798875
1772536287672890400,8.874890380859375,-0.08955284515321255,-0.05309884524196386,0.01840783641524613
1772536287682938400,8.8849384765625,-0.14111469008624553,-0.005383738864958286,0.018895108475536108
1772536287692987400,8.8949873046875,-0.1301455523043871,-0.0017740604678168892,-0.002774944606050849
1772536287703035400,8.905035400390625,-0.13206804479956627,0.008114004079066216,0.009527560671418904
1772536287713084400,8.91508447265625,-0.14893617749214172,-0.002817285910435021,0.029643296983093023
1772536287723132400,8.92513232421875,-0.11356325081586838,-0.008441299804672599,0.03477159978225827
1772536287733180400,8.935180419921876,0.001626139897108078,0.01467865982428193,0.025865568542666733
1772536287743229400,8.9452294921875,0.07728665329813957,0.031216829910129307,0.020821400362998246
