time,seconds_elapsed,z,y,x
1772536278900618800,0.10261865234375,-0.07816145569086075,-0.0792078897356987,0.10301473736763
1772536278910667800,0.112667724609375,-0.048356592655181885,-0.054770223796367645,0.09455981105566025
1772536278920715800,0.1227158203125,-0.014860949479043484,-0.017449485138058662,0.09627141803503036
1772536278930763800,0.132763671875,0.00036401208490133286,0.014621885493397713,0.10315030068159103
1772536278940812800,0.142812744140625,-0.009266777895390987,0.025586385279893875,0.10460598021745682
1772536278950860300,0.1528603515625,-0.015110362321138382,0.013153872452676296,0.08989998698234558
1772536278960908300,0.162908203125,-0.012436017394065857,-0.017646383494138718,0.0641685277223587
1772536278970957300,0.172957275390625,-0.004438071511685848,-0.05423503369092941,0.03010503575205803
1772536278981005300,0.18300537109375,0.010451661422848701,-0.08922071754932404,-0.010129204019904137
1772536278991054300,0.193054443359375,0.030937228351831436,-0.11496682465076447,-0.04918499290943146
1772536279001102300,0.203102294921875,0.055488646030426025,-0.13085125386714935,-0.07645763456821442
1772536279011150000,0.213150146484375,0.07624006271362305,-0.15578775107860565,-0.09692555665969849
1772536279021199000,0.22319921875,0.08992870151996613,-0.17885231971740723,-0.1142992153763771
1772536279031247000,0.2332470703125,0.08965213596820831,-0.16719187796115875,-0.11092980951070786
1772536279041296100,0.243296142578125,0.07295571267604828,-0.11835829168558121,-0.09530425071716309
1772536279051344100,0.25334423828125,0.05074654147028923,-0.07468632608652115,-0.07546907663345337
1772536279061392400,0.263392333984375,0.03497450053691864,-0.04240375757217407,-0.0727907344698906
1772536279071441200,0.273441162109375,0.040245551615953445,-0.021988358348608017,-0.07499895244836807
1772536279081489400,0.283489501953125,0.056852757930755615,-0.02519427239894867,-0.08117375522851944
1772536279091538200,0.2935380859375,0.06920264661312103,-0.05696666240692139,-0.06464441865682602
1772536279101586400,0.30358642578125,0.06990332156419754,-0.09755828976631165,-0.03461488336324692
1772536279111634200,0.31363427734375,0.05991918221116066,-0.12431737780570984,-0.010990607552230358
1772536279121683200,0.32368310546875,0.04181181639432907,-0.13369597494602203,-0.005390512757003307
1772536279131731200,0.333731201171875,0.018811089918017387,-0.12454793602228165,-0.013077689334750175
1772536279141780200,0.3437802734375,-0.0022891350090503693,-0.11210991442203522,-0.01961415261030197
1772536279151828200,0.353828125,-0.016689294949173927,-0.11386828869581223,-0.02026090957224369
1772536279161876200,0.363876220703125,-0.013003479689359665,-0.1346832811832428,-0.01099364273250103
1772536279171925200,0.37392529296875,0.013398118317127228,-0.1338096559047699,0.0038930189330130816
1772536279181973200,0.38397314453125,0.03948644548654556,-0.10090149939060211,0.024975666776299477
1772536279192022300,0.394022216796875,0.05199742689728737,-0.053838036954402924,0.026609355583786964
1772536279202070300,0.4040703125,0.04666178300976753,-0.018778320401906967,0.01972055621445179
1772536279212118300,0.4141181640625,0.02295118384063244,-0.009838112629950047,-0.0015067445347085595
1772536279222167300,0.424167236328125,-0.000500878319144249,-0.03137749433517456,-0.008897815831005573
1772536279232215000,0.434215087890625,-0.014449465088546276,-0.05399457365274429,-0.011489499360322952
1772536279242264300,0.444264404296875,-0.021146249026060104,-0.06203678622841835,-0.006020164582878351
1772536279252312000,0.45431201171875,-0.004682688042521477,-0.04538091644644737,0.0021308427676558495
1772536279262360300,0.4643603515625,0.012230249121785164,-0.008990418165922165,0.011415154673159122
1772536279272409000,0.4744091796875,0.019594691693782806,0.02676224894821644,0.017581287771463394
1772536279282457000,0.48445703125,0.016646305099129677,0.05066438764333725,0.017966914921998978
1772536279292506000,0.494506103515625,0.011213197372853756,0.06508558988571167,0.022683417424559593
1772536279302554000,0.50455419921875,0.0027480735443532467,0.05769052356481552,0.014795932918787003
1772536279312602400,0.514602294921875,-0.0022821975871920586,0.040089432150125504,0.007105880416929722
1772536279322651100,0.524651123046875,-0.007071360945701599,0.02094157040119171,-0.00819105003029108
1772536279332699400,0.534699462890625,-0.015537533909082413,0.010161277838051319,-0.02383056841790676
1772536279342748200,0.544748046875,-0.023680415004491806,-0.005893854424357414,-0.04109663888812065
1772536279352796400,0.55479638671875,-0.034975387156009674,-0.02793034538626671,-0.043693967163562775
1772536279362844200,0.56484423828125,-0.04008013382554054,-0.03883811831474304,-0.04896968603134155
1772536279372893400,0.5748935546875,-0.03945685178041458,-0.035853829234838486,-0.052385542541742325
1772536279382941200,0.584941162109375,-0.04081985726952553,-0.02263975515961647,-0.059731606394052505
1772536279392990500,0.594990478515625,-0.039639927446842194,0.005293203983455896,-0.06097138300538063
1772536279403038200,0.6050380859375,-0.03846707195043564,0.021017305552959442,-0.06895740330219269
1772536279413086200,0.615086181640625,-0.0491788275539875,0.016053663566708565,-0.06794433295726776
1772536279423135200,0.62513525390625,-0.05812118574976921,-0.0064833383075892925,-0.05920303985476494
1772536279433183200,0.635183349609375,-0.059313178062438965,-0.025536637753248215,-0.04856828600168228
1772536279443232300,0.645232177734375,-0.04959210753440857,-0.04493563622236252,-0.04958881065249443
1772536279453280300,0.6552802734375,-0.03494976460933685,-0.05233979970216751,-0.05709199234843254
1772536279463328000,0.665327880859375,-0.025574104860424995,-0.06523029506206512,-0.07150795310735703
1772536279473377300,0.675377197265625,-0.01870044879615307,-0.09198012948036194,-0.08798844367265701
1772536279483425000,0.685425048828125,-0.015674831345677376,-0.11059456318616867,-0.0879301205277443
1772536279493474300,0.695474365234375,-0.008979507721960545,-0.09128496050834656,-0.07854292541742325
1772536279503522000,0.70552197265625,-0.005164530128240585,-0.046785932034254074,-0.0597897469997406
1772536279513570300,0.7155703125,0.001989020500332117,0.004826802760362625,-0.03985581919550896
1772536279523619000,0.725619140625,0.013072830624878407,0.05547267198562622,-0.023067783564329147
1772536279533667300,0.735667236328125,0.02986328676342964,0.087520532310009,-0.012155735865235329
1772536279543716000,0.745716064453125,0.03558215871453285,0.08803532272577286,0.0007472799625247717
1772536279553764400,0.755764404296875,0.032466404139995575,0.07563333213329315,0.014807254076004028
1772536279563812400,0.765812255859375,0.02870868146419525,0.06195400655269623,0.03184802085161209
1772536279573861000,0.775861083984375,0.019635774195194244,0.04453452304005623,0.04699654504656792
1772536279583909400,0.785909423828125,0.01931219920516014,0.02149898000061512,0.053660839796066284
1772536279593958100,0.795958251953125,0.02036028727889061,-0.005422252230346203,0.04419056326150894
1772536279604006400,0.80600634765625,0.027558011934161186,-0.02836485207080841,0.0348452664911747
1772536279614054100,0.81605419921875,0.026911921799182892,-0.026035606861114502,0.03726660832762718
1772536279624103400,0.826103515625,0.01757514476776123,-0.011877711862325668,0.059497613459825516
1772536279634151200,0.836151123046875,0.0024042492732405663,0.006678860634565353,0.08300130069255829
1772536279644200400,0.846200439453125,0.00020927190780639648,0.020814919844269753,0.09098359942436218
1772536279654248200,0.856248291015625,0.013695592992007732,0.03155907243490219,0.07637840509414673
1772536279664296200,0.866296142578125,0.025407109409570694,0.0299164317548275,0.05441451445221901
1772536279674345200,0.87634521484375,0.02778438664972782,0.015811624005436897,0.04632178321480751
1772536279684393200,0.886393310546875,0.019080642610788345,-0.003563671140000224,0.042201608419418335
1772536279694442200,0.896442138671875,0.014879535883665085,-0.006765448953956366,0.04457997903227806
1772536279704490200,0.906490234375,0.01133300457149744,0.003424870315939188,0.04157806187868118
1772536279714538200,0.916538330078125,0.013884312473237514,0.02135726623237133,0.033402424305677414
1772536279724587300,0.926587158203125,0.013539699837565422,0.03477346897125244,0.014377332292497158
1772536279734635000,0.936635009765625,0.010178017430007458,0.022041533142328262,-0.01305743120610714
1772536279744684300,0.946684326171875,-0.00322700385004282,-0.006340838968753815,-0.034645017236471176
1772536279754732000,0.95673193359375,-0.021451838314533234,-0.032777074724435806,-0.05242699757218361
1772536279764780300,0.9667802734375,-0.029831212013959885,-0.0563199520111084,-0.061246853321790695
1772536279774829000,0.9768291015625,-0.03551226481795311,-0.06612677872180939,-0.06141010671854019
1772536279784877300,0.986877197265625,-0.032508485019207,-0.05482432246208191,-0.06691006571054459
1772536279794926000,0.996926025390625,-0.021723147481679916,-0.03814154863357544,-0.06217100843787193
1772536279804974300,1.006974365234375,-0.01969302073121071,-0.017477549612522125,-0.06284505873918533
1772536279815022300,1.017022216796875,-0.018115058541297913,-0.00020209839567542076,-0.05407360568642616
1772536279825071400,1.0270712890625,-0.011079252697527409,0.014367257244884968,-0.052343081682920456
1772536279835119400,1.037119384765625,-0.007509492337703705,0.022455252707004547,-0.038670726120471954
1772536279845168000,1.047168212890625,-0.0018579987809062004,0.024360477924346924,-0.029086541384458542
1772536279855216400,1.05721630859375,0.0027458658441901207,0.02096572145819664,-0.01823606714606285
1772536279865264000,1.06726416015625,0.001067807897925377,0.02030978724360466,-0.013403493911027908
1772536279875313400,1.0773134765625,-0.0022055786103010178,0.014219782315194607,-0.013628232292830944
1772536279885361200,1.087361083984375,-0.00643174909055233,0.002283761277794838,-0.010576516389846802
1772536279895410200,1.09741015625,-0.009103142656385899,-0.011608663946390152,-0.007717607077211142
1772536279905458200,1.107458251953125,-0.006142772734165192,-0.003546476596966386,-0.001522828359156847
1772536279915507200,1.117507080078125,-0.0016865739598870277,0.0022334884852170944,0.004950398579239845
1772536279925555200,1.12755517578125,0.003178488928824663,0.01087171770632267,0.011460762470960617
1772536279935603200,1.137603271484375,0.006896984297782183,0.01378026232123375,0.017368068918585777
1772536279945652200,1.14765234375,0.00572439469397068,0.01733851060271263,0.01665487512946129
1772536279955700500,1.157700439453125,0.005614140070974827,0.006693857256323099,0.013267066329717636
1772536279965749500,1.16774951171875,0.008611403405666351,-0.0065944259986281395,0.012012531980872154
1772536279975797500,1.177797607421875,0.019974345341324806,-0.003220099024474621,0.014327941462397575
1772536279985845200,1.18784521484375,0.028743069618940353,0.01865191012620926,0.022443924099206924
1772536279995894500,1.19789453125,0.031493764370679855,0.035785771906375885,0.02361905202269554
1772536280005942300,1.2079423828125,0.03427410498261452,0.040313415229320526,0.011688624508678913
1772536280015991600,1.217991455078125,0.03486001119017601,0.03979059308767319,-0.0018530117813497782
1772536280026039300,1.228039306640625,0.0318937823176384,0.04390197992324829,-0.019609637558460236
1772536280036087600,1.238087646484375,0.02948833256959915,0.04861748218536377,-0.034153278917074203
1772536280046136300,1.24813623046875,0.024503163993358612,0.05085240304470062,-0.0435025729238987
1772536280056184600,1.2581845703125,0.024733811616897583,0.04774041846394539,-0.060895517468452454
1772536280066233300,1.2682333984375,0.025591351091861725,0.053643848747015,-0.06684181839227676
1772536280076281600,1.278281494140625,0.022201474756002426,0.05173642560839653,-0.07122568786144257
1772536280086329300,1.288329345703125,0.012815162539482117,0.04269685596227646,-0.08025966584682465
1772536280096378400,1.29837841796875,0.002409675158560276,0.023371854797005653,-0.08792567998170853
1772536280106426400,1.30842626953125,-0.01116152759641409,0.004812019411474466,-0.08512616157531738
1772536280116475400,1.318475341796875,-0.022294536232948303,-0.010885557159781456,-0.0834602490067482
1772536280126523400,1.3285234375,-0.02943526953458786,-0.022431159391999245,-0.07495836913585663
1772536280136571400,1.3385712890625,-0.03359687328338623,-0.018784280866384506,-0.06596111506223679
1772536280146620400,1.348620361328125,-0.0341273732483387,-0.012478447519242764,-0.05429487302899361
1772536280156668400,1.35866845703125,-0.027195103466510773,-0.006354266777634621,-0.04219377413392067
1772536280166717400,1.368717529296875,-0.017839685082435608,0.00580332987010479,-0.022598769515752792
1772536280176765400,1.378765380859375,-0.01351791899651289,0.013988332822918892,-0.0065718721598386765
1772536280186813400,1.3888134765625,-0.012693670578300953,0.013425873592495918,0.007997749373316765
1772536280196862500,1.398862548828125,-0.01426674798130989,0.017404384911060333,0.022771969437599182
1772536280206910500,1.408910400390625,-0.009496759623289108,0.018386289477348328,0.02896062284708023
1772536280216959500,1.41895947265625,-0.011235781945288181,0.012753313407301903,0.0341251939535141
1772536280227007500,1.429007568359375,-0.003961890935897827,0.011978600174188614,0.030346166342496872
1772536280237056500,1.439056396484375,-0.007447398267686367,0.01762087270617485,0.026424719020724297
1772536280247104500,1.4491044921875,-0.00891613308340311,0.014550249092280865,0.012552311643958092
1772536280257152500,1.459152587890625,-0.01666365936398506,0.015423858538269997,-0.006760053336620331
1772536280267201500,1.469201416015625,-0.022593453526496887,-0.00043073808774352074,-0.015429707244038582
1772536280277249300,1.479249267578125,-0.02421572431921959,-0.01563991978764534,-0.014991159550845623
1772536280287298600,1.489298583984375,-0.025201357901096344,-0.027634795755147934,-0.01499941572546959
1772536280297346300,1.49934619140625,-0.01821945235133171,-0.030149387195706367,-0.010523458942770958
1772536280307394600,1.50939453125,-0.015304356813430786,-0.029823683202266693,-0.004210702609270811
1772536280317443300,1.519443359375,-0.012409892864525318,-0.020371990278363228,0.004656633362174034
1772536280327491600,1.52949169921875,-0.012890859507024288,-0.007947278209030628,0.010082291439175606
1772536280337540400,1.539540283203125,-0.013169100508093834,0.006678778678178787,0.013229039497673512
1772536280347588600,1.549588623046875,-0.011076388880610466,0.010079368948936462,0.009528843685984612
1772536280357636400,1.55963623046875,-0.011132781393826008,0.004500245675444603,0.007626776583492756
1772536280367685600,1.569685546875,-0.012640929780900478,-0.012977814301848412,0.0037920905742794275
1772536280377733400,1.5797333984375,-0.01131283026188612,-0.016601761803030968,0.0067230043932795525
1772536280387782400,1.589782470703125,-0.012774373404681683,-0.022130217403173447,0.01643368788063526
1772536280397830400,1.599830322265625,-0.013902203179895878,-0.017711583524942398,0.02338017337024212
1772536280407878400,1.60987841796875,-0.015889719128608704,-0.007016328629106283,0.03670636564493179
1772536280417927400,1.619927490234375,-0.01785590872168541,0.004021549131721258,0.04238572344183922
1772536280427975400,1.629975341796875,-0.017328336834907532,0.008147584274411201,0.03372645378112793
1772536280438024400,1.6400244140625,-0.012656334787607193,0.009538162499666214,0.03347282484173775
1772536280448072400,1.650072509765625,-0.012205727398395538,0.012800801545381546,0.02782851830124855
1772536280458121500,1.66012158203125,-0.010285363532602787,0.02234795317053795,0.03180241957306862
1772536280468169500,1.67016943359375,-0.009591610170900822,0.030205342918634415,0.03037549927830696
1772536280478217500,1.680217529296875,-0.009823364205658436,0.028702810406684875,0.022690990939736366
1772536280488266500,1.6902666015625,-0.008737062104046345,0.019337274134159088,0.020655004307627678
1772536280498314500,1.700314453125,-0.010067345574498177,0.013978096656501293,0.01608617790043354
1772536280508363500,1.710363525390625,-0.005144491791725159,0.00315740704536438,0.009896459057927132
1772536280518411500,1.72041162109375,0.0002554692327976227,-0.005972886458039284,0.003778043668717146
1772536280528459500,1.73045947265625,-0.0009554699063301086,-0.010313838720321655,0.0020898659713566303
1772536280538508300,1.74050830078125,-0.005719889886677265,-0.015981409698724747,0.0021123304031789303
1772536280548556300,1.750556396484375,-0.0056077707558870316,-0.008053978905081749,0.0011834197212010622
1772536280558605300,1.760605224609375,-0.0000014593824744224548,0.005378470756113529,0.005734936334192753
1772536280568653300,1.7706533203125,-0.0014052120968699455,0.01962132193148136,0.0056196218356490135
1772536280578701600,1.78070166015625,0.0009330399334430695,0.021034736186265945,0.00033693015575408936
1772536280588750300,1.790750244140625,0.0038955407217144966,0.016224004328250885,-0.0029470138251781464
1772536280598798600,1.800798583984375,0.011083408258855343,0.007562913931906223,-0.009445132687687874
1772536280608847400,1.810847412109375,0.009029578417539597,-0.0014947629533708096,-0.010044876486063004
1772536280618895600,1.8208955078125,0.007643877528607845,-0.006255714222788811,-0.008168363943696022
1772536280628943400,1.830943359375,0.003890684340149164,-0.002126749139279127,-0.0003985917428508401
1772536280638992600,1.84099267578125,0.0011955401860177517,0.0006260625086724758,0.003512354101985693
1772536280649040400,1.851040283203125,0.004304780624806881,0.0018492522649466991,0.003215944394469261
1772536280659089400,1.86108935546875,0.012384546920657158,0.0035855481401085854,0.010774806141853333
1772536280669137400,1.871137451171875,0.011483865790069103,0.0019567590206861496,0.017361868172883987
1772536280679186400,1.8811865234375,0.01275130920112133,-0.0027899593114852905,0.027471816167235374
1772536280689234400,1.891234375,0.011474323458969593,0.0015507270582020283,0.039389196783304214
1772536280699282400,1.901282470703125,0.008227109909057617,0.0035527083091437817,0.04591963812708855
1772536280709331500,1.91133154296875,0.0016134153120219707,0.00018354319036006927,0.04504505917429924
1772536280719379500,1.92137939453125,-0.004498991183936596,0.001569568645209074,0.040147893130779266
1772536280729428500,1.931428466796875,-0.008115828968584538,-0.0067948875948786736,0.03503409028053284
1772536280739476500,1.9414765625,-0.010598140768706799,-0.010992646217346191,0.03395513817667961
1772536280749524500,1.9515244140625,-0.006186347454786301,-0.007291650865226984,0.03716078773140907
1772536280759573500,1.961573486328125,-0.0028352374210953712,0.013226160779595375,0.03735887631773949
1772536280769621200,1.971621337890625,-0.005549530498683453,0.024952057749032974,0.034772682934999466
1772536280779670500,1.98167041015625,-0.015381607227027416,0.012320168316364288,0.023069487884640694
1772536280789718300,1.99171826171875,-0.018373936414718628,0.0028385152108967304,0.012660788372159004
1772536280799766500,2.0017666015625,-0.01481646578758955,0.0021193791180849075,0.009963965974748135
1772536280809815300,2.011815185546875,-0.01464122999459505,0.00018805498257279396,0.009485396556556225
1772536280819863600,2.021863525390625,-0.018538974225521088,-0.013104157522320747,0.000509446719661355
1772536280829912300,2.031912353515625,-0.020560313016176224,-0.03821137547492981,-0.011376507580280304
1772536280839960300,2.041960205078125,-0.020501166582107544,-0.0469692200422287,-0.013903426006436348
1772536280850008600,2.052008544921875,-0.006957661360502243,-0.01544724777340889,0.008099078200757504
1772536280860057300,2.062057373046875,0.0033591175451874733,0.02712971344590187,0.02456960268318653
1772536280870105600,2.072105712890625,0.010855649597942829,0.04119227081537247,0.035357002168893814
1772536280880154400,2.082154296875,0.015905721113085747,0.03462954983115196,0.036986738443374634
1772536280890202600,2.09220263671875,0.01394217275083065,0.01403399370610714,0.03382929414510727
1772536280900251400,2.10225146484375,0.006910708732903004,-0.008059963583946228,0.017804907634854317
1772536280910299600,2.112299560546875,0.011518243700265884,-0.0038596258964389563,0.016033105552196503
1772536280920347400,2.122347412109375,0.01350703276693821,0.02863096259534359,0.018624670803546906
1772536280930396700,2.132396728515625,0.010189798660576344,0.04638439416885376,0.02166706696152687
1772536280940444400,2.1424443359375,0.004695144481956959,0.04100968688726425,0.01705510914325714
1772536280950493400,2.152493408203125,0.004726037383079529,0.0171688012778759,0.011861146427690983
1772536280960545300,2.162545166015625,0.0006823907606303692,-0.004908460658043623,-0.003788906615227461
1772536280970593300,2.17259326171875,-0.000020683743059635162,-0.01522101927548647,-0.011284107342362404
1772536280980642300,2.182642333984375,-0.004796914756298065,-0.013476068153977394,-0.02192574553191662
1772536280990690300,2.192690185546875,-0.0022970056161284447,0.0003755656071007252,-0.025738326832652092
1772536281000739300,2.2027392578125,0.0038661635480821133,0.020857520401477814,-0.020212411880493164
1772536281010787300,2.212787353515625,0.00726089533418417,0.02354012429714203,-0.014993680641055107
1772536281020836000,2.222836181640625,0.005305919796228409,0.016461333259940147,-0.007295046001672745
1772536281030884400,2.23288427734375,0.005828964523971081,0.008650548756122589,-0.007703308016061783
1772536281040932000,2.24293212890625,0.002790298778563738,0.0022532292641699314,-0.0024646215606480837
1772536281050981400,2.2529814453125,0.0021202475763857365,-0.0034597835037857294,-0.003802061080932617
1772536281061029000,2.263029052734375,-0.0021843602880835533,-0.006757934112101793,-0.00290518905967474
1772536281071078400,2.273078369140625,-0.003879462368786335,-0.007529984228312969,-0.0007112771272659302
1772536281081126100,2.283126220703125,-0.004957402125000954,-0.013089917600154877,0.0006352474447339773
1772536281091174100,2.293174072265625,0.0005489503964781761,-0.007983306422829628,0.004308279138058424
1772536281101223200,2.30322314453125,0.006633761804550886,0.006745755206793547,0.006744167301803827
1772536281111271200,2.313271240234375,0.009565102867782116,0.020281536504626274,0.009110385552048683
1772536281121320200,2.3233203125,0.012227275408804417,0.017459725961089134,0.008353378623723984
1772536281131368200,2.3333681640625,0.013141006231307983,0.016623493283987045,0.00790809839963913
1772536281141417200,2.343417236328125,0.01332460530102253,0.014233915135264397,0.0031365256290882826
1772536281151465200,2.35346533203125,0.014317432418465614,0.011828549206256866,0.0036571735981851816
1772536281161513200,2.36351318359375,0.015484347939491272,0.013467073440551758,0.002011482371017337
1772536281171562200,2.373562255859375,0.013146623969078064,0.00640064338222146,-0.003941481467336416
1772536281181610200,2.3836103515625,0.013811450451612473,-0.0037289224565029144,-0.00781769398599863
1772536281191659300,2.3936591796875,0.009681952185928822,-0.011057142168283463,-0.018590979278087616
1772536281201707000,2.40370703125,0.009051604196429253,-0.011497223749756813,-0.02390861138701439
1772536281211755300,2.41375537109375,0.010998642072081566,-0.007354409899562597,-0.018309850245714188
1772536281221804000,2.423803955078125,0.009454178623855114,-0.005105302669107914,-0.01643349789083004
1772536281231852300,2.433852294921875,0.013571958988904953,0.004923629574477673,-0.003544330596923828
1772536281241901000,2.443901123046875,0.015101037919521332,0.016004476696252823,0.0026621478609740734
1772536281251949300,2.45394921875,0.010750764980912209,0.019984304904937744,0.0058028134517371655
1772536281261997300,2.463997314453125,0.004720259457826614,0.0070166816003620625,0.0006067515350878239
1772536281272046300,2.47404638671875,0.004968465771526098,-0.012038235552608967,-0.005304933525621891
1772536281282094300,2.48409423828125,0.0057046255096793175,-0.009581760503351688,-0.006796879228204489
1772536281292143400,2.494143310546875,0.0012033511884510517,0.006486155092716217,0.0016788970679044724
1772536281302191400,2.50419140625,-0.007473493926227093,0.018939360976219177,0.009574636816978455
1772536281312240000,2.514240234375,-0.015655789524316788,0.01805705577135086,0.008887541480362415
1772536281322288400,2.524288330078125,-0.01365042943507433,0.014005058445036411,0.005155920051038265
1772536281332336000,2.534336181640625,-0.009417868219316006,0.0027532028034329414,0.000306570203974843
1772536281342385400,2.544385498046875,-0.003615354187786579,0.004925417248159647,0.002588533330708742
1772536281352433200,2.55443310546875,0.0017756829038262367,0.019163740798830986,0.011606262996792793
1772536281362482400,2.564482421875,-0.002997294068336487,0.02759883739054203,0.01174265518784523
1772536281372530200,2.5745302734375,-0.008721492253243923,0.01273893192410469,-0.001261560944840312
1772536281382578200,2.584578125,-0.013886043801903725,-0.0029490827582776546,-0.013376355171203613
1772536281392627200,2.594627197265625,-0.018880803138017654,-0.015527991577982903,-0.025063104927539825
1772536281402675200,2.60467529296875,-0.021318145096302032,-0.02700609341263771,-0.03315955027937889
1772536281412724200,2.61472412109375,-0.017712488770484924,-0.02813953161239624,-0.024648085236549377
1772536281422772200,2.624772216796875,-0.013912382535636425,-0.014543728902935982,-0.009088777005672455
1772536281432820200,2.6348203125,-0.008839859627187252,0.0021010274067521095,0.0031553718727082014
1772536281442869200,2.644869140625,-0.0031222179532051086,0.019845129922032356,0.007818857207894325
1772536281452917200,2.654917236328125,0.0038235727697610855,0.031074346974492073,0.010840747505426407
1772536281462966300,2.66496630859375,0.002877215389162302,0.026817727833986282,0.007788301445543766
1772536281473014000,2.675013916015625,-0.0017396407201886177,0.01741836965084076,-0.005600474774837494
1772536281483063300,2.685063232421875,-0.0030749980360269547,0.009510358795523643,-0.009893707931041718
1772536281493111000,2.695111083984375,-0.008917173370718956,0.003168306313455105,-0.015126553364098072
1772536281503159300,2.7051591796875,-0.010405798442661762,-0.008434969931840897,-0.016783447936177254
1772536281513208000,2.7152080078125,-0.015306281857192516,-0.01459379680454731,-0.016498491168022156
1772536281523256300,2.72525634765625,-0.02124599739909172,-0.010279758833348751,-0.014890424907207489
1772536281533305000,2.73530517578125,-0.02112988382577896,-0.007780648302286863,-0.00710414070636034
1772536281543353300,2.745353271484375,-0.021689079701900482,-0.003917225636541843,-0.004551011137664318
1772536281553401300,2.7554013671875,-0.011450291611254215,-0.00034246454015374184,0.002055225893855095
1772536281563450400,2.765450439453125,-0.003253921866416931,0.010973780415952206,0.010442523285746574
1772536281573498400,2.775498291015625,-0.003710388205945492,0.02024317905306816,0.011001254431903362
1772536281583547100,2.785547119140625,-0.0006338628008961678,0.019871992990374565,0.006328800227493048
1772536281593595400,2.795595458984375,0.0008186246268451214,0.018504992127418518,0.0019170078448951244
1772536281603644200,2.80564404296875,-0.0007387641817331314,0.01410813070833683,-0.0060396501794457436
1772536281613692200,2.815692138671875,-0.0016791261732578278,-0.005807253532111645,-0.015620105899870396
1772536281623740200,2.825740234375,0.000733938068151474,-0.023599807173013687,-0.029065148904919624
1772536281633789200,2.8357890625,0.0037845890037715435,-0.01471683382987976,-0.01809212565422058
1772536281643837200,2.845837158203125,0.00014322809875011444,0.01612238772213459,-0.0025681883562356234
1772536281653886200,2.85588623046875,-0.0034592291340231895,0.02483917959034443,0.0002821928355842829
1772536281663934200,2.865934326171875,-0.0025153663009405136,0.007715953513979912,0.0008673453703522682
1772536281673982200,2.875982177734375,-0.0037968792021274567,-0.003984378185123205,0.0009989056270569563
1772536281684031200,2.88603125,0.002793612889945507,-0.0034309732727706432,0.003998007625341415
1772536281694079200,2.896079345703125,0.006346003618091345,0.01685139536857605,0.010236196219921112
1772536281704128300,2.906128173828125,0.007633708883076906,0.030962128192186356,0.01732468791306019
1772536281714176300,2.91617626953125,0.0030727791599929333,0.02948247641324997,0.018080227077007294
1772536281724225300,2.926225341796875,-0.004869293421506882,0.013736088760197163,0.005421146750450134
1772536281734273300,2.936273193359375,-0.006617925129830837,-0.008323674090206623,-0.0010466065723448992
1772536281744321300,2.9463212890625,-0.0020310087129473686,-0.0069991350173950195,-0.0012740475358441472
1772536281754370300,2.956370361328125,0.00027688685804605484,0.010303954593837261,0.007957267574965954
1772536281764418000,2.96641796875,0.0037894845008850098,0.019242189824581146,0.01415984332561493
1772536281774467300,2.97646728515625,0.005852635018527508,0.02021930366754532,0.015213390812277794
1772536281784515000,2.98651513671875,0.002143788617104292,0.014827784150838852,0.007564612664282322
1772536281794563300,2.996563232421875,-0.0006562592461705208,-0.009704191237688065,-0.0016989267896860838
1772536281804612000,3.006612060546875,0.0029565715231001377,-0.02279932051897049,-0.010640929453074932
1772536281814660400,3.016660400390625,0.006488988175988197,-0.011499794200062752,-0.0031750237103551626
1772536281824709000,3.026709228515625,0.008806327357888222,0.0069249277003109455,0.0021850401535630226
1772536281834757400,3.03675732421875,0.012022094801068306,0.014256076887249947,0.005234626121819019
1772536281844806100,3.04680615234375,0.011263396590948105,0.022041931748390198,0.0067830439656972885
1772536281854854400,3.0568544921875,0.009560304693877697,0.018095392733812332,0.0073854513466358185
1772536281864902100,3.066902099609375,0.01076557394117117,0.005493953358381987,0.0011878905352205038
1772536281874951200,3.076951171875,0.013038848526775837,0.007633003871887922,0.002538912231102586
1772536281884999200,3.086999267578125,0.010716366581618786,0.012293469160795212,0.0030368859879672527
1772536281895048200,3.097048095703125,0.007502463646233082,0.010032977908849716,0.003436892759054899
1772536281905096200,3.10709619140625,0.0042798942886292934,0.012698178179562092,0.0037039269227534533
1772536281915145200,3.117145263671875,-0.0009691957384347916,0.015064130537211895,-0.0022088231053203344
1772536281925193200,3.127193115234375,-0.0026520714163780212,0.0187660064548254,-0.01209463831037283
1772536281935241200,3.1372412109375,-0.006184754893183708,0.016378216445446014,-0.023005608469247818
1772536281945290200,3.147290283203125,-0.006135052070021629,0.0037189312279224396,-0.027511708438396454
1772536281955334700,3.157334716796875,-0.0031389957293868065,-0.000010559335350990295,-0.022758496925234795
1772536281965383700,3.1673837890625,-0.0026839496567845345,0.013486674055457115,-0.016062092036008835
1772536281975431700,3.177431640625,-0.005963899195194244,0.0280203428119421,-0.014270849525928497
1772536281985479700,3.187479736328125,-0.008899356238543987,0.02451571263372898,-0.019420523196458817
1772536281995528700,3.19752880859375,-0.009505757130682468,0.00995275005698204,-0.030291281640529633
1772536282005576700,3.20757666015625,-0.012829229235649109,-0.00825441349297762,-0.034495189785957336
1772536282015625700,3.217625732421875,-0.013232698664069176,-0.016965080052614212,-0.040330711752176285
1772536282025673700,3.227673828125,-0.00786351878196001,-0.01838802546262741,-0.031467512249946594
1772536282035721700,3.2377216796875,-0.004231765866279602,-0.004085519816726446,-0.02133125439286232
1772536282045770800,3.247770751953125,-0.0005516363307833672,0.01545596495270729,-0.013650190085172653
1772536282055818800,3.25781884765625,0.007990985177457333,0.028219163417816162,-0.009827755391597748
1772536282065867800,3.26786767578125,0.01442507654428482,0.02734827995300293,-0.007952908985316753
1772536282075915500,3.27791552734375,0.015699665993452072,0.023942094296216965,-0.009321240708231926
1772536282085964800,3.28796484375,0.01340821385383606,0.015079917386174202,-0.013462146744132042
1772536282096012500,3.298012451171875,0.009628656320273876,0.005858190823346376,-0.02404395118355751
1772536282106060800,3.308060791015625,0.005949411541223526,0.005481935106217861,-0.03242175281047821
1772536282116109600,3.318109619140625,0.0018822317942976952,-0.0013448121026158333,-0.03723115473985672
1772536282126157800,3.32815771484375,-0.0037812059745192528,-0.009728650562465191,-0.03177214786410332
1772536282136206600,3.33820654296875,-0.005445415154099464,-0.015670429915189743,-0.02824345976114273
1772536282146254800,3.3482548828125,-0.00012955162674188614,-0.008095883764326572,-0.02138310670852661
1772536282156303600,3.3583037109375,-0.0006747003644704819,0.003232404589653015,-0.01144951581954956
1772536282166352000,3.368351806640625,0.001521802507340908,0.010682523250579834,-0.005850082263350487
1772536282176399600,3.378399658203125,0.006508838385343552,0.015073277056217194,0.007454270962625742
1772536282186448600,3.38844873046875,0.0063844723626971245,0.018837489187717438,0.013700622133910656
1772536282196496600,3.39849658203125,0.011851409450173378,0.021891070529818535,0.02192872390151024
1772536282206545700,3.408545654296875,0.01626289077103138,0.022987864911556244,0.023808948695659637
1772536282216593700,3.41859375,0.01488230749964714,0.02193325385451317,0.012265476398169994
1772536282226641700,3.4286416015625,0.009271432645618916,0.013819186016917229,-0.00020655314438045025
1772536282236690700,3.438690673828125,0.003953899256885052,-0.00012858770787715912,-0.006207720376551151
1772536282246738700,3.44873876953125,-0.0010636169463396072,-0.008793889544904232,-0.008765606209635735
1772536282256787700,3.45878759765625,-0.00360986590385437,-0.0006422200240194798,-0.004088296554982662
1772536282266835700,3.468835693359375,-0.00580646563321352,0.004294565413147211,-0.005156118422746658
1772536282276884700,3.478884765625,-0.004017353989183903,0.008592374622821808,-0.005553995259106159
1772536282286932700,3.4889326171875,-0.008992090821266174,0.003583642654120922,-0.012240076437592506
1772536282296980700,3.498980712890625,-0.010331660509109497,-0.00035916687920689583,-0.013931716792285442
1772536282307029800,3.50902978515625,-0.008798020891845226,0.0018381490372121334,-0.020170383155345917
1772536282317077800,3.519077880859375,-0.007816114462912083,0.010111259296536446,-0.02180689573287964
1772536282327126800,3.529126708984375,-0.0062317876145243645,0.010832216590642929,-0.031369514763355255
1772536282337174500,3.539174560546875,-0.0041617127135396,0.01342959888279438,-0.03902263939380646
1772536282347223800,3.549223876953125,-0.006200588308274746,0.014787602238357067,-0.042478296905756
1772536282357271600,3.559271484375,-0.007975318469107151,0.008890564553439617,-0.03895733132958412
1772536282367319600,3.569319580078125,-0.008360638283193111,0.006177927833050489,-0.03468422591686249
1772536282377368600,3.57936865234375,-0.010630716569721699,0.002195436041802168,-0.030892152339220047
1772536282387416600,3.58941650390625,-0.012330451048910618,0.0035120700486004353,-0.028342992067337036
1772536282397465600,3.599465576171875,-0.009191117249429226,0.00447213975712657,-0.024902455508708954
1772536282407513600,3.609513671875,-0.0066511547192931175,0.009486107155680656,-0.018380088731646538
1772536282417561900,3.619561767578125,-0.006793900392949581,0.010149765759706497,-0.015900686383247375
1772536282427610600,3.629610595703125,-0.00967256911098957,0.0073162284679710865,-0.010194025933742523
1772536282437659000,3.639658935546875,-0.007474662736058235,-0.004644560627639294,-0.0021989508531987667
1772536282447707600,3.649707763671875,-0.008658518083393574,-0.016511455178260803,-0.0014568513724952936
1772536282457756000,3.659755859375,-0.006995907053351402,-0.020680900663137436,0.005233808420598507
1772536282467804700,3.6698046875,-0.005083739757537842,-0.013614758849143982,0.0161813385784626
1772536282477852700,3.679852783203125,-0.00353963952511549,-0.003136817831546068,0.02467123046517372
1772536282487900700,3.689900634765625,-0.004011454991996288,0.007257123477756977,0.026952611282467842
1772536282497949700,3.69994970703125,-0.0021397853270173073,0.010591668076813221,0.026354731991887093
1772536282507997700,3.709997802734375,-0.002482788637280464,0.0018036449328064919,0.024088282138109207
1772536282518046700,3.720046630859375,-0.0015466874465346336,-0.008598661981523037,0.019941207021474838
1772536282528094700,3.7300947265625,-0.004504114389419556,-0.015869051218032837,0.018839452415704727
1772536282538142700,3.740142822265625,-0.003944584168493748,-0.012786975130438805,0.015588531270623207
1772536282548191700,3.750191650390625,-0.003077905625104904,-0.010311408899724483,0.009537149220705032
1772536282558239700,3.76023974609375,-0.0022667068988084793,-0.0045304857194423676,0.00814111903309822
1772536282568288800,3.770288818359375,-0.0052444590255618095,0.0008552088402211666,0.00955477450042963
1772536282578336800,3.780336669921875,-0.007079643197357655,0.0016783918254077435,0.0110629228875041
1772536282588385500,3.790385498046875,-0.009640232659876347,-0.002495788037776947,0.006953992880880833
1772536282598433800,3.800433837890625,-0.005688101053237915,-0.00922453124076128,0.0019022428896278143
1772536282608481500,3.8104814453125,0.0013541211374104023,-0.005713502876460552,-0.0005945757729932666
1772536282618530800,3.82053076171875,0.0007328060455620289,0.0012940731830894947,-0.006235150620341301
1772536282628578600,3.83057861328125,0.0033359304070472717,0.006005540490150452,-0.00960868876427412
1772536282638627800,3.8406279296875,0.0013468153774738312,0.00542470533400774,-0.02377564087510109
1772536282648675600,3.850675537109375,0.0004441188648343086,-0.008207553066313267,-0.032199107110500336
1772536282658724900,3.860724853515625,-0.0006674844771623611,-0.021775560453534126,-0.04323285073041916
1772536282668772600,3.870772705078125,-0.003718022257089615,-0.028439311310648918,-0.048268526792526245
1772536282678820600,3.880820556640625,-0.006528190337121487,-0.02290579490363598,-0.044902291148900986
1772536282688869600,3.89086962890625,-0.001287641003727913,-0.003325719852000475,-0.034355442970991135
1772536282698917600,3.900917724609375,-0.00057977344840765,0.011429524049162865,-0.02458084374666214
1772536282708966700,3.910966552734375,0.005645046476274729,0.014069048687815666,-0.017543669790029526
1772536282719014700,3.9210146484375,0.01033087819814682,0.011246897280216217,-0.01089109294116497
1772536282729063000,3.93106298828125,0.01885700225830078,0.013874247670173645,-0.006460757926106453
1772536282739111700,3.941111572265625,0.019958218559622765,0.01998886466026306,-0.008285289630293846
1772536282749159700,3.95115966796875,0.014182035811245441,0.015951577574014664,-0.010701538994908333
1772536282759208700,3.961208740234375,0.011989189311861992,0.0026173978112637997,-0.012219274416565895
1772536282769256700,3.971256591796875,0.008303467184305191,-0.01447317935526371,-0.011733489111065865
1772536282779305700,3.9813056640625,-0.0012607434764504433,-0.020230134949088097,-0.012154800817370415
1772536282789353700,3.991353759765625,0.0033947406336665154,-0.006355291698127985,-0.009939323179423809
1772536282799401700,4.001401611328125,0.0020357295870780945,0.0068041859194636345,-0.006255905143916607
1772536282809450800,4.01145068359375,0.006100362166762352,0.01183198019862175,-0.011435926891863346
1772536282819498800,4.021498779296875,0.0062604183331131935,0.0057631670497357845,-0.015053032897412777
1772536282829547500,4.031547607421875,0.0019043558277189732,0.0010647932067513466,-0.012895648367702961
1772536282839595800,4.041595703125,0.0008635921403765678,0.002999313175678253,-0.007903553545475006
1772536282849644500,4.05164453125,0.00012773554772138596,0.008116025477647781,-0.007896164432168007
1772536282859692500,4.061692626953125,0.004402641672641039,0.014525989070534706,-0.004084648564457893
1772536282869740800,4.07174072265625,0.009454560466110706,0.017660271376371384,-0.005067379213869572
1772536282879789600,4.08178955078125,0.015451999381184578,0.010614613071084023,-0.01230531930923462
1772536282889837800,4.091837890625,0.015285858884453773,-0.0039000899996608496,-0.01540197990834713
1772536282899886600,4.101886474609375,0.012197124771773815,-0.004892383702099323,-0.016094401478767395
1772536282909934800,4.111934814453125,0.013427828438580036,-0.008730065077543259,-0.015957020223140717
1772536282919983600,4.121983642578125,0.015914687886834145,-0.000013539101928472519,-0.015825992450118065
1772536282930031900,4.132031982421875,0.013712689280509949,-0.0005839802324771881,-0.01501481793820858
1772536282940079600,4.14207958984375,0.014230141416192055,0.0002967272885143757,-0.011895723640918732
1772536282950129000,4.15212890625,0.012766379863023758,0.0006355899386107922,-0.010242019779980183
1772536282960176600,4.1621767578125,0.014180517755448818,0.00643169367685914,-0.006710934452712536
1772536282970226000,4.172225830078125,0.01634891703724861,0.011776592582464218,-0.006291523575782776
1772536282980273700,4.182273681640625,0.015939589589834213,0.022484896704554558,-0.006033996120095253
1772536282990321700,4.19232177734375,0.011417818255722523,0.0203824732452631,-0.007005616091191769
1772536283000370700,4.20237060546875,0.003914361819624901,0.017303593456745148,-0.007169133983552456
1772536283010418700,4.212418701171875,0.0007765749469399452,0.010946692898869514,-0.013501294888556004
1772536283020467700,4.2224677734375,-0.004884772934019566,0.006203336175531149,-0.014633671380579472
1772536283030515700,4.232515625,-0.008111552335321903,0.006327180657535791,-0.013349520042538643
1772536283040564700,4.242564697265625,-0.007540569640696049,0.0037782699801027775,-0.01387815736234188
1772536283050612700,4.25261279296875,-0.008020912297070026,0.004930079448968172,-0.013772937469184399
1772536283060660700,4.26266064453125,-0.0077412789687514305,0.008998323231935501,-0.016748221591114998
1772536283070709800,4.272709716796875,-0.01365636009722948,0.017803508788347244,-0.019177598878741264
1772536283080757500,4.282757568359375,-0.012227040715515614,0.023051265627145767,-0.013875246047973633
1772536283090806800,4.292806884765625,-0.015690350905060768,0.030386460945010185,-0.015767602249979973
1772536283100854500,4.3028544921875,-0.013849306851625443,0.035387612879276276,-0.014122300781309605
1772536283110903800,4.31290380859375,-0.009164312854409218,0.03605920448899269,-0.01890726387500763
1772536283120951600,4.32295166015625,-0.0073506999760866165,0.0359814390540123,-0.02468099817633629
1772536283130999800,4.332999755859375,-0.007505044341087341,0.0371309295296669,-0.030415836721658707
1772536283141048600,4.343048583984375,-0.0028104251250624657,0.038896344602108,-0.03442522510886192
1772536283151096800,4.353096923828125,0.003267864231020212,0.03635469079017639,-0.025326913222670555
1772536283161145600,4.3631455078125,0.010006461292505264,0.03133782744407654,-0.017792297527194023
1772536283171193900,4.37319384765625,0.013560622930526733,0.029585907235741615,-0.012216635048389435
1772536283181242600,4.38324267578125,0.00538391899317503,0.03761746734380722,-0.014306418597698212
1772536283191290600,4.39329052734375,-0.006622978486120701,0.0343327671289444,-0.021869152784347534
1772536283201339000,4.4033388671875,-0.01686709374189377,0.019928794354200363,-0.024750160053372383
1772536283211387600,4.4133876953125,-0.03308923542499542,-0.002934195101261139,-0.027757201343774796
1772536283221436000,4.423435791015625,-0.03825896233320236,-0.009897828102111816,-0.022466301918029785
1772536283231484700,4.433484619140625,-0.041321080178022385,-0.0014239568263292313,-0.006368018686771393
1772536283241533000,4.443532958984375,-0.03611992299556732,0.005864316131919622,0.009161939844489098
1772536283251580700,4.45358056640625,-0.02768572047352791,0.0010716738179326057,0.02020546793937683
1772536283261629700,4.463629638671875,-0.02371707558631897,-0.025387629866600037,0.026371484622359276
1772536283271677700,4.473677734375,-0.0163816399872303,-0.05251377448439598,0.022099308669567108
1772536283281726700,4.483726806640625,0.004341748543083668,-0.06139914318919182,0.03295169025659561
1772536283291774700,4.493774658203125,0.021363580599427223,-0.061359211802482605,0.05511178448796272
1772536283301823700,4.50382373046875,0.02369278110563755,-0.06390546262264252,0.08868492394685745
1772536283311871700,4.513871826171875,0.011308378539979458,-0.07085125893354416,0.10612838715314865
1772536283321919700,4.523919677734375,-0.00817930232733488,-0.07043740898370743,0.09976556152105331
1772536283331968800,4.53396875,-0.025422420352697372,-0.051156818866729736,0.07097684592008591
1772536283342016800,4.544016845703125,-0.03644924238324165,-0.008201894350349903,0.04072786867618561
1772536283352065800,4.554065673828125,-0.036621347069740295,0.02229958027601242,0.002554958686232567
1772536283362113800,4.56411376953125,-0.03320184722542763,0.02700032666325569,-0.03300942853093147
1772536283372162800,4.574162841796875,-0.02410784363746643,0.0228752251714468,-0.06578156352043152
1772536283382210800,4.5842109375,-0.018240366131067276,0.015552330762147903,-0.08865838497877121
1772536283392258600,4.594258544921875,-0.006246848031878471,0.01157674565911293,-0.10326962172985077
1772536283402307800,4.604307861328125,0.01830430142581463,0.015148311853408813,-0.09194878488779068
1772536283412355600,4.61435546875,0.03862253949046135,0.018112927675247192,-0.05711512267589569
1772536283422404900,4.62440478515625,0.058576274663209915,0.012514961883425713,-0.018867069855332375
1772536283432452600,4.63445263671875,0.07432297617197037,0.00021978653967380524,0.013310340233147144
1772536283442502000,4.644501953125,0.08265414088964462,-0.026749778538942337,0.03173621743917465
1772536283452549600,4.654549560546875,0.08626620471477509,-0.04562372714281082,0.03435374051332474
1772536283462598000,4.664597900390625,0.08638045191764832,-0.05594773590564728,0.025500327348709106
1772536283472646700,4.674646728515625,0.07805317640304565,-0.049992941319942474,0.013313417322933674
1772536283482694700,4.684694580078125,0.065233513712883,-0.038381293416023254,0.0013046911917626858
1772536283492743700,4.69474365234375,0.05125424638390541,-0.02389979548752308,-0.0161842443048954
1772536283502791700,4.704791748046875,0.040864456444978714,-0.019223816692829132,-0.04137295484542847
1772536283512840700,4.7148408203125,0.033855047076940536,-0.031959936022758484,-0.06314200162887573
1772536283522888700,4.724888671875,0.03322121500968933,-0.029547646641731262,-0.07386469095945358
1772536283532936700,4.734936767578125,0.035389967262744904,-0.014814844354987144,-0.06762198358774185
1772536283542985700,4.74498583984375,0.04455363750457764,-0.0014774678274989128,-0.0548984669148922
1772536283553033700,4.75503369140625,0.04547537490725517,0.033548999577760696,-0.03365310654044151
1772536283563082800,4.765082763671875,0.04582718014717102,0.06634023040533066,-0.009338978677988052
1772536283573130800,4.775130859375,0.03670872747898102,0.09043736010789871,0.007843848317861557
1772536283583179800,4.7851796875,0.027188194915652275,0.09826518595218658,0.021651271730661392
1772536283593227500,4.7952275390625,0.018787996843457222,0.0799746885895729,0.02124377153813839
1772536283603275800,4.80527587890625,0.008212317712605,0.04242970794439316,0.015251927077770233
1772536283613324500,4.815324462890625,0.001958925276994705,0.007088046055287123,0.00346594606526196
1772536283623372800,4.825372802734375,-0.006011649966239929,-0.017871897667646408,-0.0015951254172250628
1772536283633421600,4.835421630859375,-0.007156608626246452,-0.026888269931077957,-0.0036816690117120743
1772536283643469800,4.8454697265625,-0.003277980722486973,-0.02564856968820095,0.002536279382184148
1772536283653517800,4.855517822265625,0.004694447852671146,-0.018033361062407494,0.004931353963911533
1772536283663566800,4.86556689453125,0.0054409317672252655,-0.01076213177293539,0.010890442878007889
1772536283673614800,4.87561474609375,0.009860617108643055,-0.0004772027023136616,0.010711366310715675
1772536283683664000,4.885663818359375,0.011762646958231926,0.010370384901762009,0.011823236010968685
1772536283693712000,4.8957119140625,0.012086248025298119,0.01859254390001297,0.019640838727355003
1772536283703760600,4.9057607421875,0.01443542167544365,0.02213428169488907,0.017081275582313538
1772536283713809000,4.915808837890625,0.01894049160182476,0.019459910690784454,0.015928616747260094
1772536283723856600,4.925856689453125,0.020783931016921997,0.018853509798645973,0.017673520371317863
1772536283733906000,4.935906005859375,0.025108281522989273,0.017346002161502838,0.012856543064117432
1772536283743953700,4.94595361328125,0.023922374472022057,0.010854814201593399,0.008302804082632065
1772536283754002700,4.956002685546875,0.018981873989105225,-0.0006162957288324833,0.0034344152081757784
1772536283764050700,4.96605078125,0.020206131041049957,-0.003150293603539467,0.0011550155468285084
1772536283774099700,4.976099609375,0.01827055960893631,0.005623366218060255,0.0014164389576762915
1772536283784147700,4.986147705078125,0.013047834858298302,0.01102665439248085,-0.0007934520253911614
1772536283794195700,4.99619580078125,0.012180882506072521,0.009227797389030457,0.0014458822552114725
1772536283804244700,5.00624462890625,0.00829000398516655,0.005655433516949415,0.002750831190496683
1772536283814292700,5.016292724609375,0.0054252296686172485,0.0028166272677481174,-0.003751976415514946
1772536283824341800,5.026341796875,0.002337294165045023,-0.0017592161893844604,-0.00442522345110774
1772536283834389800,5.0363896484375,0.002240242436528206,-0.005501623265445232,-0.002252542180940509
1772536283844438800,5.046438720703125,-0.001857297495007515,-0.004872318357229233,0.005980886518955231
1772536283854486800,5.05648681640625,-0.003476572223007679,0.001989566721022129,0.013875610195100307
1772536283864534500,5.066534423828125,-0.006994874216616154,0.010510350577533245,0.01903122290968895
1772536283874583800,5.076583740234375,-0.005115737207233906,0.0029335329309105873,0.026082376018166542
1772536283884631600,5.086631591796875,0.0015019518323242664,0.003062696196138859,0.02666773833334446
1772536283894680800,5.096680908203125,-0.00033685285598039627,0.0006901188753545284,0.02865234576165676
1772536283904728600,5.106728515625,0.0003193505108356476,0.00025655655190348625,0.030943196266889572
1772536283914777900,5.11677783203125,-0.00568123534321785,0.005097850691527128,0.03762263432145119
1772536283924825600,5.12682568359375,-0.007861032150685787,0.012023933231830597,0.04293324425816536
1772536283934873900,5.136873779296875,-0.0032986877486109734,0.01738196238875389,0.04540514200925827
1772536283944922600,5.146922607421875,0.002009525429457426,0.010260669514536858,0.04772821441292763
1772536283954971000,5.156970947265625,0.005083957687020302,0.0006483518518507481,0.04775131866335869
1772536283965019600,5.16701953125,0.006935653742402792,-0.006698244716972113,0.0487755686044693
1772536283975068000,5.17706787109375,0.004892637487500906,-0.012293292209506035,0.04425555840134621
1772536283985116700,5.18711669921875,0.0036550667136907578,-0.006148047279566526,0.03611188009381294
1772536283995165000,5.1971650390625,0.002670641988515854,-0.003942858427762985,0.027712615206837654
1772536284005212700,5.207212646484375,-0.009337285533547401,-0.001030957791954279,0.02039664424955845
1772536284015262000,5.217261962890625,-0.017216913402080536,-0.0009076022543013096,0.01851041428744793
1772536284025309700,5.227309814453125,-0.01814502477645874,-0.005875729024410248,0.007105161435902119
1772536284035359000,5.23735888671875,-0.022823691368103027,-0.007957274094223976,-0.005923090502619743
1772536284045406700,5.24740673828125,-0.019333887845277786,-0.005852045491337776,-0.011182833462953568
1772536284055456000,5.2574560546875,-0.018895769491791725,0.0028535802848637104,-0.013954849913716316
1772536284065503700,5.267503662109375,-0.023637261241674423,0.00903584249317646,-0.02131263166666031
1772536284075551700,5.2775517578125,-0.032078951597213745,-0.006261414382606745,-0.031006451696157455
1772536284085600800,5.287600830078125,-0.0431867316365242,-0.01364955585449934,-0.03632904589176178
1772536284095648800,5.297648681640625,-0.04267255589365959,-0.005523877218365669,-0.02880413457751274
1772536284105697800,5.30769775390625,-0.04791871830821037,0.001015514601022005,-0.023056233301758766
1772536284115745800,5.317745849609375,-0.05124682933092117,0.004571692086756229,-0.012400598265230656
1772536284125794000,5.3277939453125,-0.05194857344031334,0.009915057569742203,-0.0048827603459358215
1772536284135842800,5.3378427734375,-0.0436151921749115,0.018445586785674095,0.0018825854640454054
1772536284145890800,5.347890869140625,-0.03928995132446289,0.01624448411166668,0.0024136200081557035
1772536284155939800,5.35793994140625,-0.03454821929335594,0.010354412719607353,0.005551466718316078
1772536284165987800,5.36798779296875,-0.02527136355638504,0.009287817403674126,0.007923278026282787
1772536284176036900,5.378036865234375,-0.02170797437429428,0.014881370589137077,0.008419815450906754
1772536284186084900,5.3880849609375,-0.01930420473217964,0.012167610228061676,0.007233642973005772
1772536284196132900,5.3981328125,-0.017579637467861176,0.009168898686766624,0.013729868456721306
1772536284206182000,5.408181884765625,-0.02151312679052353,0.001827895175665617,0.00947679951786995
1772536284216230000,5.41822998046875,-0.02293853461742401,-0.004938248544931412,0.00947294756770134
1772536284226278700,5.428278564453125,-0.023777693510055542,-0.010313306003808975,0.0039197239093482494
1772536284236327000,5.438326904296875,-0.02744765765964985,-0.01610509864985943,0.0008465226273983717
1772536284246375000,5.448375,-0.02475120685994625,-0.021700933575630188,-0.006363986060023308
1772536284256423700,5.458423583984375,-0.026640906929969788,-0.01938706263899803,-0.009570041671395302
1772536284266472000,5.468471923828125,-0.02558603137731552,-0.008594335056841373,-0.0025600693188607693
1772536284276520700,5.478520751953125,-0.025731466710567474,0.011888653039932251,0.005606619641184807
1772536284286569000,5.48856884765625,-0.026922430843114853,0.021494673565030098,0.011475693434476852
1772536284296617700,5.49861767578125,-0.029156114906072617,0.024871546775102615,0.0076615638099610806
1772536284306666000,5.508666015625,-0.03171035274863243,0.018266644328832626,0.0020185918547213078
1772536284316714800,5.51871484375,-0.032653793692588806,0.0067816912196576595,-0.01413336768746376
1772536284326763000,5.528762939453125,-0.03591776266694069,-0.008920572698116302,-0.02026769332587719
1772536284336810800,5.538810791015625,-0.032628390938043594,-0.014999102801084518,-0.023863034322857857
1772536284346860000,5.548860107421875,-0.02585597336292267,-0.008123885840177536,-0.018433382734656334
1772536284356907800,5.55890771484375,-0.018317896872758865,0.0036265128292143345,-0.01143033429980278
1772536284366956800,5.568956787109375,-0.014166559092700481,0.01393720880150795,-0.010871869511902332
1772536284377004800,5.5790048828125,-0.010255277156829834,0.014821773394942284,-0.00989441480487585
1772536284387052800,5.589052734375,-0.00981106050312519,0.01233091950416565,-0.01254106406122446
1772536284397101800,5.599101806640625,-0.010219133459031582,0.007854150608181953,-0.008080950938165188
1772536284407149800,5.60914990234375,-0.002697034738957882,0.008879200555384159,-0.0006616509053856134
1772536284417198800,5.61919873046875,-0.0017036153003573418,0.005109083838760853,0.003407374955713749
1772536284427246800,5.629246826171875,0.001959563232958317,0.0006490880623459816,0.002841186709702015
1772536284437295900,5.6392958984375,0.004533935803920031,-0.002800270915031433,0.0055061932653188705
1772536284447343900,5.64934375,-0.000011813826858997345,0.0008344114758074284,-0.0008545003365725279
1772536284457391600,5.6593916015625,-0.0009264834225177765,0.002335095778107643,0.008265402168035507
1772536284467441000,5.66944091796875,-0.0028056101873517036,-0.004045305773615837,0.008142896927893162
1772536284477488600,5.679488525390625,0.0037027089856565,-0.009902753867208958,0.01210092380642891
1772536284487538000,5.689537841796875,0.012976901605725288,-0.010562951676547527,0.015166223049163818
1772536284497585700,5.699585693359375,0.016635913401842117,-0.00017140619456768036,0.018916336819529533
1772536284507635000,5.709635009765625,0.01598530262708664,0.0028025456704199314,0.020498255267739296
1772536284517682700,5.7196826171875,0.015706881880760193,0.001734177116304636,0.021305538713932037
1772536284527730700,5.729730712890625,0.013663438148796558,-0.0034749661572277546,0.02618871070444584
1772536284537779700,5.73977978515625,0.007837867364287376,-0.008137902244925499,0.025202300399541855
1772536284547827700,5.74982763671875,0.005014117807149887,-0.014200055971741676,0.020763609558343887
1772536284557876700,5.759876708984375,0.007632999215275049,-0.016489118337631226,0.020896904170513153
1772536284567924700,5.7699248046875,0.007183191366493702,-0.008456758223474026,0.018521364778280258
1772536284577973800,5.779973876953125,0.00658923014998436,0.007309140171855688,0.019843939691781998
1772536284588021800,5.790021728515625,0.011901970021426678,0.019750896841287613,0.026037387549877167
1772536284598070000,5.800070068359375,0.015249297022819519,0.020656105130910873,0.029138371348381042
1772536284608118800,5.810118896484375,0.015940655022859573,0.019751962274312973,0.026065882295370102
1772536284618167000,5.8201669921875,0.020841944962739944,0.007391041144728661,0.02027713693678379
1772536284628215800,5.8302158203125,0.021643023937940598,0.003486047498881817,0.020435595884919167
1772536284638263800,5.840263916015625,0.022789718583226204,0.008349968120455742,0.01351364329457283
1772536284648312800,5.850312744140625,0.01752997562289238,0.009646661579608917,0.0006945179775357246
1772536284658360800,5.86036083984375,0.01222987286746502,0.0008331048302352428,-0.012838149443268776
1772536284668408800,5.870408935546875,0.00985459890216589,-0.003887348109856248,-0.02159648761153221
1772536284678457900,5.880457763671875,0.012064715847373009,-0.009884046390652657,-0.022435177117586136
1772536284688505900,5.890505859375,0.012803477235138416,-0.007979352958500385,-0.016245990991592407
1772536284698555000,5.900554931640625,0.01692189648747444,-0.001600006129592657,-0.008762417361140251
1772536284708603000,5.910602783203125,0.014462734572589397,0.009979951195418835,-0.004228917881846428
1772536284718651600,5.920651611328125,0.013683408498764038,0.014717720448970795,-0.0029966977890580893
1772536284728700000,5.930699951171875,0.008663882501423359,0.016041312366724014,-0.008669497445225716
1772536284738748000,5.940747802734375,0.002451703418046236,0.011152554303407669,-0.011515642516314983
1772536284748796700,5.950796630859375,-0.0028064418584108353,0.006742094177752733,-0.008760069496929646
1772536284758845000,5.960844970703125,-0.005939186550676823,0.007909649983048439,-0.010027690790593624
1772536284768893700,5.970893798828125,-0.005809490568935871,0.0014789141714572906,-0.008411950431764126
1772536284778942000,5.98094189453125,-0.0009595593437552452,-0.005008345004171133,-0.006461489479988813
1772536284788990700,5.99099072265625,0.0037584970705211163,-0.004402475897222757,-0.00466625252738595
1772536284799039000,6.0010390625,0.0025639510713517666,0.0018725558184087276,-0.0041846721433103085
1772536284809087700,6.011087646484375,0.004250264260917902,0.01074434444308281,-0.007169276475906372
1772536284819136000,6.021135986328125,0.0026729186065495014,0.011146703734993935,-0.00004809512756764889
1772536284829183700,6.031183837890625,0.0034023583866655827,0.01202048547565937,0.005136013962328434
1772536284839233000,6.04123291015625,-0.0002131238579750061,0.005885381251573563,0.003976008854806423
1772536284849280800,6.05128076171875,0.001689438708126545,0.001127110794186592,-0.003478977596387267
1772536284859329800,6.061329833984375,-0.004115866497159004,0.006915298290550709,-0.004728520289063454
1772536284869377800,6.071377685546875,-0.010066700167953968,0.004160525277256966,-0.0024368702434003353
1772536284879426800,6.0814267578125,-0.01523497886955738,0.008754754438996315,0.002389403060078621
1772536284889474800,6.091474853515625,-0.020932545885443687,0.006906254217028618,0.004803825169801712
1772536284899522800,6.101522705078125,-0.024191226810216904,0.010624665766954422,0.00772800762206316
1772536284909571800,6.11157177734375,-0.028066124767065048,0.01946769282221794,0.005935966037213802
1772536284919619800,6.121619873046875,-0.03112732246518135,0.0220123752951622,0.005224920343607664
1772536284929668900,6.1316689453125,-0.030325178056955338,0.018715649843215942,0.0038283588364720345
1772536284939716900,6.141716796875,-0.03503725677728653,0.017062800005078316,0.007519419305026531
1772536284949766000,6.151765869140625,-0.03409529849886894,0.018079329282045364,0.005455736070871353
1772536284959813600,6.161813720703125,-0.03205662965774536,0.010665496811270714,0.001484064618125558
1772536284969861600,6.171861572265625,-0.023777129128575325,0.014356637373566628,0.004955494776368141
1772536284979910400,6.181910400390625,-0.02403516322374344,0.029102208092808723,0.010142961516976357
1772536284989958400,6.19195849609375,-0.02128491923213005,0.033210933208465576,0.01094563864171505
1772536285000007400,6.20200732421875,-0.017048604786396027,0.034680116921663284,0.007564117666333914
1772536285010055400,6.212055419921875,-0.008429284207522869,0.027477862313389778,0.004507340956479311
1772536285020104400,6.2221044921875,-0.008469812572002411,0.017094099894165993,-0.0017135929083451629
1772536285030152400,6.23215234375,-0.005574158392846584,-0.00034507736563682556,-0.006687845103442669
1772536285040200400,6.242200439453125,-0.004278490319848061,-0.003971445839852095,-0.008793012239038944
1772536285050249500,6.25224951171875,-0.0034547746181488037,0.001901622861623764,-0.011911573819816113
1772536285060297500,6.26229736328125,-0.006022730842232704,0.01338549330830574,-0.008791061118245125
1772536285070346500,6.272346435546875,-0.0029774056747555733,0.019671350717544556,-0.00806907843798399
1772536285080394500,6.28239453125,0.0007717134431004524,0.019375357776880264,-0.004688851535320282
1772536285090443300,6.292443359375,0.004285487812012434,0.018579071387648582,-0.005577814765274525
1772536285100491500,6.302491455078125,0.006146679632365704,0.01767413690686226,-0.011386992409825325
1772536285110539500,6.31253955078125,0.00401854794472456,0.006145311985164881,-0.01917540654540062
1772536285120588500,6.322588623046875,0.006732309237122536,-0.0036242278292775154,-0.023046843707561493
1772536285130636500,6.332636474609375,0.004385797772556543,-0.004190149717032909,-0.02447190135717392
1772536285140685600,6.342685546875,-0.0012979693710803986,-0.010360382497310638,-0.026443595066666603
1772536285150733600,6.352733642578125,0.0006706388667225838,-0.006532355211675167,-0.027170637622475624
1772536285160782600,6.362782470703125,0.0023600710555911064,0.0015108068473637104,-0.022415954619646072
1772536285170830600,6.37283056640625,0.006495427340269089,0.00787096843123436,-0.01350075751543045
1772536285180878300,6.38287841796875,0.010687152855098248,0.014091217890381813,-0.007468627765774727
1772536285190927600,6.392927734375,0.0074575371108949184,0.018211660906672478,0.004762205760926008
1772536285200975400,6.402975341796875,0.005954424850642681,0.01850123144686222,0.011644984595477581
1772536285211024600,6.413024658203125,0.00784526951611042,0.015099575743079185,0.012180546298623085
1772536285221072400,6.423072265625,0.008360429666936398,0.010380588471889496,0.014174380339682102
1772536285231121700,6.43312158203125,0.011558886617422104,0.0072761415503919125,0.0038809962570667267
1772536285241169400,6.44316943359375,0.011860917322337627,0.0011297487653791904,0.002683000871911645
1772536285251217400,6.453217529296875,0.008952479809522629,-0.0026506087742745876,0.0015700659714639187
1772536285261266400,6.463266357421875,0.0077980258502066135,-0.002110337372869253,0.002026160480454564
1772536285271314400,6.473314453125,0.006683226674795151,0.002661248203366995,-0.001235146657563746
1772536285281363500,6.483363525390625,0.005716256331652403,0.006391290575265884,0.0023924128618091345
1772536285291411500,6.493411376953125,0.0034001050516963005,0.005236543715000153,-0.002663332037627697
1772536285301460500,6.50346044921875,0.005140799563378096,0.006785782054066658,-0.006443026475608349
1772536285311508500,6.513508544921875,0.0014533866196870804,0.01411054003983736,-0.007770080119371414
1772536285321556500,6.523556396484375,-0.004609382711350918,0.012155786156654358,-0.015525496564805508
1772536285331605500,6.53360546875,-0.00242718867957592,-0.0014894520863890648,-0.023257451131939888
1772536285341653500,6.543653564453125,0.003842604346573353,-0.004505208693444729,-0.019351152703166008
1772536285351702500,6.55370263671875,0.005604817997664213,0.01405143178999424,-0.010614384897053242
1772536285361750300,6.563750244140625,0.0067495321854949,0.027259638532996178,-0.005675528198480606
1772536285371799600,6.573799560546875,0.006291734986007214,0.024968786165118217,-0.00455700047314167
1772536285381847300,6.583847412109375,0.003484941553324461,0.014947852119803429,-0.009563235566020012
1772536285391895600,6.5938955078125,-0.004236361011862755,-0.0011176676489412785,-0.02525298297405243
1772536285401944300,6.6039443359375,-0.0029520969837903976,-0.015765860676765442,-0.039237216114997864
1772536285411992600,6.61399267578125,-0.007489059120416641,-0.01659969612956047,-0.04054855555295944
1772536285422041300,6.624041259765625,-0.009349123574793339,-0.010827038437128067,-0.038024503737688065
1772536285432089600,6.634089599609375,-0.00971291121095419,0.0003427919000387192,-0.025466369464993477
1772536285442138400,6.644138427734375,-0.007240242324769497,0.010888239368796349,-0.010123149491846561
1772536285452186600,6.6541865234375,-0.0030042175203561783,0.017971981316804886,-0.0004987521097064018
1772536285462234600,6.664234619140625,0.0050328392535448074,0.01760352961719036,0.0107387974858284
1772536285472283400,6.674283447265625,0.007714908570051193,0.023423336446285248,0.014552976936101913
1772536285482331400,6.684331298828125,0.008848133496940136,0.020908446982502937,0.011796567589044571
1772536285492380400,6.69438037109375,0.004423557780683041,0.01634884998202324,0.009909451007843018
1772536285502428400,6.704428466796875,-0.0017133522778749466,0.004516275133937597,0.001731806667521596
1772536285512477400,6.7144775390625,-0.0016281306743621826,-0.006228247657418251,-0.0034046322107315063
1772536285522525400,6.724525390625,-0.008309117518365383,-0.002973605878651142,-0.010380491614341736
1772536285532574500,6.734574462890625,-0.011432739906013012,0.006537607870995998,-0.015084433369338512
1772536285542622500,6.74462255859375,-0.02149425819516182,0.005562222097069025,-0.021190719678997993
1772536285552670500,6.75467041015625,-0.025364097207784653,-0.0008187112398445606,-0.022352656349539757
1772536285562719500,6.764719482421875,-0.030789248645305634,-0.012089923955500126,-0.01873651333153248
1772536285572767500,6.774767578125,-0.029182564467191696,-0.012072613462805748,-0.012676489539444447
1772536285582816500,6.78481640625,-0.024364493787288666,0.0006760298274457455,-0.0048909238539636135
1772536285592864500,6.794864501953125,-0.014302272349596024,0.008492406457662582,0.006036026403307915
1772536285602913300,6.804913330078125,-0.008389967493712902,0.017165251076221466,0.012587160803377628
1772536285612961500,6.81496142578125,-0.0018351292237639427,0.01936236023902893,0.018033592030405998
1772536285623009500,6.825009521484375,0.00023052003234624863,0.008547952398657799,0.012640541419386864
1772536285633058600,6.83505859375,0.002963988110423088,-0.014060156419873238,0.008525425568223
1772536285643106600,6.8451064453125,0.005745564587414265,-0.020625926554203033,0.0016563835088163614
1772536285653155600,6.855155517578125,0.010393046773970127,-0.013465752825140953,0.0015629064291715622
1772536285663203600,6.86520361328125,0.009172363206744194,-0.002313178963959217,0.00002327747642993927
1772536285673252600,6.875252685546875,0.009782226756215096,-0.0003901100717484951,-0.0002222659531980753
1772536285683300600,6.885300537109375,0.004720702767372131,0.0006512808613479137,0.0039045000448822975
1772536285693348400,6.895348388671875,0.004842941649258137,0.0010712617076933384,0.005150859244167805
1772536285703397600,6.905397705078125,0.007504842709749937,-0.006270566489547491,0.003173951292410493
1772536285713445400,6.9154453125,0.0010240403935313225,-0.006343537010252476,0.003659445559605956
1772536285723494700,6.92549462890625,-0.000842600129544735,-0.0027750623412430286,0.008844918571412563
1772536285733542400,6.93554248046875,-0.003949177451431751,-0.00041683297604322433,0.00858632568269968
1772536285743591400,6.94559130859375,-0.006762301549315453,0.0031396360136568546,0.0059845224022865295
1772536285753639400,6.955639404296875,-0.010916034691035748,-0.0007507097907364368,0.008974186144769192
1772536285763687400,6.9656875,-0.011373179964721203,-0.002903167624026537,0.004217167850583792
1772536285773736400,6.975736328125,-0.013134327717125416,-0.011501450091600418,0.0032094274647533894
1772536285783784400,6.985784423828125,-0.01426581759005785,-0.007447858806699514,0.005444909445941448
1772536285793833500,6.99583349609375,-0.010664424858987331,-0.00990169495344162,0.003353528678417206
1772536285803881500,7.005881591796875,-0.008254816755652428,-0.012112670578062534,0.0004921609070152044
1772536285813930500,7.015930419921875,-0.000829656608402729,-0.011768857017159462,0.0004503491800278425
1772536285823978500,7.025978515625,0.0030839573591947556,-0.008844836615025997,0.0032647030893713236
1772536285834026500,7.036026611328125,-0.000715840607881546,-0.007178230676800013,0.0051177311688661575
1772536285844075500,7.046075439453125,0.002704170998185873,-0.0021187756210565567,0.012387027032673359
1772536285854123500,7.05612353515625,0.0036655720323324203,0.003401158843189478,0.019089670851826668
1772536285864172500,7.066172607421875,0.0029032560996711254,0.0053059421479702,0.020585382357239723
1772536285874220300,7.07622021484375,0.004865739494562149,0.0011423565447330475,0.020768875256180763
1772536285884269600,7.08626953125,0.0026931841857731342,-0.001499564852565527,0.02030331641435623
1772536285894317300,7.0963173828125,0.000868386123329401,-0.0021288697607815266,0.01866387389600277
1772536285904365600,7.106365478515625,0.0049350326880812645,-0.0011616097763180733,0.018039895221590996
1772536285914414300,7.116414306640625,-0.0017284620553255081,0.00010126130655407906,0.020069491118192673
1772536285924462600,7.126462646484375,-0.007463471964001656,-0.0013581179082393646,0.01870543882250786
1772536285934511400,7.136511474609375,-0.009371627122163773,-0.007637585513293743,0.008840557187795639
1772536285944559600,7.1465595703125,-0.009581576101481915,-0.013143418356776237,0.007396374829113483
1772536285954608400,7.1566083984375,-0.009200743399560452,-0.0065345182083547115,0.006048016250133514
1772536285964656600,7.16665673828125,-0.007765406742691994,0.0010221893899142742,0.006773902103304863
1772536285974704400,7.176704345703125,-0.007581915706396103,0.006942130159586668,0.006797071546316147
1772536285984753700,7.186753662109375,-0.0024287160485982895,0.0023819594644010067,0.00033997674472630024
1772536285994801400,7.196801513671875,0.00506195705384016,0.0007925848476588726,-0.007676936686038971
1772536286004850700,7.2068505859375,0.008555498905479908,-0.004308024421334267,-0.01131597999483347
1772536286014898400,7.2168984375,0.010184820741415024,-0.008642851375043392,-0.012739705853164196
1772536286024947700,7.22694775390625,0.013187438249588013,-0.00621604872867465,-0.010540658608078957
1772536286034995500,7.236995361328125,0.006991061381995678,0.0055151754058897495,-0.010036522522568703
1772536286045043500,7.24704345703125,0.004144645761698484,-0.001378599088639021,-0.013812246732413769
1772536286055092500,7.257092529296875,0.004049837123602629,-0.015105064027011395,-0.01460054237395525
1772536286065140500,7.267140380859375,0.00005299411714076996,-0.018468987196683884,-0.007646868005394936
1772536286075189500,7.277189453125,-0.002358498051762581,-0.013034273870289326,-0.0028126982506364584
1772536286085237500,7.287237548828125,-0.004119273275136948,0.0013835807330906391,0.009477809071540833
1772536286095286500,7.29728662109375,0.0004973160102963448,0.012301210314035416,0.017068350687623024
1772536286105334500,7.30733447265625,0.0031659742817282677,0.016116563230752945,0.01963898167014122
1772536286115382800,7.3173828125,0.008687772788107395,0.013656070455908775,0.021818513050675392
1772536286125431600,7.327431640625,0.007681254763156176,0.0069941384717822075,0.01645994745194912
1772536286135479600,7.3374794921875,0.006995757110416889,-0.004151456989347935,0.011387159116566181
1772536286145528600,7.347528564453125,0.001936648041009903,-0.006027496885508299,0.004678507335484028
1772536286155576600,7.35757666015625,0.003190996591001749,-0.00732738571241498,-0.0026795403100550175
1772536286165625600,7.36762548828125,0.0010779853910207748,-0.011758451350033283,-0.0032782747875899076
1772536286175673600,7.377673583984375,0.0008052773773670197,-0.015039466321468353,-0.006561952643096447
1772536286185722600,7.38772265625,-0.0016715098172426224,-0.014270279556512833,-0.009439194574952126
1772536286195770600,7.3977705078125,0.0037216576747596264,-0.003140130080282688,-0.007293485105037689
1772536286205818600,7.407818603515625,-0.0002882638946175575,-0.002135319635272026,-0.008912687189877033
1772536286215867400,7.417867431640625,-0.006406609900295734,-0.0067702848464250565,-0.010583554394543171
1772536286225915600,7.42791552734375,-0.004683811217546463,-0.010411359369754791,-0.00873984768986702
1772536286235964400,7.43796435546875,-0.0013713715597987175,-0.004319111816585064,-0.0008145470637828112
1772536286246012400,7.448012451171875,-0.0002819681540131569,0.004196865018457174,0.001773828873410821
1772536286256061400,7.4580615234375,0.0004818262532353401,0.007750320713967085,0.005739009007811546
1772536286266109400,7.468109375,0.004944820422679186,0.004654924385249615,0.002150548854842782
1772536286276157700,7.47815771484375,0.009537175297737122,0.003984872251749039,0.002706084167584777
1772536286286206500,7.48820654296875,0.011473867110908031,-0.001972560305148363,-0.0014356020838022232
1772536286296254700,7.498254638671875,0.015324797481298447,-0.010737822391092777,-0.007806948386132717
1772536286306303500,7.508303466796875,0.01664138212800026,-0.011620408855378628,-0.01176062785089016
1772536286316351700,7.518351806640625,0.019198281690478325,-0.012592729181051254,-0.01392977312207222
1772536286326400500,7.528400390625,0.020589161664247513,-0.016263356432318687,-0.017987389117479324
1772536286336448800,7.53844873046875,0.017302021384239197,-0.014465190470218658,-0.017521603032946587
1772536286346496500,7.54849658203125,0.014646532014012337,-0.01603933982551098,-0.01672733761370182
1772536286356545500,7.558545654296875,0.01556425727903843,-0.010823539458215237,-0.008228924125432968
1772536286366593500,7.568593505859375,0.01589079387485981,0.0022767321206629276,-0.0022747337352484465
1772536286376642600,7.578642578125,0.01288381777703762,0.0051577393896877766,-0.0009229133138433099
1772536286386690600,7.588690673828125,0.007915091700851917,0.004142178222537041,-0.0010417456505820155
1772536286396739600,7.598739501953125,0.008587540127336979,0.0032992875203490257,-0.0023411018773913383
1772536286406787600,7.60878759765625,0.0032168873585760593,0.002446225844323635,-0.0011145368916913867
1772536286416836600,7.618836669921875,-0.0043132007122039795,-0.006334216333925724,-0.0042911553755402565
1772536286426884600,7.628884521484375,-0.010227487422525883,-0.013219721615314484,0.0022911694832146168
1772536286436932600,7.6389326171875,-0.011362527497112751,-0.009874790906906128,0.002751363907009363
1772536286446981600,7.648981689453125,-0.011928805150091648,-0.005785378161817789,0.008921325206756592
1772536286457029600,7.659029541015625,-0.013676905073225498,-0.0040266262367367744,0.007942081429064274
1772536286467078400,7.669078369140625,-0.012501402758061886,-0.007367989514023066,0.005310110282152891
1772536286477126700,7.679126708984375,-0.012551470659673214,-0.004149825777858496,0.00617696950212121
1772536286487175400,7.689175537109375,-0.011659301817417145,-0.0014087585732340813,0.0038284945767372847
1772536286497223700,7.6992236328125,-0.006375591270625591,0.0012434832751750946,0.0010822426993399858
1772536286507271400,7.709271484375,-0.00182318314909935,0.002065868116915226,-0.001121789333410561
1772536286517320700,7.71932080078125,0.002158774994313717,0.004370034672319889,-0.007879028096795082
1772536286527368400,7.729368408203125,0.002295670099556446,0.005683524999767542,-0.005816874094307423
1772536286537417700,7.739417724609375,0.0008431822061538696,0.0013090162537992,-0.007731953635811806
1772536286547465500,7.749465576171875,0.0016218493692576885,-0.0025455565191805363,-0.009503524750471115
1772536286557514800,7.7595146484375,0.0015723141841590405,0.002500335220247507,-0.011141635477542877
1772536286567562500,7.7695625,0.0011880910024046898,0.0019295727834105492,-0.01212990377098322
1772536286577610500,7.779610595703125,0.001893562264740467,0.002221454866230488,-0.010415093973279
1772536286587659500,7.789659423828125,-0.0007852623239159584,0.012050073593854904,-0.0062582772225141525
1772536286597707500,7.79970751953125,-0.005263101309537888,0.009252157062292099,-0.008490272797644138
1772536286607756500,7.809756591796875,-0.009111277759075165,0.004766853526234627,-0.009324615821242332
1772536286617804500,7.819804443359375,-0.004975654184818268,-0.0003043380565941334,-0.006018567830324173
1772536286627853600,7.829853515625,-0.00340220145881176,-0.006473330780863762,-0.008609526790678501
1772536286637901600,7.839901611328125,0.0012034694664180279,-0.006426725536584854,-0.011244989931583405
1772536286647949600,7.849949462890625,0.0028952881693840027,0.00003396719694137573,-0.007137523032724857
1772536286657998600,7.85999853515625,0.003586378414183855,0.0035996735095977783,-0.00483548641204834
1772536286668046600,7.870046630859375,-0.003164922818541527,0.004012314137071371,-0.011362504214048386
1772536286678095600,7.880095703125,-0.009543726220726967,-0.002355836797505617,-0.01138940267264843
1772536286688143600,7.8901435546875,-0.01183594111353159,-0.005437295883893967,-0.013691865839064121
1772536286698192600,7.900192626953125,-0.01237789448350668,-0.00521652027964592,-0.011129372753202915
1772536286708240400,7.910240478515625,-0.008833508938550949,-0.009420870803296566,-0.008239644579589367
1772536286718289700,7.92028955078125,-0.0038970746099948883,-0.00532226637005806,-0.000154819805175066
1772536286728337400,7.93033740234375,0.00035852566361427307,0.011103793047368526,0.00038411724381148815
1772536286738385700,7.9403857421875,0.008107258938252926,0.022485345602035522,-0.001505928230471909
1772536286748434400,7.950434326171875,0.008618677966296673,0.027478232979774475,-0.0030308295972645283
1772536286758482400,7.960482421875,0.009453845210373402,0.02611922100186348,-0.0040950290858745575
1772536286768531500,7.970531494140625,0.007317693438380957,0.009308900684118271,-0.012655654922127724
1772536286778579500,7.980579345703125,0.0020345142111182213,-0.0013775662519037724,-0.02028135024011135
1772536286788628500,7.99062841796875,-0.0021352358162403107,-0.00664056371897459,-0.020083006471395493
1772536286798676500,8.000676513671875,-0.008155577816069126,-0.009590281173586845,-0.0154062295332551
1772536286808724700,8.010724853515624,-0.012288333848118782,-0.0020392308942973614,-0.01618107222020626
1772536286818773500,8.0207734375,-0.009771646931767464,0.004027449991554022,-0.010032633319497108
1772536286828821800,8.03082177734375,-0.014490119181573391,0.004891553893685341,-0.003128326265141368
1772536286838870500,8.04087060546875,-0.012709262780845165,-0.007883097045123577,-0.00715023186057806
1772536286848918800,8.050918701171875,-0.013969415798783302,-0.0074290931224823,-0.0027993388939648867
1772536286858967600,8.060967529296875,-0.012358203530311584,0.0004195091314613819,0.00657418929040432
1772536286869015600,8.071015625,-0.010833583772182465,0.01143614947795868,0.01210870873183012
1772536286879063600,8.0810634765625,-0.005579965189099312,0.018570225685834885,0.010662877932190895
1772536286889112600,8.091112548828125,-0.005350293591618538,0.02288564294576645,0.014933008700609207
1772536286899160600,8.10116064453125,-0.008132497780025005,0.019849905744194984,0.013187041506171227
1772536286909209600,8.111209716796875,-0.0077980635687708855,0.016105402261018753,0.006154907867312431
1772536286919257600,8.121257568359376,0.001306750811636448,0.006678879261016846,0.003844881895929575
1772536286929306600,8.131306640625,-0.00012425333261489868,0.004000545013695955,0.006745572667568922
1772536286939354600,8.141354736328125,-0.0006928378716111183,0.009026462212204933,0.0047780293971300125
1772536286949402600,8.151402587890624,-0.004099952057003975,0.007818933576345444,0.0073111411184072495
1772536286959451600,8.16145166015625,-0.007431567646563053,0.008625872433185577,0.0059630488976836205
1772536286969499400,8.17149951171875,-0.01322958990931511,0.007433210499584675,0.010953757911920547
1772536286979548400,8.18154833984375,-0.015033615753054619,0.001735377125442028,0.0056226421147584915
1772536286989596400,8.191596435546876,-0.011662154458463192,0.006086293607950211,0.006977805867791176
1772536286999645400,8.2016455078125,-0.008836007677018642,0.014724789187312126,0.006687521003186703
1772536287009693400,8.211693359375,-0.008173155598342419,0.014889495447278023,0.004855632781982422
1772536287019742500,8.221742431640624,-0.01076334435492754,0.013878826051950455,0.0018971271347254515
1772536287029790500,8.23179052734375,-0.011609877459704876,0.005903184413909912,0.00012188847176730633
1772536287039838500,8.24183837890625,-0.00965458620339632,-0.0028234622441232204,-0.0026472664903849363
1772536287049887500,8.251887451171875,-0.005261396057903767,-0.0018670624122023582,-0.0023880789522081614
1772536287059935200,8.261935302734376,-0.0028951773419976234,-0.0006151101551949978,-0.006095465272665024
1772536287069984500,8.271984619140625,-0.0022241780534386635,-0.0018448666669428349,-0.004964074119925499
1772536287080032300,8.2820322265625,-0.0037754690274596214,-0.008584528230130672,-0.004477781243622303
1772536287090081500,8.29208154296875,0.0011423062533140182,-0.007800778839737177,-0.005281324498355389
1772536287100129300,8.30212939453125,0.003568179439753294,-0.0029330532997846603,-0.0028088458348065615
1772536287110177500,8.312177490234374,0.0036672595888376236,0.0013390653766691685,0.00048378738574683666
1772536287120226300,8.322226318359375,0.006185011938214302,0.0017119082622230053,0.00691958237439394
1772536287130274600,8.332274658203126,0.010127891786396503,0.010275810956954956,0.018986055627465248
1772536287140323300,8.3423232421875,0.008348633535206318,0.00981135480105877,0.022516341879963875
1772536287150371600,8.35237158203125,0.010766997933387756,0.004106396343559027,0.02317098341882229
1772536287160420400,8.36242041015625,0.010622655041515827,0.007272362243384123,0.02787812240421772
1772536287170468400,8.37246826171875,0.010040845721960068,0.009870268404483795,0.03113199584186077
1772536287180516600,8.3825166015625,0.004015709739178419,0.003587072715163231,0.020629286766052246
1772536287190565400,8.3925654296875,0.0022636703215539455,-0.0027961810119450092,0.020218491554260254
1772536287200613400,8.40261328125,0.0030074911192059517,0.014469889923930168,0.02531764656305313
1772536287210662400,8.412662353515625,-0.0032255342230200768,0.02612004429101944,0.02819158136844635
1772536287220710400,8.42271044921875,-0.0033019669353961945,0.01752549223601818,0.023815739899873734
1772536287230759400,8.432759521484375,-0.001991741359233856,0.015225386247038841,0.02197287045419216
1772536287240807400,8.442807373046875,-0.0033704591915011406,0.011298822239041328,0.013367131352424622
1772536287250856400,8.4528564453125,-0.002471405081450939,0.005679901223629713,0.009019892662763596
1772536287260904400,8.462904541015625,-0.002736123278737068,0.006687108892947435,0.004303168971091509
1772536287270952400,8.472952392578126,-0.0071963779628276825,0.006238242611289024,0.00019514374434947968
1772536287281001200,8.483001220703125,-0.006348160095512867,0.0064249299466609955,-0.005783386528491974
1772536287291049500,8.493049560546876,-0.005807398818433285,0.00297049293294549,-0.00796433538198471
1772536287301098200,8.50309814453125,-0.0064873043447732925,-0.0073125045746564865,-0.007924121804535389
1772536287311146500,8.513146484375,-0.011599773541092873,-0.010317882522940636,-0.01024586521089077
1772536287321195300,8.5231953125,-0.01417292095720768,-0.007858718745410442,-0.007655408699065447
1772536287331243500,8.533243408203125,-0.017467666417360306,0.003986663650721312,-0.007776929531246424
1772536287341291500,8.54329150390625,-0.01610439270734787,0.008577154949307442,-0.004156095907092094
1772536287351340500,8.553340576171875,-0.01620015874505043,0.009446974843740463,-0.006293530110269785
1772536287361388500,8.563388427734376,-0.017390325665473938,0.008070120587944984,-0.004222922492772341
1772536287371437600,8.5734375,-0.00902525708079338,0.007351716980338097,-0.007210864685475826
1772536287381485600,8.583485595703126,0.0026114247739315033,0.011157374829053879,-0.005467293784022331
1772536287391534300,8.593534423828125,0.010336002334952354,0.013713594526052475,-0.0029906965792179108
1772536287401582600,8.60358251953125,0.005391045473515987,0.010422458872199059,0.0009308080188930035
1772536287411630300,8.61363037109375,0.0013071661815047264,0.006915990728884935,0.003943766467273235
1772536287421679600,8.6236796875,0.0009942445904016495,0.0021041915751993656,0.005647922866046429
1772536287431727400,8.633727294921876,-0.0008229874074459076,-0.006892199628055096,0.00705462321639061
1772536287441776600,8.643776611328125,0.0005796989426016808,-0.009182784706354141,0.009835230186581612
1772536287451824400,8.653824462890626,-0.000024148263037204742,-0.003011208027601242,0.01136999111622572
1772536287461873400,8.663873291015625,-0.0008310861885547638,0.0014844737015664577,0.012013677507638931
1772536287471921400,8.67392138671875,-0.0010160580277442932,0.008012589998543262,0.009467081166803837
1772536287481969400,8.683969482421874,-0.0016453629359602928,0.007671439088881016,0.009465749375522137
1772536287492018400,8.694018310546875,0.0031829392537474632,0.0023734699934720993,0.008674624375998974
1772536287502066400,8.70406640625,0.009896768257021904,0.00800925213843584,0.01189891342073679
1772536287512115500,8.714115478515625,0.01073015108704567,0.01055748201906681,0.010225772857666016
1772536287522163500,8.72416357421875,0.0153089240193367,0.00905359536409378,0.006665925029665232
1772536287532212500,8.73421240234375,0.01769658364355564,0.013232573866844177,0.007750543765723705
1772536287542260500,8.744260498046875,0.01967078447341919,0.01668296568095684,0.0020918597001582384
1772536287552309500,8.7543095703125,0.020826194435358047,0.028093496337532997,-0.001947975717484951
1772536287562357500,8.764357421875,0.01765197329223156,0.035127170383930206,-0.010802719742059708
1772536287572405200,8.7744052734375,0.019687507301568985,0.023624295368790627,-0.024558356031775475
1772536287582454500,8.78445458984375,0.02387985587120056,0.014048367738723755,-0.03783927112817764
1772536287592502300,8.794502197265626,0.01795927807688713,-0.00038147158920764923,-0.04138342663645744
1772536287602551600,8.804551513671875,0.017207466065883636,0.030389225110411644,-0.008359430357813835
1772536287612599300,8.814599365234375,0.0013953708112239838,0.024764718487858772,-0.003689887933433056
1772536287622648600,8.824648681640625,0.0006392989307641983,0.023563632741570473,0.0011224441695958376
1772536287632696300,8.8346962890625,0.006562824826687574,0.04234243184328079,0.000039280857890844345
1772536287642744600,8.84474462890625,0.010391918011009693,0.03318488597869873,0.002140248892828822
1772536287652793300,8.85479345703125,0.0095203323289752,0.004709543660283089,-0.010524190962314606
1772536287662841600,8.864841552734376,0.008848682977259159,-0.015107836574316025,-0.019737662747502327
1772536287672890400,8.874890380859375,0.0015765884891152382,-0.02500331960618496,-0.022612767294049263
1772536287682938400,8.8849384765625,0.00238565681502223,-0.02489013411104679,-0.02432944066822529
1772536287692987400,8.8949873046875,0.004814815707504749,-0.011386317200958729,-0.027699913829565048
1772536287703035400,8.905035400390625,0.00851527787744999,-0.01120708603411913,-0.03083365596830845
1772536287713084400,8.91508447265625,0.010509629733860493,-0.020082861185073853,-0.023459386080503464
1772536287723132400,8.92513232421875,0.009519732557237148,-0.018767260015010834,-0.025869015604257584
1772536287733180400,8.935180419921876,0.006244111806154251,-0.003368622623383999,-0.0029879773501306772
1772536287743229400,8.9452294921875,0.006992726121097803,0.003089543431997299,0.020890723913908005
