time,seconds_elapsed,z,y,x
1772462546408164000,0.1041640625,-0.025577508848905563,0.00025533560109324753,-0.006657192866876721
1772462546418213000,0.114213134765625,-0.004922843354940414,0.0021166359609458593,-0.0012854001680389045
1772462546428261000,0.12426123046875,-0.03214928845465183,0.008646923645678907,0.0053131578467786305
1772462546438309000,0.13430908203125,-0.06745616415739059,0.0075979534488637,0.009416337115596978
1772462546448358100,0.144358154296875,-0.04890051676928997,-0.007524933878425509,0.014174272232409565
1772462546458406000,0.154406005859375,-0.037679450052976605,-0.006351122592389583,0.0008820800641551614
1772462546468455200,0.164455078125,-0.03199263658821583,-0.004907700584735721,0.0034212248866446315
1772462546478503000,0.1745029296875,-0.03377718191742897,-0.0016254549105186014,0.003616747458744794
1772462546488551200,0.18455126953125,-0.02643675602674484,-0.00022708675414323805,0.004925437170825898
1772462546498600000,0.194599853515625,-0.0021942951738834378,-0.006300707579404115,0.008834043715614826
1772462546508648200,0.204648193359375,0.0027449147939682004,0.006315183629328385,0.003443911642488092
1772462546518697000,0.214697021484375,-0.02987666734755039,0.008624720947025342,-0.010968461928423493
1772462546528745200,0.2247451171875,-0.04663900157809257,0.00552604254563339,-0.012500018877256661
1772462546538793000,0.23479296875,-0.030481647503376005,0.009938077701069414,-0.01199795110663399
1772462546548842200,0.24484228515625,-0.015965630894899368,0.007915750693762675,0.004065258411224931
1772462546558890000,0.254889892578125,-0.010731237372756004,0.0013321345197502524,0.013241978084668517
1772462546568939000,0.26493896484375,-0.04454524416923523,-0.009623486193409189,0.0022191373541951176
1772462546578987000,0.274987060546875,-0.048286184263229365,-0.002255249847192317,0.004512088863272219
1772462546589035000,0.285034912109375,-0.03377016765475273,-0.005664291105698794,0.010355718591250479
1772462546599084000,0.295083984375,-0.01565758785903454,-0.01287384802517481,-0.0008470452833920717
1772462546609132000,0.305132080078125,-0.01564823550879955,-0.000834268000209704,0.005442830374743789
1772462546619181000,0.31518115234375,-0.040029812571406365,0.006719745842227712,0.0006174012459814548
1772462546629229000,0.32522900390625,-0.04077916963398456,0.00538285294896923,0.008854301052354276
1772462546639277000,0.335277099609375,-0.025674539482593534,0.008115766777889803,-0.0034099545739591118
1772462546649326000,0.345326171875,-0.014454641810059546,-0.002238947166362777,-0.011109678763709961
1772462546659374000,0.3553740234375,-0.031063831305503845,-0.001568710621446371,0.001658471264131367
1772462546669422000,0.365422119140625,-0.044836336070299146,0.001874680431233719,0.008519169080164283
1772462546679471000,0.37547119140625,-0.03107318365573883,-0.0038024336234200743,-0.004367711956519633
1772462546689519000,0.38551904296875,-0.012522212442755698,-0.010939007505076006,-0.0013519625982269644
1772462546699568000,0.395568115234375,-0.024493805265426636,-0.006774352973140775,0.0048644094322808085
1772462546709616000,0.4056162109375,-0.04948503865897655,0.004446019623428583,0.00563908359920606
1772462546719664000,0.4156640625,-0.03272211990654468,0.0005113287893123925,-0.0073173190097324545
1772462546729713200,0.425713134765625,-0.021943536260724067,-0.0007594674646388739,-0.006570263502094894
1772462546739761200,0.43576123046875,-0.03526420560479164,0.003113894236832857,-0.002889912755228579
1772462546749810000,0.445809814453125,-0.0451391184091568,0.0015205240981653332,0.003983534944523126
1772462546759858200,0.455858154296875,-0.03241466139256954,-0.0011200718048028648,-0.008669701733067631
1772462546769906000,0.465906005859375,-0.024931612160801885,-0.0034472543770447373,0.0020739932624623176
1772462546779955200,0.475955078125,-0.02418283962011337,0.0063307191251777105,-0.0005435870910994708
1772462546790003000,0.4860029296875,-0.031515082204341884,-0.0011060980783775447,-0.002668525089509785
1772462546800052200,0.49605224609375,-0.030463527324795722,-0.0017284129614941774,-0.001186725566536188
1772462546810100000,0.506099853515625,-0.027765374282002448,0.010120822989987208,-0.005793013785593212
1772462546820148000,0.51614794921875,-0.03315466610491276,0.0037144722121767696,-0.000670592737942934
1772462546830197000,0.526197021484375,-0.033904607689380646,0.006078424864541739,-0.002998414631001651
1772462546840245000,0.536244873046875,-0.0234235456854105,0.0067139736885670565,0.0018830007350072264
1772462546850294000,0.5462939453125,-0.03000526216328144,0.007889100148854777,0.006298424290772527
1772462546860342000,0.556342041015625,-0.040328503257036206,-0.002987628375506028,0.0054238334133289755
1772462546870390000,0.56639013671875,-0.03224456552267074,-0.0010891560767311602,0.010919161160290241
1772462546880439000,0.57643896484375,-0.03014671646058559,-0.00030508389379829167,0.007293992933072149
1772462546890487000,0.586487060546875,-0.022061609682440756,0.004027775945048779,0.0022288184979930518
1772462546900536000,0.5965361328125,-0.029997078856825826,-0.005251088928617537,-0.00002506137602031231
1772462546910584000,0.606583984375,-0.03223813578188419,0.0032343970776535567,-0.008457100162003189
1772462546920632000,0.616632080078125,-0.03747428286969662,0.0027178989228792486,-0.005636526315938681
1772462546930681000,0.62668115234375,-0.03897241247296333,-0.0010070946833118796,0.008322276534885167
1772462546940729000,0.63672900390625,-0.042564884006977076,-0.0020939126724842934,0.0010775661036372185
1772462546950777000,0.646777099609375,-0.02565992643535137,-0.0033869572908617556,-0.0005416691286489367
1772462546960826000,0.656826171875,-0.027606384328007695,-0.0012304733767174183,0.005267382476292551
1772462546970874000,0.6668740234375,-0.04601297863423824,-0.008553792868973687,0.0014488653677515685
1772462546980923000,0.6769228515625,-0.04212181641459465,0.00027109029265120626,0.011491974345874041
1772462546990971100,0.68697119140625,-0.019373393511772155,-0.0019798304392956195,-0.0002031396229751408
1772462547001019000,0.697018798828125,-0.021911387556791305,0.0011727792395744472,0.0004915098439902067
1772462547011068200,0.707068115234375,-0.031041034951806067,0.007529363458370789,0.0007523162046447396
1772462547021116000,0.717115966796875,-0.04136836769878864,0.004883735187258571,-0.0009967924850061535
1772462547031165200,0.727165283203125,-0.03987491427063942,-0.0024608645550440993,-0.009281422156933694
1772462547041213000,0.737212890625,-0.015934651234745977,-0.007125604963069781,0.007245587214082479
1772462547051261000,0.747260986328125,-0.031495792981982226,-0.000023983663786202667,0.011249598691053688
1772462547061310000,0.75731005859375,-0.04676175117492676,-0.006938831953005865,0.005644910551793873
1772462547071358000,0.76735791015625,-0.04241875353455543,-0.009648182243248447,0.005369600741751491
1772462547081407000,0.777406982421875,-0.03673077102601528,-0.0022718447889667004,0.005149400386121124
1772462547091455000,0.787455078125,-0.01832359219789505,0.00725369745530188,-0.005324263762682676
1772462547101503200,0.797503173828125,-0.029693127474188803,0.015682356974110006,-0.005713774536922574
1772462547111552000,0.807552001953125,-0.06499883413314819,-0.0009455646212678402,-0.005394607318844646
1772462547121600300,0.817600341796875,-0.07098083115220069,-0.007393672181572765,-0.0003840856804512441
1772462547131649000,0.82764892578125,0.002645546072721481,0.004042416391754523,0.006290588044188916
1772462547141697000,0.837697021484375,0.03870177883803844,-0.0022762013036757706,0.00370806073769927
1772462547151745000,0.8477451171875,-0.028033085307478903,-0.0058372273866552854,0.000048259588517248626
1772462547161794000,0.8577939453125,-0.07815817543566227,0.000579772649332881,0.003457520042732358
1772462547171842000,0.867842041015625,-0.05092003989815712,0.002502466073911637,-0.004677618155907839
1772462547181891000,0.87789111328125,0.03123392717540264,0.0080203892451711,-0.008674505772348493
1772462547191939000,0.88793896484375,0.020606734699010847,0.0023062950478401033,-0.008952007539477199
1772462547201987000,0.897987060546875,-0.0473304909735918,-0.0011624131091870367,-0.0027303200130350887
1772462547212036000,0.9080361328125,-0.08309504731595516,0.0008106313962955027,0.004668539800308644
1772462547222084000,0.918083984375,-0.03431085040271282,-0.005697417057165876,0.0036705965378321707
1772462547232131800,0.9281318359375,0.008332359537482261,-0.008131439271057025,0.0018967917983420191
1772462547242181000,0.93818115234375,-0.011870470535755157,0.006605298282857984,0.005156012789998203
1772462547252228900,0.948228759765625,-0.05301964252591133,-0.007535354807740077,0.003214377202931791
1772462547262278100,0.958278076171875,-0.05167056600451469,-0.007972750711161642,0.009691683458257466
1772462547272326000,0.968325927734375,-0.010219780719280242,-0.005718231516331434,-0.005821271765697747
1772462547282375200,0.978375244140625,-0.011867547926306723,0.005643303116597235,0.0005390022475272417
1772462547292423000,0.9884228515625,-0.040000001955032345,0.0011008830471429974,0.0060984995381906625
1772462547302471200,0.99847119140625,-0.05705927330553531,0.008813156191213057,-0.002888487983122468
1772462547312520000,1.00852001953125,-0.020544190856814384,0.012570800824835896,-0.001453304080851376
1772462547322568000,1.01856787109375,0.0029489129334688184,0.0053202177752275015,0.00810688021853566
1772462547332616200,1.0286162109375,-0.02428571547269821,-0.004310876335902139,0.004765515635069459
1772462547342665000,1.0386650390625,-0.045834114935994145,-0.01249801871641539,0.006998297922126948
1772462547352713200,1.048713134765625,-0.051069677501916884,-0.011881174592860042,-0.0020468312609009443
1772462547362762000,1.058761962890625,-0.016356091517210007,-0.008207892907597124,0.005772902579326182
1772462547372810200,1.068810302734375,-0.00887830298244953,-0.005405786299984902,-0.003465429354552179
1772462547382858000,1.07885791015625,-0.04239654170274734,-0.0021452136014588176,-0.0029974465166218577
1772462547392907300,1.0889072265625,-0.043591304445266724,-0.0003647599254734814,0.003802424490265548
1772462547402955000,1.098955078125,-0.030721301478147504,0.00888994775447063,0.005343973110150546
1772462547413004000,1.109004150390625,-0.007085574346780777,0.007799997093295678,-0.001763210280239582
1772462547423052000,1.119052001953125,-0.03043079409897327,-0.004995935990614816,0.010627411672100424
1772462547433100000,1.12910009765625,-0.0477881716132164,-0.0009548987051937729,0.006455222287680954
1772462547443149000,1.139149169921875,-0.046892099556326866,-0.004112915211543441,0.005325597203243523
1772462547453197000,1.149197021484375,-0.0218985280752182,-0.0016623985205776988,0.009042699763923884
1772462547463246000,1.15924609375,-0.017559622088074683,0.004481374064600095,0.002431136137060821
1772462547473294000,1.169294189453125,-0.035517888104915615,-0.001700474641798064,0.004945731040183455
1772462547483341800,1.179341796875,-0.04883855744898319,-0.004736682266229763,-0.0020408033789135515
1772462547493391000,1.18939111328125,-0.029983634853363035,0.0006053820146247744,0.007090140924043953
1772462547503438800,1.19943896484375,-0.012031798577308654,0.0073000482145231214,-0.0011167108039371668
1772462547513488100,1.209488037109375,-0.023706454280018805,0.001595187636418268,0.004449362357985228
1772462547523536000,1.219535888671875,-0.034781975045800204,-0.0036757750364486124,-0.0015332922481931745
1772462547533584100,1.229584228515625,-0.04152151243388653,-0.007513499168958515,-0.007705587674956768
1772462547543633000,1.2396328125,-0.022816811963915825,0.005002201334619895,-0.0055893261733464894
1772462547553681200,1.24968115234375,-0.02027414174377918,-0.005122841172758489,-0.0038047808441333472
1772462547563730000,1.25972998046875,-0.029548750567436218,-0.0034973679959308356,-0.00201163208335638
1772462547573778200,1.269778076171875,-0.040030981615185736,-0.0020401366586331278,0.0043289691150188445
1772462547583826200,1.279826171875,-0.03554126898050308,0.003104578419215977,0.006418360876012593
1772462547593875000,1.289875,-0.02192600060403347,0.003528493786556646,-0.00052954029943794
1772462547603923200,1.299923095703125,-0.03569441371560097,-0.002713971666432917,-0.002419537030812353
1772462547613972000,1.309971923828125,-0.042569560182094575,0.0031427367388270795,0.008735405646730214
1772462547624020200,1.320020263671875,-0.04211889380514622,0.0021411402145400642,0.011459149788506328
1772462547634068000,1.33006787109375,-0.0319458748370409,-0.0027713918089400974,0.0037598457238636907
1772462547644117000,1.340116943359375,-0.030152561679482458,-0.0036418179679196328,0.00009056436028331518
1772462547654165000,1.3501650390625,-0.030902503263950346,-0.0018215894039720296,0.0034895591488108037
1772462547664214000,1.360214111328125,-0.03553893089294433,-0.005787990550603717,0.00009535013325512408
1772462547674262000,1.370261962890625,-0.028504794472455977,-0.0035693555199075486,0.004719100943766534
1772462547684310000,1.38031005859375,-0.0184825821518898,0.008280967276962474,-0.0004403276460245251
1772462547694359000,1.390359130859375,-0.03299742971658706,0.002298486200720072,-0.0016877704238519072
1772462547704407000,1.400406982421875,-0.0370393985837698,-0.0015329086557030677,0.007546323726326226
1772462547714456000,1.4104560546875,-0.02791384284198284,-0.005183823245530948,-0.0038622649187222123
1772462547724504000,1.420504150390625,-0.021629063484072685,-0.006176843737717717,-0.0033490729658864436
1772462547734552000,1.430552001953125,-0.028960137024521826,0.0009713292501866816,-0.0040214192694984375
1772462547744601000,1.44060107421875,-0.0346428588360548,0.009808003314305097,0.0009036160425283014
1772462547754649000,1.450649169921875,-0.028510639691352844,0.0076006568626035,0.0003527589604258537
1772462547764698000,1.460697998046875,-0.02282090361714363,-0.0033677959326654672,-0.0013786131431348621
1772462547774745900,1.470745849609375,-0.026112930899858472,-0.0027606786186806856,0.00025651377802714704
1772462547784794000,1.480794189453125,-0.027761867150664327,0.0009067669808398932,-0.000015508096385747194
1772462547794843000,1.4908427734375,-0.032547347861528395,-0.0010745338963344692,-0.000015215835440903902
1772462547804891100,1.50089111328125,-0.026862287962436674,0.00026074242857284844,0.0007412102887406945
1772462547814940000,1.51093994140625,-0.022822072660923003,-0.0001947462539654225,0.007222900458239019
1772462547824988200,1.52098828125,-0.03913140242695808,0.00014948234013281763,-0.0003995755105279386
1772462547835036200,1.5310361328125,-0.03762918117046356,-0.0013448478708509356,-0.006686272830888629
1772462547845085200,1.541085205078125,-0.03493628882467747,-0.003435810534423217,-0.00012022884618490933
1772462547855133200,1.55113330078125,-0.029396774876117703,0.0026334629092831163,0.0006096745972521603
1772462547865182200,1.56118212890625,-0.029395605832338332,0.0027632359019480646,0.0051421303951181465
1772462547875230000,1.57122998046875,-0.032089667221903796,0.005039318474614992,0.003173734665289521
1772462547885278000,1.58127783203125,-0.036429157730937,-0.0019904431648552416,0.009224120745435356
1772462547895327000,1.591326904296875,-0.029400282007455824,-0.0030851613326929508,0.0011703589536249637
1772462547905375000,1.601375,-0.02535714409649372,0.0014788038482889533,0.008289068385027349
1772462547915424000,1.611424072265625,-0.025054946279525755,-0.004813583427341655,0.011726732949819416
1772462547925472000,1.621471923828125,-0.036726094850897784,0.0010280004740227014,-0.0012064897129312156
1772462547935520000,1.63152001953125,-0.0371785147935152,0.0033378939847461876,-0.0032585816708393394
1772462547945569000,1.641569091796875,-0.023711130455136297,0.004702085876883939,0.0023381240913644434
1772462547955617000,1.651616943359375,-0.0270049113035202,-0.0008143759896513074,0.00971521046431735
1772462547965666000,1.661666015625,-0.04825637364685535,0.001153051625797525,0.0028697467500343916
1772462547975714000,1.671714111328125,-0.03987608331441879,0.0032327531098388135,0.0052806255503557616
1772462547985762000,1.681761962890625,-0.02880582324564457,0.0011073036547750235,-0.0009225034060887992
1772462547995811000,1.69181103515625,-0.024021511578559872,0.003972273764992132,0.006273965702950954
1772462548005859000,1.701859130859375,-0.0371872826218605,0.008226551942294463,0.004989588448219001
1772462548015908000,1.711908203125,-0.03718085288107395,-0.001160531679354608,0.00522694086804986
1772462548025956000,1.7219560546875,-0.02775485288798809,-0.002235805361205712,0.012554324614070356
1772462548036004000,1.732004150390625,-0.010397475373744964,-0.0038489944451954214,0.00985474679917097
1772462548046052900,1.742052978515625,-0.01982756702005863,0.002831606696732342,-0.0009897599560208619
1772462548056101000,1.75210107421875,-0.04182663286030292,0.006542370848171413,0.0004159238571301102
1772462548066150000,1.76214990234375,-0.04092763819396496,0.010618415514891967,0.002914572272449732
1772462548076198100,1.7721982421875,-0.031953473621606825,0.002076093888003379,-0.0010190773820504546
1772462548086246000,1.782245849609375,-0.022229367464780807,0.008078037716541439,-0.0007025222461670636
1772462548096295200,1.792295166015625,-0.03345452583432197,0.001920492334337905,0.0016899258483201265
1772462548106343000,1.802343017578125,-0.04662380400896072,-0.0021114848617929966,0.0074879994015209375
1772462548116392200,1.81239208984375,-0.0494698410898447,-0.001441138719022274,0.00496622583894059
1772462548126440000,1.82243994140625,-0.01101063883602619,-0.000835975900106132,0.0008124854266643523
1772462548136488000,1.832488037109375,-0.015500935992598533,-0.005205094362422824,0.011841408838052302
1772462548146537000,1.842536865234375,-0.04288227939307689,-0.0018345128176268188,0.007100333524495362
1772462548156585000,1.8525849609375,-0.04617021502256393,0.002799284462863579,0.0028601752040907738
1772462548166634000,1.862634033203125,-0.027763620716333388,0.0016956432030536233,0.0006349186363629997
1772462548176682000,1.872681884765625,-0.025513795962929724,0.009163394400989636,0.0017163754638284444
1772462548186730200,1.882730224609375,-0.03628653438985348,-0.004484689399693161,0.00593578325714916
1772462548196779000,1.892779052734375,-0.035084757384657855,-0.008617423556558788,0.003241447872947901
1772462548206827300,1.9028271484375,-0.03299041545391083,-0.007050302104000002,0.0002031578892841935
1772462548216876000,1.9128759765625,-0.01607961266338825,-0.001327677540341392,0.003058620385639369
1772462548226924000,1.922924072265625,-0.02520283031761646,-0.001470510943979025,0.0023422705435194075
1772462548236972000,1.932971923828125,-0.03358019804060459,0.00115504265348427,0.0013431947698816656
1772462548247021000,1.94302099609375,-0.02908990088403225,0.004926186089497059,0.001098006103467196
1772462548257069000,1.953069091796875,-0.03177987062036991,0.0010925718765240162,-0.0008955058013089001
1772462548267118000,1.9631181640625,-0.03162497231960296,-0.002743371290853247,0.0035417825263924893
1772462548277166000,1.973166015625,-0.029679683470726012,0.004357720285467803,-0.0051215625311248
1772462548287214000,1.983214111328125,-0.035814825224876404,-0.002225384431891143,0.0010220730567350983
1772462548297263000,1.99326318359375,-0.031926001092791555,0.0005975731675047427,-0.00024864099882543084
1772462548307311000,2.00331103515625,-0.02863105120062828,0.0007825378129724412,0.0013172931436449288
1772462548317360000,2.013360107421875,-0.026683424264192578,-0.004637870667409152,0.003334021527227014
1772462548327408000,2.023408203125,-0.033716391640901566,-0.011415612040879205,0.004721713025961071
1772462548337455900,2.033455810546875,-0.02937690113186836,0.004640619746921584,0.004885671416018158
1772462548347505200,2.043505126953125,-0.02219429615139961,0.0012794636175967752,-0.004717438709642738
1772462548357553000,2.053552978515625,-0.025336101308465003,0.002865892558824271,0.00038372035427019
1772462548367602200,2.063602294921875,-0.036707390150427816,-0.0018050675274338573,-0.002292385253496468
1772462548377650000,2.07364990234375,-0.022341011145710944,0.002284950865712017,0.002565283910743892
1772462548387698000,2.083697998046875,-0.02249181779325008,0.001003742815600708,0.008314896946027875
1772462548397747000,2.093746826171875,-0.03177285635769367,-0.0008701338980346918,-0.0029001784209161997
1772462548407795000,2.103794921875,-0.0302770648419857,-0.005302106729801744,-0.003207764799054712
1772462548417844000,2.113843994140625,-0.030723055043816564,-0.00419054702501744,0.003898085150774568
1772462548427892000,2.12389208984375,-0.017854805642366408,-0.0077126932691782705,0.0007665456593967974
1772462548437940200,2.133940185546875,-0.01980184805691242,-0.006756004465697333,0.0007147789395414293
1772462548447989000,2.143989013671875,-0.041945290803909296,0.005271437596902251,0.0018948555695824324
1772462548458037200,2.154037353515625,-0.03909808467924595,-0.0023642723127733915,0.0005339972788468003
1772462548468086000,2.1640859375,-0.03161678901314735,-0.00025255912211723626,0.0012165909818373619
1772462548478134300,2.17413427734375,-0.028922143101692197,-0.001989959107665345,-0.0035013774507679043
1772462548488182000,2.18418212890625,-0.032064532780647276,0.0021824586056172846,0.0004430127934552729
1772462548498231000,2.19423095703125,-0.03715162678658962,0.0029165267675183714,0.005094911986216902
1772462548508279000,2.204279052734375,-0.03760170864164829,0.0033861627064179626,-0.005371372573729604
1772462548518328000,2.214328125,-0.021589315995573996,0.004843814168823883,0.002196395799424499
1772462548528376000,2.2243759765625,-0.024280454775691032,0.0007449822815600782,0.0015161949829198419
1772462548538424000,2.234424072265625,-0.039539398705959315,-0.001740514391241595,0.014548713301680982
1772462548548473000,2.24447314453125,-0.02966623946726322,-0.0047314763681497425,0.007999346457142382
1772462548558521000,2.25452099609375,-0.028168109863996503,-0.0022513317239005117,0.001955426650401205
1772462548568570000,2.264570068359375,-0.030565234133601186,0.0006508559910114854,0.010252696608193218
1772462548578618000,2.2746181640625,-0.03939443727731704,0.0015436583785805851,-0.0048236207641661165
1772462548588667100,2.284667236328125,-0.030117490366101264,-0.00631434337911196,0.008789912312943488
1772462548598715100,2.294715087890625,-0.02652443431019783,-0.0007614402260165661,0.013353238173108547
1772462548608763000,2.304762939453125,-0.03355331003367901,0.0004393503984902054,-0.0014221782902255654
1772462548618812200,2.314812255859375,-0.035652912661433216,-0.00662441397528164,0.00024124314365908502
1772462548628860000,2.32485986328125,-0.0329611893594265,0.0025654757069889455,-0.00013679638849571347
1772462548638909200,2.3349091796875,-0.022487726140022278,0.00249043770940043,0.002989062280766666
1772462548648957000,2.34495703125,-0.029817630636692044,0.0031474585797172036,0.007778671177476644
1772462548659005200,2.355005126953125,-0.036703883019089695,0.002804344230471179,0.005163922101818025
1772462548669054000,2.365053955078125,-0.02997252893745899,-0.0019880320120602844,0.009574943477101623
1772462548679102000,2.37510205078125,-0.030126258194446563,-0.0027989830687642097,0.002060256998054683
1772462548689151000,2.38515087890625,-0.034165888974070545,0.0011665778276510536,0.003002268822211772
1772462548699199000,2.395198974609375,-0.033116672182083126,0.001985200734157115,0.003097381493449211
1772462548709247200,2.405247314453125,-0.023992285484075546,-0.0019204284022562204,-0.0005311660009436309
1772462548719296000,2.4152958984375,-0.03432312536239624,0.00442068425277248,-0.0042571094552055
1772462548729344300,2.42534423828125,-0.03552607141137123,-0.001316571624437347,0.0025883725253865123
1772462548739393000,2.43539306640625,-0.027444471764564514,-0.008140919485455379,-0.002476948040165007
1772462548749441000,2.44544091796875,-0.02609831785261631,-0.010403521522041409,-0.0023642449133098125
1772462548759489000,2.455489013671875,-0.034330139625072476,-0.0028485486983787266,-0.005385912555735558
1772462548769538000,2.4655380859375,-0.04330605776309967,-0.003886047653108835,0.005267893932946026
1772462548779586000,2.4755859375,-0.029689620342850682,-0.0053072760952636595,0.004277366791944951
1772462548789634800,2.485634765625,-0.025496844828128813,0.004359364253282547,0.0019680852025747296
1772462548799683000,2.49568310546875,-0.03132745067775249,0.004919546286156401,0.007389306533709168
1772462548809731000,2.50573095703125,-0.03296995718777179,0.0015112722126301378,-0.0011667970233596862
1772462548819780000,2.515780029296875,-0.03237374486029148,0.0021585206076037136,0.004005600645858794
1772462548829828000,2.525828125,-0.024444705426692963,-0.0012959032957442103,0.0009447700368240476
1772462548839876900,2.535876953125,-0.030132687935233115,-0.001925232441537082,0.000775386552978307
1772462548849924900,2.5459248046875,-0.036115853998064995,0.0033275095880497246,0.002217986576724797
1772462548859972900,2.555972900390625,-0.03596563187241554,0.0012181070854887365,0.0017749920495785771
1772462548870022000,2.56602197265625,-0.03791033619940281,-0.0007564626567997038,-0.003604874357860535
1772462548880070000,2.57606982421875,-0.030733576437830923,-0.002141030616685748,0.006662526629120111
1772462548890119000,2.586118896484375,-0.02908931636214256,0.00010168854249641299,0.0038102059379220006
1772462548900167000,2.5961669921875,-0.05168167192041874,0.0027072587978560474,0.001638122595846653
1772462548910215000,2.60621484375,-0.038213118538260454,-0.009032187503064051,0.004785736439190805
1772462548920264000,2.616263916015625,-0.026838322564959525,0.004408555423561483,0.0021763211257755754
1772462548930312000,2.62631201171875,-0.022196634238958356,0.0015489556082058696,-0.00660453109787777
1772462548940361000,2.63636083984375,-0.02773205653429031,0.006983209950849414,-0.000017005933728069067
1772462548950409000,2.646408935546875,-0.03686228845119476,-0.002693495133984834,0.003021704175043851
1772462548960458000,2.6564580078125,-0.03955810340642929,0.0025746088615152983,-0.0003527224278077483
1772462548970506000,2.666506103515625,-0.021906711381673813,-0.003784669637866318,0.003954509779438376
1772462548980554000,2.676553955078125,-0.010536007061600685,-0.0015088519266806542,-0.003975844828411936
1772462548990603000,2.68660302734375,-0.03507715860009193,0.004619576958892866,0.010505082200374454
1772462549000651000,2.696651123046875,-0.03747252930402756,-0.0006238857856951653,0.0032826018672436476
1772462549010700000,2.706699951171875,-0.020409166300296783,-0.004426511205360293,-0.0025474377267993985
1772462549020747800,2.716747802734375,-0.019954992792010306,0.005336794450692832,-0.0010502031726762652
1772462549030795800,2.726795654296875,-0.047637949487566944,0.001115834021102637,-0.0031591764169745145
1772462549040844800,2.7368447265625,-0.04868658175766468,0.006055263184662908,0.010258815821725874
1772462549050892800,2.746892822265625,-0.027590017715096473,-0.009513586944993584,0.008820928505714982
1772462549060941800,2.75694189453125,-0.027591186758875844,-0.0026923443565145134,0.005921827797032892
1772462549070989800,2.76698974609375,-0.03716916244328022,-0.00521702226223424,0.0031411841025575996
1772462549081038000,2.7770380859375,-0.04150456129908561,-0.0068850468060001726,0.005628361275792122
1772462549091086800,2.7870869140625,-0.03477028460800648,-0.005109004443651065,0.004438877496588975
1772462549101135000,2.797135009765625,-0.033875381594896316,-0.0025082016949541865,0.001976633835211396
1772462549111184000,2.807183837890625,-0.03282967193424702,0.007668160007707774,0.004005545846931636
1772462549121232100,2.817232177734375,-0.038511224702000614,0.0005398242314346134,-0.002157104968652129
1772462549131280000,2.82727978515625,-0.037165655311942096,-0.0010468787044286727,-0.005624086959473788
1772462549141329000,2.837328857421875,-0.027291327029466628,0.002753984016412869,0.0007764094662852585
1772462549151377000,2.847376953125,-0.014724106401205061,0.0054453967911656945,-0.0030574696081690487
1772462549161426000,2.857426025390625,-0.028489596903324126,0.0010137162203434854,0.010182864508684724
1772462549171474000,2.867473876953125,-0.03148234897851944,0.006309420608822256,-0.0006792875010520219
1772462549181523000,2.87752294921875,-0.04390285461246967,0.003452067549480125,0.00004720014259219169
1772462549191571000,2.887571044921875,-0.032982232147455215,0.0019228121555875987,0.002422496172878891
1772462549201619000,2.897618896484375,0.00008417115211486816,-0.0073145790633745485,0.004720617047417909
1772462549211668000,2.90766796875,-0.028046529310941693,-0.003494052660837769,-0.004694477959163486
1772462549221716000,2.917716064453125,-0.04720072711408138,0.005609117719205096,-0.005184891824610531
1772462549231765000,2.927764892578125,-0.0440583374351263,0.003570551963150501,0.000021627309918403625
1772462549241813000,2.93781298828125,-0.023861937102675437,-0.006931488896766677,-0.0035466596309095618
1772462549251860700,2.94786083984375,-0.001567103186249733,-0.01150830442616716,-0.0031018750054761764
1772462549261910000,2.957909912109375,-0.028953122761845588,-0.0008471822807099669,0.0030951895363628863
1772462549271957800,2.967957763671875,-0.053047699576616286,0.001166614360269159,-0.004313899410050362
1772462549282007000,2.978007080078125,-0.04212415450215339,0.002474902213551104,0.0007719524868763983
1772462549292054800,2.9880546875,-0.015037410134077072,-0.005137627749936655,-0.0003397716146893799
1772462549302102800,2.998102783203125,-0.0065080667197704315,-0.007166238367557525,0.0028243367057293653
1772462549312151800,3.00815185546875,-0.04646013787984848,0.001360620828717947,-0.0019799035045318302
1772462549322199800,3.01819970703125,-0.056935939186811446,-0.004505165932141244,0.0061930459538474675
1772462549332248800,3.028248779296875,-0.03793137898743153,-0.003017000600462779,0.005967731031682342
1772462549342296800,3.038296875,-0.026861118918657303,-0.0035966362524777647,-0.003561016949824989
1772462549352345000,3.048344970703125,-0.030301030239462852,-0.0007906023884192109,0.00043601679708808657
1772462549362393900,3.058393798828125,-0.04317103320658207,0.0005729319165926427,-0.001395436413772404
1772462549372442000,3.068442138671875,-0.03957622358500957,0.0016407986101228743,0.0018738493141718209
1772462549382491000,3.078490966796875,-0.022972879308462143,0.004651068075699732,-0.001087649106234312
1772462549392539100,3.0885390625,-0.016089549535512924,-0.00673705317005515,0.004433762930054218
1772462549402588000,3.098587890625,-0.0270136791318655,-0.0021297055050730706,0.005510653180256486
1772462549412636000,3.108635986328125,-0.05065700504779815,-0.005051776097388938,0.004911299047619104
1772462549422684000,3.118683837890625,-0.056042205217480656,-0.0018119630591012536,0.001862158876378089
1772462549432733000,3.12873291015625,-0.03628887247741222,-0.005618744064075872,0.004433050544001162
1772462549442781000,3.138781005859375,-0.008307809618115424,-0.012282257073884828,0.011104162338376045
1772462549452830000,3.148829833984375,-0.026413959673047063,-0.00011949819382280111,-0.0022671960133127866
1772462549462878000,3.1588779296875,-0.038382045364379884,0.0032139936104416847,0.004994191558100283
1772462549472926000,3.168926025390625,-0.048559155985713004,0.0021148275963496417,0.005410937399137765
1772462549482975000,3.17897509765625,-0.026412206107378003,-0.0005183795846067368,0.0031516689639538523
1772462549493023000,3.18902294921875,-0.02341828498840332,-0.0016311539989430457,0.002725150647573173
1772462549503072000,3.199072021484375,-0.033892332729697223,-0.0023945395868737247,0.00564637185651809
1772462549513120000,3.2091201171875,-0.0343424145847559,0.0030563918959349394,-0.003965597429033368
1772462549523167700,3.219167724609375,-0.022822072660923003,-0.0013044793278444557,-0.005526891929004341
1772462549533217000,3.229217041015625,-0.02221884607076645,-0.0032465076405555006,-0.003163688195310533
1772462549543264800,3.2392646484375,-0.029250059881806373,-0.003695456984452903,-0.00010008110729977488
1772462549553314000,3.24931396484375,-0.035381694504618644,-0.010245865008607507,-0.003023695202730596
1772462549563361800,3.25936181640625,-0.031788638448715205,-0.0010149857288226484,-0.001623345151823014
1772462549573411000,3.2694111328125,-0.027599370065331457,-0.0040842005737125875,-0.0017732932828366755
1772462549583458800,3.279458740234375,-0.0338847339451313,0.0006816712543834,0.002087455532234162
1772462549593506800,3.2895068359375,-0.01981938371360302,0.0003689794428646564,0.0043712921530939634
1772462549603555800,3.299555908203125,-0.037327567875385284,-0.00036963702999055385,0.0027028109516017136
1772462549613603800,3.309603759765625,-0.035085341906547544,-0.0005376779401209205,-0.0013824490680359304
1772462549623652900,3.31965283203125,-0.03044482262432575,-0.0009067578476853668,-0.006472118623554706
1772462549633700900,3.329700927734375,-0.03583469896912574,-0.0024246241978835314,0.01262415671357885
1772462549643750000,3.33975,-0.027300094857811926,0.00521404485385865,0.009959138755407184
1772462549653798000,3.3497978515625,-0.03388239585757255,0.0004554978156927973,0.005248239384405315
1772462549663846000,3.359845947265625,-0.038817514172196387,0.005824943293817341,0.003246489374246448
1772462549673895000,3.36989501953125,-0.02833995929956436,-0.00597447129972279,-0.0008216733801178634
1772462549683943000,3.37994287109375,-0.030287001714110372,-0.006197009742911905,0.0020729703491553664
1772462549693992000,3.389991943359375,-0.03582417757511139,-0.0010350969350896775,0.003433280650619417
1772462549704040000,3.4000400390625,-0.044802433800697324,0.002624503284692764,-0.0002970467178151011
1772462549714088000,3.410087890625,-0.03417874845564365,0.004658968254365027,0.0025623430349864065
1772462549724136700,3.42013671875,-0.017269699230790136,-0.00036899770917370915,0.0028854923084378242
1772462549734185000,3.43018505859375,-0.037169746965169906,-0.0008639324861112981,0.011070369666628539
1772462549744233700,3.440233642578125,-0.03971475527286529,-0.001014428606396541,0.004831694472767412
1772462549754282000,3.450281982421875,-0.032083237481117244,-0.0051425413870718325,-0.002177216174919158
1772462549764330000,3.460330078125,-0.018918050959706306,-0.0013166629559826105,-0.0028005357050336897
1772462549774379000,3.47037890625,-0.026550737795233724,0.0011378449235111474,0.00002232142966240644
1772462549784427000,3.480427001953125,-0.039565702190995214,0.001179556040233001,0.0007080386715009808
1772462549794476000,3.49047607421875,-0.038817514172196387,-0.00015525449379347265,-0.0015269538389518856
1772462549804524000,3.50052392578125,-0.03193535344302654,0.00421120622055605,0.009215882640052585
1772462549814571800,3.51057177734375,-0.022065116813778877,0.0011796291054692119,0.009041183660272508
1772462549824621000,3.52062109375,-0.035084757384657855,0.00033982641361653804,-0.0037487032753415403
1772462549834669600,3.530669677734375,-0.035083588340878484,-0.0010544774889945983,-0.003522584635578096
1772462549844718300,3.54071826171875,-0.02894552397727966,-0.0021684209471102803,0.006922711935266852
1772462549854766600,3.5507666015625,-0.025804303342103957,0.0015908767874818295,0.0025617219804786144
1772462549864815400,3.5608154296875,-0.030445407146215436,-0.0011619381851516663,0.013423033739998936
1772462549874863600,3.570863525390625,-0.03254325620830059,0.0017961444354616105,-0.0006168715230189263
1772462549884911600,3.58091162109375,-0.02790507501363754,0.004482497442606836,-0.0022852065940387545
1772462549894960600,3.590960693359375,-0.039572131931781766,0.002839936133660376,0.0020724040935747325
1772462549905008600,3.601008544921875,-0.03792728733420372,-0.000721528340736404,-0.0010999240659177302
1772462549915057700,3.6110576171875,-0.03463292196393013,0.0016207513359375297,-0.002032766202930361
1772462549925105700,3.621105712890625,-0.029246552750468252,0.004908467769715935,0.0005488112554885447
1772462549935153400,3.6311533203125,-0.04151917434632778,0.0006553951688110828,0.00018880057036876677
1772462549945202700,3.64120263671875,-0.032546763339638705,-0.004680358102265745,0.0046380350641906255
1772462549955250400,3.65125048828125,-0.03479191191792488,-0.0006772782070562243,-0.0010877587040886282
1772462549965299700,3.6612998046875,-0.035989012748003,0.002222397890361026,-0.0026981530427932737
1772462549975347500,3.671347412109375,-0.03433890745341778,0.004553352455422282,0.007450370804872364
1772462549985395500,3.6813955078125,-0.028951369196176528,0.0017777959280181675,0.00160900609921664
1772462549995444500,3.691444580078125,-0.03793137898743153,-0.00020769706708379087,0.005122567178122699
1772462550005492500,3.701492431640625,-0.029547581523656843,0.0031162049249280244,0.007472399973589927
1772462550015541500,3.71154150390625,-0.032389526951313016,0.0036973840800579635,0.00371602484844625
1772462550025589500,3.721589599609375,-0.03433306223452091,0.0016745730155613273,0.0024428083085455
1772462550035638500,3.731638427734375,-0.028499533775448796,-0.0014576879950240255,0.005354384906310588
1772462550045686500,3.7416865234375,-0.02835048069357872,-0.001171948122512549,-0.0012425291406922042
1772462550055734500,3.751734619140625,-0.030292262411117554,0.0021607673636171968,-0.0008617679284885525
1772462550065783600,3.761783447265625,-0.046452539095282554,0.007054028431046753,0.0015892419528216123
1772462550075831600,3.77183154296875,-0.036726094850897784,0.008503880179487168,0.00042825361574068665
1772462550085880600,3.781880615234375,-0.03134089468121529,-0.000009516747016459704,-0.00007109247483313084
1772462550095928300,3.79192822265625,-0.03912029651105404,-0.0004741020514629781,0.002080203807540238
1772462550105977600,3.8019775390625,-0.03642272799015045,-0.0022149635025765745,0.0002481660747900605
1772462550116025300,3.812025390625,-0.038514731833338735,0.00039962117630057035,-0.0032746194901876148
1772462550126073600,3.822073486328125,-0.035218612897396084,0.0011107011882588267,0.005102620368637145
1772462550136122400,3.832122314453125,-0.022946575823426244,-0.0022191647536586967,0.005597272017784417
1772462550146170600,3.842170654296875,-0.03761106099188328,-0.006816310685034841,0.0025694668955169617
1772462550156219400,3.852219482421875,-0.03432078727483749,-0.0039943668657913805,-0.0009459938795305788
1772462550166267600,3.862267578125,-0.03567453997135162,0.0002432981034275144,0.0035001170754432676
1772462550176315600,3.872315673828125,-0.027594693890213965,0.000554254615586251,0.003898322612792253
1772462550186364700,3.88236474609375,-0.018014380118250847,-0.00029572241040878,0.001341678666230291
1772462550196412700,3.89241259765625,-0.03013151889145374,0.002424359336402267,0.004415368756838143
1772462550206461400,3.90246142578125,-0.03626607612371444,0.0006757712365593761,-0.0042673933872021735
1772462550216509700,3.912509765625,-0.04150222321152687,0.003522584635578096,0.006186250886879861
1772462550226558500,3.922558349609375,-0.02878478045761585,-0.0006353204951621592,0.011969236468803136
1772462550236606700,3.932606689453125,-0.000353051221370697,0.007136491683265194,-0.0034160007222555576
1772462550246654500,3.942654541015625,-0.023400164809823036,-0.006801834635110571,0.005954287028219551
1772462550256703500,3.952703369140625,-0.036870471757650375,-0.004830635026842355,0.0071062700749374924
1772462550266751500,3.96275146484375,-0.02639759306013584,-0.004670950953103601,0.0016471461525186895
1772462550276800500,3.972800537109375,-0.058571431434154504,-0.0034332349848467856,0.0031024229947477578
1772462550286848500,3.9828486328125,-0.09088906219303608,0.006484220053302124,0.0032651027431711555
1772462550296896500,3.992896484375,-0.013822189125418662,0.013599367554439232,-0.0050220842120237644
1772462550306945500,4.002945556640625,0.02522913380265236,0.00974994385098107,-0.004304309597797692
1772462550316993500,4.01299365234375,-0.036870471757650375,0.004792960764421149,0.002929148787073791
1772462550327042600,4.02304248046875,-0.08834580745100974,0.0017200652582570908,0.005484641956165433
1772462550337090600,4.033090576171875,-0.03641980538070202,-0.002490172847919166,0.003607924831472337
1772462550347138600,4.043138671875,0.02073766760230064,0.001329540703864768,0.00332123511089012
1772462550357187600,4.0531875,0.0029278701454401013,0.002228562769666314,0.002778141210135072
1772462550367235600,4.063235595703125,-0.07054243973493575,-0.005179795524384826,0.0037627865996211767
1772462550377284600,4.07328466796875,-0.07323591660261154,-0.00553225309071131,0.0007564078578725456
1772462550387332400,4.083332275390625,-0.022660160097479818,0.010037519487552344,-0.004335453654732555
1772462550397381600,4.093381591796875,-0.0000672200173139572,0.005081988572562113,0.0008527078391984105
1772462550407429400,4.103429443359375,-0.01772737987041473,0.006467542913137003,-0.0017401947308331727
1772462550417477600,4.1134775390625,0.06456804150044917,0.0065241045391187065,-0.011466766839381307
1772462550427526400,4.1235263671875,-0.1350467683494091,0.00450287351035513,0.0028169205842539665
1772462550437574700,4.13357470703125,-0.14791209514141082,-0.012496027688728645,0.03558603970399126
1772462550447623400,4.14362353515625,0.042726212048530575,-0.022578208301914853,0.015374770595971494
1772462550457671700,4.153671630859375,0.08102993147969245,-0.013560579047165811,0.02679353357516229
1772462550467719700,4.1637197265625,-0.05005845463275909,0.004089799197437242,0.01150695271929726
1772462550477768700,4.173768798828125,-0.13909049078226088,0.015080673887068404,-0.007835461132321506
1772462550487816400,4.18381640625,-0.05888707325458526,0.01225042803036049,-0.012548808188736438
1772462550497865500,4.193865478515625,0.06665303108096123,0.00481497166682966,-0.007207849019579589
1772462550507913500,4.20391357421875,0.029840426990389822,0.008654705093335359,0.01720931081306189
1772462550517962500,4.21396240234375,-0.1227899288445711,-0.005185047088237479,0.016628423918876797
1772462550528010500,4.224010498046875,-0.12368307829201221,-0.017519911132194102,0.011241159656271338
1772462550538058500,4.23405859375,0.011732523369789123,0.0036092308725696057,-0.005382825549505651
1772462550548107500,4.244107421875,0.06125906308293342,0.009925629211449995,-0.01802128478307277
1772462550558155500,4.254155517578125,-0.037654315611720085,0.00006060761343687772,-0.01917056441605091
1772462550568204500,4.26420458984375,-0.14060031082332133,0.00708816816266626,-0.016606577413249758
1772462550578252500,4.27425244140625,-0.05709960531592369,0.01489256743644364,-0.00038112653838470576
1772462550588301600,4.284301513671875,0.04614800319075584,0.0036426673512905835,0.01702089383518323
1772462550598349600,4.294349609375,0.0265431390106678,-0.00716181792076677,0.016979593710415065
1772462550608397600,4.3043974609375,-0.08298983337581158,-0.010433286472642793,0.016703206188138572
1772462550618446600,4.314446533203125,-0.09121931706070899,-0.0007819898237008601,0.013158756780624389
1772462550628494600,4.32449462890625,-0.010864508363604544,0.0033246143780648707,0.002524129916448146
1772462550638543600,4.334543701171875,0.01262801090478897,-0.001012821171199903,0.009552786444220692
1772462550648591600,4.344591552734375,-0.038249943417310715,-0.0124266979127191,0.006792728880047798
1772462550658639400,4.354639404296875,-0.08792904334366321,0.0004950991737190634,0.009471209107991308
1772462550668688600,4.364688720703125,-0.061442018434405325,0.011821909553138539,0.010657806810364127
1772462550678736400,4.374736328125,0.012630933514237403,0.005293028374202549,-0.0016776143560186029
1772462550688785700,4.38478564453125,0.004998246678709984,0.011800364441610872,-0.005571717451419681
1772462550698833400,4.39483349609375,-0.062485390007495874,0.008344862826028839,-0.009513404281903058
1772462550708882700,4.404882568359375,-0.05784194811582565,0.012787302252883092,-0.002477313366346061
1772462550718930400,4.414930419921875,-0.012351532050967215,0.005225041171908378,0.004400043323542923
1772462550728978700,4.424978759765625,-0.0008306056052446365,-0.013977032627258449,-0.0016403876181691885
1772462550739027500,4.43502734375,-0.04692132565081119,-0.005762079791212454,0.0018519480096176265
1772462550749075700,4.44507568359375,-0.07983692230284213,0.0016517309960909186,0.0032028876945376394
1772462550759124500,4.45512451171875,-0.04257423635721207,0.007512065263697877,0.0010030212963931262
1772462550769172500,4.46517236328125,-0.0003752630531787872,0.007055818529333919,-0.007971399004291743
1772462550779220500,4.475220458984375,-0.0202776488751173,0.0008984375439118593,-0.01718916307417676
1772462550789269500,4.48526953125,-0.0579880785882473,-0.0004828424803446978,0.0007555858739651739
1772462550799317500,4.4953173828125,-0.053799979248642917,0.004080994836473837,0.014393120881170033
1772462550809366500,4.505366455078125,-0.01025777464210987,0.002750796545483172,0.014201470766589045
1772462550819414500,4.51541455078125,-0.0032248072654008863,-0.011487709162710235,0.011409045302774756
1772462550829463600,4.525463623046875,-0.04467909968197346,-0.009647579455049708,0.0028811814595013853
1772462550839511000,4.535510986328125,-0.06368190631568431,0.0045470597119536245,0.003358681044448167
1772462550849559000,4.54555908203125,-0.03869242648780346,0.0024847294878214596,0.0020160159975290298
1772462550859607800,4.55560791015625,-0.0059247138738632195,0.005008284015534445,-0.011254530594497918
1772462550869656000,4.565656005859375,-0.015351882910728453,0.006272431332990527,-0.011286935026757419
1772462550879704800,4.575704833984375,-0.05246259316504001,0.0058396294062957165,0.0006647475190460681
1772462550889753000,4.585753173828125,-0.050963294517993925,0.00935315395258367,0.0030506562748923898
1772462550899801000,4.595801025390625,-0.0012847791135311127,0.0008678962751757353,-0.009992456503119319
1772462550909850000,4.60585009765625,0.0027519290566444393,-0.0019365575531497597,0.0005093560279347002
1772462550919898000,4.615898193359375,-0.03750760061740875,-0.002592564643314108,0.0011802958257496356
1772462550929947100,4.625947021484375,-0.052770636200904844,-0.00044827349046245213,0.013088541088625788
1772462550939995100,4.6359951171875,-0.043945524710416795,-0.0018032591628376394,0.011457578885927796
1772462550950044200,4.646044189453125,-0.027187282133102415,-0.011141416475689038,0.010544701824709773
1772462550960092200,4.656092041015625,-0.02689034501314163,-0.008770230364939197,0.010951985717657953
1772462550970140000,4.666139892578125,-0.044998833155632016,0.0020046726196072994,0.004446147487591952
1772462550980189200,4.676189208984375,-0.044697804382443425,0.0017838603426236657,0.0004294774584472179
1772462550990237000,4.68623681640625,-0.038864860445261,0.003722865581186488,-0.010600103540066628
1772462551000286200,4.6962861328125,-0.018664952981472013,0.0021761932616122066,-0.009148626090120524
1772462551010334000,4.706333984375,-0.019867899030447004,0.004078053960716352,0.006091722737532108
1772462551020383200,4.71638330078125,-0.036031682845950125,0.0019859679191373287,0.010815846916288136
1772462551030431000,4.726430908203125,-0.059822892799973486,0.001026283440971747,0.010088573821354656
1772462551040479000,4.73647900390625,-0.03348901262581348,0.0034197818482294678,0.0013374408825300632
1772462551050528000,4.746528076171875,-0.0164303257972002,0.011224491649260744,-0.001652644311543554
1772462551060576000,4.756575927734375,-0.02631049929857254,0.004854079834511503,-0.00251983733382076
1772462551070625000,4.766625,-0.04037175787687301,0.003772677805973217,-0.005806969245709478
1772462551080673000,4.776673095703125,-0.031841245418787,0.0017138729794882238,0.0019689071864821017
1772462551090722000,4.78672216796875,-0.012540332621335982,-0.0045686413560993965,0.002535619424842298
1772462551100770000,4.79677001953125,-0.02570610366463661,0.0008987480711657554,-0.0037877201114781198
1772462551110818000,4.806818115234375,-0.04695756600797176,0.004301998909702525,0.001094608569983393
1772462551120867000,4.8168671875,-0.041264907324314114,-0.001143087354209274,-0.005429002778790891
1772462551130915000,4.8269150390625,-0.018369184905290603,0.0013651874059811234,-0.002559073365665972
1772462551140964000,4.836964111328125,-0.01567278542816639,-0.0028140710400417447,-0.010149382364191115
1772462551151011800,4.84701171875,-0.03737140701711177,0.004338239266863092,0.005667743438109755
1772462551161061000,4.85706103515625,-0.05382862082123756,0.004487484144978225,0.004664667342789471
1772462551171108900,4.86710888671875,-0.023152327528595924,0.00025601145452819763,0.004237747167609632
1772462551181157000,4.8771572265625,-0.015667524731159208,-0.0028269853205420076,0.004448047183733433
1772462551191206000,4.887205810546875,-0.024496727874875068,0.0032113997945562,0.00813711096001789
1772462551201254100,4.897254150390625,-0.04873509707450866,-0.0055913080678787076,0.010504607276339083
1772462551211303000,4.907302978515625,-0.03241816852390766,0.0017779511916451154,0.011442070789542048
1772462551221351200,4.91735107421875,-0.007574819168448448,0.01255030602607876,0.007216306320670992
1772462551231399200,4.927399169921875,-0.022537995022535322,0.005106246230984106,0.010998418675269931
1772462551241448200,4.9374482421875,-0.03989829514622688,-0.0017267781268339602,0.004947758600488305
1772462551251496200,4.94749609375,-0.04199088351130485,-0.007688243814511224,0.0033869390245527026
1772462551261545000,4.957544921875,-0.029570962399244307,0.0003577639291062951,-0.0005177767964079976
1772462551271593200,4.96759326171875,-0.020294015488028526,0.0009268051218707114,0.006488266040757298
1772462551281642000,4.97764208984375,-0.027034721919894217,0.0027412615321576596,0.003453026530705392
1772462551291690000,4.98768994140625,-0.03631225335299969,0.001842979251872748,-0.0007328260528855025
1772462551301738000,4.997738037109375,-0.03556464985609054,-0.00029111016737297173,0.0002813376920297742
1772462551311787000,5.007787109375,-0.02254676285088062,-0.0008289707705844194,-0.0018606610390357672
1772462551321835000,5.0178349609375,-0.02763619494438171,-0.005018887607939541,-0.0017686171077191829
1772462551331884000,5.027884033203125,-0.05487608404755592,0.0002847078260499984,0.005966488922666758
1772462551341932000,5.03793212890625,-0.03886310687959194,-0.0034855131613556294,0.0007765190641395748
1772462551351981000,5.04798095703125,-0.020606734699010847,0.0029317060703411696,0.002298522733338177
1772462551362029000,5.058029052734375,-0.020307459491491316,0.003939577071787789,0.002423555618803948
1772462551372077000,5.0680771484375,-0.03676993399262428,-0.0009882529855240135,0.0017598858119919896
1772462551382126000,5.0781259765625,-0.04096270950734615,0.004044663147768006,-0.0011624131091870367
1772462551392174000,5.088174072265625,-0.038271570727229115,0.0009598123423289507,0.0014663827581331134
1772462551402223000,5.09822314453125,-0.019863807377219198,0.004367237032484263,0.004135857695713639
1772462551412271000,5.10827099609375,-0.026295886251330374,-0.00010238266224041581,0.0051751010829582805
1772462551422318800,5.11831884765625,-0.046347325155138966,0.001387846762361005,-0.004549918389320374
1772462551432368000,5.1283681640625,-0.02719137378633022,0.009540666748164221,-0.009737203100416808
1772462551442415900,5.138415771484375,-0.014172317737340926,0.00841457619452849,0.0024276290057227016
1772462551452465200,5.148465087890625,-0.028084523233771322,0.007285645229835063,0.0046384917219169436
1772462551462513000,5.158512939453125,-0.03077741557955742,0.0052798309659119694,0.007923797002900392
1772462551472562200,5.168562255859375,-0.026735446712374687,0.003966309815086424,0.00032250995263457296
1772462551482610000,5.17860986328125,-0.025984336084127424,0.006102134533692151,0.0065249082567170255
1772462551492658200,5.188658203125,-0.02404138532280922,-0.002476354385120794,0.0015396671900525687
1772462551502707000,5.19870703125,-0.03377016765475273,-0.0035029848859645424,-0.000039254298154264685
1772462551512755200,5.208755126953125,-0.03167465668022632,0.002642020675074309,0.002544350720569491
1772462551522804000,5.218803955078125,-0.022694646888971326,0.006173765864642336,0.0015247984144836663
1772462551532852000,5.22885205078125,-0.02539104636609554,0.009573116846196352,-0.0023323884703218938
1772462551542901000,5.23890087890625,-0.029879589956998822,0.000006420607632026076,0.01055595387108624
1772462551552949000,5.248948974609375,-0.03631459144055843,-0.003010552593367174,0.005045903479028493
1772462551562997000,5.2589970703125,-0.03526479012668132,-0.0006231825327966361,0.0005497063046321272
1772462551573046000,5.2690458984375,-0.03436696450412273,0.0015016824003774671,-0.0010931655315682292
1772462551583094000,5.279093994140625,-0.030923546051979063,0.005689644742663949,0.002469184858817607
1772462551593143000,5.28914306640625,-0.03376315339207649,0.006402021662564948,0.005116539296135306
1772462551603191000,5.29919091796875,-0.02852466821670532,-0.0021315230028238147,-0.001115340830758214
1772462551613240000,5.309239990234375,-0.028219547790288922,-0.005098190788691863,0.01256084568640217
1772462551623288000,5.3192880859375,-0.035253099688887596,0.003475685887085274,0.00697575729675591
1772462551633336000,5.329336181640625,-0.03704816641211509,-0.0016368987531401216,0.0086799491324462
1772462551643384800,5.339384765625,-0.03599953414201736,0.002458599532721564,0.0043913485604338345
1772462551653433000,5.34943310546875,-0.03285597541928291,0.003916926848562434,0.006381462931726128
1772462551663481900,5.35948193359375,-0.033012627285718917,0.011370092398719861,0.0022724384440109134
1772462551673530000,5.369530029296875,-0.03495908517837524,0.01449627986154519,-0.0016699425062164663
1772462551683578000,5.379578125,-0.022539164066314697,0.004567125252448022,0.005194591234717518
1772462551693627100,5.389627197265625,-0.035707857719063756,-0.0020936752104666083,0.006105678197648376
1772462551703675100,5.399675048828125,-0.029274609801173208,-0.0008521689830813556,0.003383559757377952
1772462551713724200,5.40972412109375,-0.028682489126920698,0.00006209631762467325,0.006148786687012762
1772462551723772200,5.419772216796875,-0.027786417070031166,0.0014757807741407304,0.01000825686044991
1772462551733821200,5.4298212890625,-0.035118075132369996,-0.002301207880768925,0.004179039250314235
1772462551743869200,5.439869140625,-0.02928103954195976,0.0004531049292068928,0.00199738436229527
1772462551753917000,5.4499169921875,-0.02703764452934265,-0.0006645465896464883,-0.0050589821563102304
1772462551763966200,5.45996630859375,-0.027483634731173514,0.007808774054795503,0.006244575211685151
1772462551774014000,5.470013916015625,-0.03137713503837585,0.005603391231317072,-0.0020570238613523543
1772462551784063000,5.48006298828125,-0.02538987732231617,0.008620857622660696,0.0017505699943751096
1772462551794111000,5.490111083984375,-0.021498715102672577,0.009311050110217184,0.00429018974089995
1772462551804160000,5.500159912109375,-0.04454173703789711,0.00610178747382015,0.0018070859545841812
1772462551814208000,5.5102080078125,-0.03286591229140758,-0.0003732263597194105,0.0023022307940758764
1772462551824256000,5.520256103515625,-0.03496142326593399,-0.01001692422409542,0.006748743607848882
1772462551834305800,5.530305908203125,-0.04049509199559689,-0.0006318772959057242,0.0006919825858436524
1772462551844353800,5.540353759765625,-0.03166355076432228,-0.0015037373601458966,0.003156893128342926
1772462551854402800,5.55040283203125,-0.03360767056941986,0.0011341642622370272,0.007376264389045536
1772462551864450800,5.560450927734375,-0.030166590204834937,0.00594675217573531,0.0025199469316750764
1772462551874499800,5.570499755859375,-0.02104103446304798,0.004605703697167337,0.002443118835799396
1772462551884547600,5.580547607421875,-0.03570551963150501,-0.0005884126135148107,-0.003381824458017945
1772462551894595800,5.590595947265625,-0.037948914644122124,-0.0024057094348594547,0.006376330098882317
1772462551904644600,5.60064453125,-0.026874562922120093,-0.0016398670283611864,0.0004299889151006937
1772462551914692900,5.61069287109375,-0.02462766077816486,-0.0038249285830184816,0.008517178052477538
1772462551924741600,5.62074169921875,-0.03584931201636791,-0.0006087521486449986,0.011964103635959327
1772462551934790000,5.630789794921875,-0.028218963268399237,-0.010798649186315014,0.010328154730889945
1772462551944838700,5.640838623046875,-0.028815760117769238,-0.0007145688769873231,0.0018816855607554316
1772462551954887000,5.650886962890625,-0.02656885797381401,-0.0010095697681885211,0.00586213349904865
1772462551964935000,5.660934814453125,-0.03674246146380901,-0.0005893350621219724,0.005158643138501793
1772462551974983700,5.670983642578125,-0.05304886862039566,0.004677755153225735,0.00557785493126139
1772462551985032000,5.681031982421875,-0.029850363862514495,0.0012329667279031126,0.005992335749976337
1772462551995080700,5.691080810546875,-0.025659341913461683,-0.0024474936168175187,0.0007674772411584853
1772462552005129000,5.70112890625,-0.0373357511818409,-0.005500515378732234,0.00016394012374803423
1772462552015176700,5.7111767578125,-0.03659107029438018,0.000003982055373489856,0.0012964147523976861
1772462552025226000,5.72122607421875,-0.02521802788674831,-0.00475181590327993,0.0015686010235920547
1772462552035273700,5.731273681640625,-0.023720482805371285,0.004335088328551501,0.002200213458016515
1772462552045323000,5.741322998046875,-0.02701660174131393,0.003185096309520304,0.0038642924790270624
1772462552055370800,5.751370849609375,-0.03405132268369197,-0.0006737071436364203,0.00994162136502564
1772462552065420000,5.761419921875,-0.03345043418109417,0.006118035355722531,0.001812383184209466
1772462552075467800,5.7714677734375,-0.026713234880566594,0.004947521138470619,0.010432802415452897
1772462552085515800,5.781515869140625,-0.01907820995748043,-0.006600704306131229,0.003962711352203041
1772462552095564800,5.791564697265625,-0.028058219748735427,-0.00256776812877506,0.005144084890186786
1772462552105612800,5.80161279296875,-0.0373357511818409,0.003118424281477928,-0.0010013407959602772
1772462552115661800,5.811661865234375,-0.04436871855854988,0.00256611502780579,0.009149758601281791
1772462552125709800,5.821709716796875,-0.025664018088579175,-0.0038505470814649014,0.007452909821830689
1772462552135758800,5.8317587890625,-0.03209726600646973,0.009431507285265251,-0.002550524733029306
1772462552145806800,5.841806884765625,-0.030301614761352538,0.0018832381970249115,0.002068330706655979
1772462552155854600,5.8518544921875,-0.0328477921128273,0.004214996479684487,0.00436296271616593
1772462552165904000,5.86190380859375,-0.037485973307490345,0.007985473195416853,0.004952580906078219
1772462552175951600,5.87195166015625,-0.03942775502502918,-0.00003720847154036164,0.004180664951819926
1772462552186001000,5.8820009765625,-0.034788404786586756,-0.007047872684895992,0.0025661058946512636
1772462552196048600,5.892048583984375,-0.02282090361714363,0.0035165476204361765,0.0055261612766422325
1772462552206098000,5.902097900390625,-0.028804069679975508,-0.004355720124626532,0.0040261319772340355
1772462552216145700,5.912145751953125,-0.01877542761862278,-0.001999494120990857,-0.0003727605688385665
1772462552226194000,5.92219384765625,-0.041669980993866915,0.000041921179275959726,0.0026084106664173304
1772462552236242700,5.93224267578125,-0.03463467552959919,0.00790849896906875,-0.0027240364027209577
1772462552246290700,5.942290771484375,-0.0371785147935152,0.012989985218131914,-0.0015244696209207177
1772462552256339700,5.952339599609375,-0.027453824114799498,0.0028858850340824573,0.0012368665848858653
1772462552266387700,5.9623876953125,-0.022065116813778877,0.0053625682127662,0.003863141701556742
1772462552276436700,5.972436767578125,-0.05049684605002403,0.0035659488532692194,0.007584171518683433
1772462552286484700,5.982484619140625,-0.03642857320904731,0.0016827654551714658,0.004645853044465184
1772462552296533000,5.992532958984375,-0.024454057776927947,-0.0034748821694869547,0.0034574835101142524
1772462552306581800,6.002581787109375,-0.030286417192220687,-0.0051378195461817084,0.008354005113709718
1772462552316629800,6.012629638671875,-0.0314841025441885,-0.0004170198356732726,0.013000607076846062
1772462552326678800,6.0226787109375,-0.032229367953538895,-0.0060283295119646935,0.0006595233546569943
1772462552336726800,6.032726806640625,-0.029384499916434288,0.0020101342460140583,-0.0010291421183384955
1772462552346775800,6.04277587890625,-0.030582185268402097,0.013873572252783923,0.007005787108838557
1772462552356823800,6.05282373046875,-0.030281156495213506,0.011857035665446892,-0.0017955599135719238
1772462552366871800,6.062871826171875,-0.03536941954493522,0.006532516174437478,0.0002469056994654238
1772462552376920600,6.072920654296875,-0.034466917747259136,-0.006841691721463576,0.0011897943064570426
1772462552386968800,6.08296875,-0.03865267899930477,0.008654641161253675,0.01253700815308839
1772462552397017600,6.093017578125,-0.02937690113186836,0.0009686167032923549,0.012315090764407068
1772462552407065900,6.10306591796875,-0.02354337267279625,-0.006224089546082541,-0.0004039959573186934
1772462552417113900,6.11311376953125,-0.0257850141197443,-0.006907477833516896,0.0011739756828173995
1772462552427163000,6.123162841796875,-0.030875030735135076,0.005599564439570531,0.006015406098309904
1772462552437211000,6.1332109375,-0.04149988512396812,0.010466896481299772,0.003919219270348549
1772462552447260000,6.143260009765625,-0.029529461345076558,0.00976469389554113,0.0001844897214323282
1772462552457308000,6.153307861328125,-0.012469605472683906,-0.004969203247316182,-0.006186561414133757
1772462552467356700,6.163356689453125,-0.03147182758450508,-0.0034218185416888445,0.0020727146208286283
1772462552477405000,6.173405029296875,-0.051824295261502264,0.0058894690305460245,0.007693678041454404
1772462552487453700,6.18345361328125,-0.03880582373440265,-0.0024592114540748296,0.007422660814039409
1772462552497502000,6.193501953125,-0.012023615270853041,-0.006026776875695214,0.016440938522759824
1772462552507549700,6.2035498046875,-0.01890869860947132,0.0037404925694223493,0.013998623404558748
1772462552517599000,6.213598876953125,-0.0421019426703453,0.005710724063310772,0.009404354416858404
1772462552527646700,6.223646728515625,-0.04913257195949554,0.0035648528747260566,0.008113784883357584
1772462552537696000,6.233696044921875,-0.025488076999783515,0.0010839319123420864,-0.00047004693085327744
1772462552547743700,6.24374365234375,-0.021148586490750312,0.003702617377601564,0.00028418723624199627
1772462552557791700,6.253791748046875,-0.04987725284695625,0.010866088399337604,0.0025857421768829226
1772462552567840800,6.2638408203125,-0.026832477346062658,0.01029473651847802,0.002931559939868748
1772462552577888800,6.273888671875,-0.01860533174872398,0.006065263988869265,0.0025011326333507894
1772462552587937800,6.283937744140625,-0.012923778980970382,-0.004382251938525587,-0.0006462254816666245
1772462552597985800,6.29398583984375,-0.03671557345688343,-0.005377135594235733,0.008518858552910387
1772462552608034800,6.304034912109375,-0.04165244533717632,0.0029352771337609737,0.008538147775270044
1772462552618082800,6.314082763671875,-0.034167642539739605,-0.0000685808573383838,0.005594696468207985
1772462552628131800,6.3241318359375,-0.016659458377957344,0.004373876835824921,-0.0007892324152402579
1772462552638179800,6.334179931640625,-0.0189051914781332,0.001093503458285704,0.004028232602775097
1772462552648227600,6.3442275390625,-0.04284662355780601,0.002807476902473718,-0.0010120631193742155
1772462552658276900,6.35427685546875,-0.04150105416774749,0.009171769503690301,-0.0021277875426225362
1772462552668324600,6.36432470703125,-0.03072247052192688,0.005438236398017033,-0.0054065534849651155
1772462552678374000,6.374373779296875,-0.013518822264671325,-0.00240108805866912,0.003590900631435215
1772462552688421600,6.384421630859375,-0.03446984035670757,-0.004930232076952233,0.01176220612199977
1772462552698470000,6.394469970703125,-0.05257306780219078,0.005798292748909443,0.008265797107294201
1772462552708518700,6.4045185546875,-0.03177402540147305,0.00433967317212373,0.004949037242121994
1772462552718567000,6.41456689453125,-0.01591711557805538,-0.005090500672580674,-0.0007539967050775885
1772462552728615700,6.42461572265625,-0.023401918375492093,-0.0035633915700018404,0.002294065753929317
1772462552738664000,6.434663818359375,-0.062305941787362096,0.011705790626490489,-0.002418349720723927
1772462552748712700,6.444712646484375,-0.0492868857383728,0.009116623516660182,0.003258599937148392
1772462552758760700,6.4547607421875,-0.008884732723236083,0.004031721467804164,0.0035584048676304517
1772462552768809000,6.46480908203125,-0.003798807761073112,0.00738887727544643,-0.0026193521855399013
1772462552778857700,6.474857666015625,-0.03372632851302623,-0.00034865817404352125,0.005177384371589869
1772462552788906000,6.484906005859375,-0.044944472619891165,-0.005115014059329405,0.010890282125677914
1772462552798954800,6.494954833984375,-0.02683773804306984,-0.0009387969537638127,0.010315587510261685
1772462552809002800,6.505002685546875,-0.010977905610203743,-0.001958413191931322,0.009662165102828293
1772462552819051800,6.5150517578125,-0.024148352828621863,0.0070117145261261605,0.007735544421803206
1772462552829099800,6.525099853515625,-0.0483890601158142,0.004182464183261618,0.0021687954064458607
1772462552839148000,6.53514794921875,-0.039108606073260305,0.0053978678550105534,0.007158749180845916
1772462552849196800,6.54519677734375,-0.029234277790784833,0.01202076572664082,0.002628284410666674
1772462552859245000,6.5552451171875,-0.017563129219412804,0.0009624700902961194,-0.0050177916293963785
1772462552869293800,6.5652939453125,-0.029983634853363035,-0.0006321695568505674,0.005256879348587244
1772462552879342000,6.575342041015625,-0.045997196543216705,-0.002370702053559944,0.0009464322709478438
1772462552889390800,6.585390869140625,-0.03372749755680561,0.004076976248482242,0.007217183103505521
1772462552899438800,6.59543896484375,-0.015321487772464752,-0.008451693334523587,0.01232482670713216
1772462552909487000,6.605487060546875,-0.029235446834564208,-0.0011169756654184312,0.008829714600369333
1772462552919535900,6.615535888671875,-0.045991935846209524,-0.0007413198865950107,-0.0048612858934327955
1772462552929584000,6.625584228515625,-0.03671323536932468,0.002582929165288806,-0.0002271780856885016
1772462552939633000,6.6356328125,-0.03192366300523281,0.0018118717275559901,-0.0016257745709270237
1772462552949681200,6.64568115234375,-0.03536649693548679,0.004297140071494504,-0.005687836378067732
1772462552959730000,6.65572998046875,-0.025188217270374298,0.005257582601485774,0.00478071320420131
1772462552969778200,6.665778076171875,-0.031467735931277274,-0.0024369722228031604,0.0075330806522630155
1772462552979826000,6.675825927734375,-0.03341594738960266,-0.003777162184845656,0.010467417071107774
1772462552989875200,6.685875244140625,-0.033570261168479915,-0.002826610861206427,0.005696220613922924
1772462552999923000,6.6959228515625,-0.027286066332459447,-0.00018680040952749548,0.00789570341957733
1772462553009972000,6.705971923828125,-0.030875615257024765,-0.0004130286471452564,-0.004048563004750758
1772462553020020000,6.71602001953125,-0.03117372142076492,-0.0029159057130105793,0.001557915232796222
1772462553030069000,6.726069091796875,-0.03236906868517399,0.003952253890270367,0.004794540800154208
1772462553040117000,6.736116943359375,-0.02279343108832836,-0.00025511640538461504,0.0020644399828277527
1772462553050165000,6.7461650390625,-0.03192132491767406,-0.0018614921560976654,0.008662924932409078
1772462553060214000,6.756214111328125,-0.02533493226468563,-0.00284185409611091,0.009459336007107048
1772462553070262000,6.766261962890625,-0.02907587235867977,-0.005641366887837648,0.003036609483230859
1772462553080311000,6.77631103515625,-0.03296352744698524,-0.000509063766989857,-0.0007222133273258805
1772462553090359000,6.786359130859375,-0.028327099817991256,0.00696371066593565,0.00009195259977132081
1772462553100408000,6.796407958984375,-0.045834114935994145,0.004984117688657716,0.004873560853116214
1772462553110456000,6.8064560546875,-0.033111996006965634,0.00628349158312194,0.007315510645136237
1772462553120503800,6.81650390625,-0.027871757265925407,0.0021074480074923484,0.0010804339141584933
1772462553130553000,6.826552978515625,-0.022934885385632514,0.005241307320119813,0.0016322591106407343
1772462553140600800,6.836600830078125,-0.03445698087513446,0.011142667717859149,-0.002133815424609929
1772462553150650000,6.846650146484375,-0.03714753513336182,0.0021987338869832456,0.0019790267216973005
1772462553160697900,6.85669775390625,-0.019189853638410567,0.006800766056030989,0.002145980786439031
1772462553170747100,6.8667470703125,-0.011409867286682128,-0.0002674552971497178,0.00588967909310013
1772462553180795000,6.876794921875,-0.019191022682189942,-0.008303580967569724,0.011548965230118483
1772462553190843000,6.8868427734375,-0.04432838654816151,-0.0018881792336236684,0.01639001205312088
1772462553200892000,6.896891845703125,-0.04582359354197979,0.00036165465293452144,0.011341204230953007
1772462553210940000,6.90693994140625,-0.039088147807121276,0.0005695800488814711,0.0007522796720266342
1772462553220989000,6.916989013671875,-0.0350479325056076,0.004004194140061736,0.0020913462560623883
1772462553231037000,6.927036865234375,-0.03235504015982151,0.012853033566009253,-0.002018171421997249
1772462553241086000,6.9370859375,-0.029213235002756115,0.006344373191194608,0.006023607671074569
1772462553251134000,6.947134033203125,-0.037593525335192675,-0.004858692077547312,0.00884407191928476
1772462553261182000,6.957181884765625,-0.032954175096750256,-0.004444485253468156,0.008763846289925277
1772462553271231000,6.96723095703125,-0.028915713360905645,-0.0003238068605773151,0.012029624886531382
1772462553281279000,6.977279052734375,-0.022933131819963454,0.009820954127423464,0.010910411598253995
1772462553291328000,6.987327880859375,-0.031162615504860876,-0.002072267096256837,0.0048283334719017145
1772462553301375700,6.997375732421875,-0.035350130322575564,-0.0014949786649551243,0.003148399294633418
1772462553311425000,7.007425048828125,-0.0338543388068676,0.006487708918331191,0.004938387983944267
1772462553321472800,7.01747265625,-0.03160685214102268,0.008170428707730024,0.009492781618982553
1772462553331522000,7.02752197265625,-0.043430560925602914,0.0013412950737401843,0.002961242692079395
1772462553341569800,7.03756982421875,-0.03579670504629612,-0.0007262501816265285,0.0023004041631706058
1772462553351618000,7.0476181640625,-0.043726913523674006,-0.002923330967640504,0.004122194496542215
1772462553361666800,7.057666748046875,-0.02576981655061245,0.0010232786331325768,0.004708981408551335
1772462553371715000,7.067715087890625,-0.026213468664884564,-0.002060384862218052,0.008917776476312428
1772462553381763800,7.077763916015625,-0.029803017589449882,-0.004313707613805309,0.012970686862617731
1772462553391811800,7.087811767578125,-0.04371873021721839,0.0037591059383470563,0.006450710509344935
1772462553401860000,7.097860107421875,-0.039677930393815036,-0.0038669684933032838,0.00900729965697974
1772462553411908900,7.107908935546875,-0.045963878795504565,-0.002896388161787763,0.006460720446705818
1772462553421957000,7.11795703125,-0.02651040578484535,0.004645268522575498,0.005307842350844294
1772462553432006000,7.128005859375,-0.038031916752457616,0.01084658911442384,0.00355515346461907
1772462553442054100,7.13805419921875,-0.04371756117343902,0.002247587130544707,0.005833893785253167
1772462553452103000,7.14810302734375,-0.0359369902998209,0.003251165549363941,0.011047701177094131
1772462553462151200,7.158151123046875,-0.03234451876580715,0.000036751813814043994,-0.0016519867244176565
1772462553472200000,7.168199951171875,-0.0223211374014616,-0.0036582759123761203,0.004458057121094316
1772462553482248200,7.178248291015625,-0.032196050205826755,0.00037753720865584906,0.003355648837145418
1772462553492296000,7.1882958984375,-0.04715981058180332,0.0028352508253883567,-0.000369874492008239
1772462553502345000,7.198344970703125,-0.030843466553092003,0.006778453759523108,-0.0009361848715692758
1772462553512393000,7.20839306640625,-0.018124270233511923,-0.007581513770716264,0.0030586751845665273
1772462553522442000,7.21844189453125,-0.025607903987169264,0.0015146514798048882,0.00932655820660293
1772462553532490000,7.228489990234375,-0.05030278478264808,0.0008539682145230472,0.006348273048177361
1772462553542539000,7.2385390625,-0.05524316379427909,0.004354277086211368,0.013152308773528784
1772462553552587000,7.2485869140625,-0.020375848552584647,0.0002000526167452335,0.003061488196160644
1772462553562635000,7.258635009765625,-0.018431728747487067,0.00006519245700910688,-0.0025184856269508597
1772462553572684000,7.26868408203125,-0.029802433067560193,0.0033077911074273288,-0.0031738259968347848
1772462553582732000,7.27873193359375,-0.04835340428054333,0.006204553728550672,0.004123473138175905
1772462553592781000,7.288781005859375,-0.040270635589957235,0.0009114431559573858,0.005437624476663768
1772462553602829000,7.2988291015625,-0.010789689561724661,0.004914870111038908,0.009563691430725156
1772462553612877800,7.3088779296875,-0.018273323315382003,0.003435490874014795,0.015037026541586965
1772462553622926000,7.318926025390625,-0.042220016092061996,-0.00010083915912546217,0.006568217675480991
1772462553632973800,7.328973876953125,-0.050450084298849104,0.0012562836714088916,0.003711293874401599
1772462553643023000,7.339023193359375,-0.02650514508783817,0.006782764608459547,-0.008500957570038735
1772462553653070800,7.34907080078125,-0.008995207360386849,0.0032444526807870713,0.004121317713707685
1772462553663120100,7.3591201171875,-0.024110358905792235,0.0025074527762830256,-0.0019334157479926942
1772462553673168000,7.36916796875,-0.04625613974034786,-0.000018595102615654466,0.01810647884849459
1772462553683217200,7.379217041015625,-0.05344166733026504,0.00008628091081045567,0.011846432073041795
1772462553693265000,7.389264892578125,-0.03249123376011848,-0.001298999435128644,0.01143390574939549
1772462553703313000,7.39931298828125,-0.01708089866042137,-0.011613070841738954,0.011940393966808915
1772462553713362000,7.40936181640625,-0.024714170017838478,-0.00026509894328191874,-0.0029508491622284054
1772462553723410000,7.419409912109375,-0.041323359513282774,0.01105326326820068,0.004388718211930245
1772462553733459000,7.429458984375,-0.036383565023541446,0.005362732609547675,0.0064959013579413295
1772462553743507000,7.4395068359375,-0.024860300490260123,0.006104262558696791,0.009838581115659325
1772462553753556000,7.449555908203125,-0.021869886502623555,0.0013280428665224462,0.008612656049896032
1772462553763604000,7.45960400390625,-0.04356909261345863,-0.0022483725818339736,0.0034623971472494304
1772462553773652000,7.46965185546875,-0.04446691823601723,-0.0013462635098025202,0.007207447160780429
1772462553783701000,7.479700927734375,-0.019033201771974564,-0.0034358653333503753,-0.0002564407127909362
1772462553793748700,7.489748779296875,-0.010054945546388626,0.00163432320356369,0.0032937077831476924
1772462553803798000,7.499798095703125,-0.038189737662672994,0.005633457576017827,0.014545973355323075
1772462553813845800,7.509845703125,-0.04163315611481666,-0.001645319521613419,0.008656476925313471
1772462553823895000,7.51989501953125,-0.026671149304509163,0.004938735043816268,0.0032493754510767754
1772462553833946000,7.529946044921875,-0.019936288091540334,0.004813126769615337,0.007150383211299777
1772462553843994000,7.539994140625,-0.025019290444254872,0.006146612996235489,0.010012604242004454
1772462553854043100,7.550043212890625,-0.04013093485832214,0.005686292874952778,0.00751711589815095
1772462553864091100,7.560091064453125,-0.044021512556076045,0.0038050274393055584,-0.0016415018630214035
1772462553874140200,7.57014013671875,-0.023220716589689255,0.0039853615754283965,-0.0008877060873433947
1772462553884188200,7.580188232421875,-0.027711598268151283,0.004066820180648937,0.003407945279963314
1772462553894237200,7.5902373046875,-0.03759060272574424,0.0072906410653609775,0.008138097340706736
1772462553904285200,7.60028515625,-0.03639116380810738,0.0055594972906634205,0.007575111429393291
1772462553914333200,7.610333251953125,-0.021426818910241126,-0.003263778435764834,0.007761519113276153
1772462553924382200,7.62038232421875,-0.029508418557047843,0.0007576043011154979,0.004616937477234751
1772462553934430200,7.63043017578125,-0.04207856179475784,0.001385983598837629,-0.00906454626955092
1772462553944479200,7.640479248046875,-0.036544893065094945,-0.0006639620677568018,-0.00446267849728465
1772462553954527200,7.65052734375,-0.028763737669587133,0.0029567857126705345,0.004476707022637128
1772462553964576300,7.660576171875,-0.03340250338613987,-0.0011572254774160683,0.010282014034222811
1772462553974624300,7.670624267578125,-0.03160685214102268,-0.002251733582699671,0.006979848949983715
1772462553984672000,7.680672119140625,-0.04088730618357658,-0.0017693568932358175,0.007718008765112608
1772462553994721300,7.69072119140625,-0.03026654344797134,-0.0025758235710673033,0.004292765290476381
1772462554004769000,7.70076904296875,-0.02682254047393799,0.0030219325039070096,0.0043948739580810066
1772462554014818300,7.710818359375,-0.02861760719716549,0.0002709624284878373,0.010731018177047372
1772462554024866000,7.720865966796875,-0.04074000666737556,-0.0026670363853219894,0.012624174979887902
1772462554034915300,7.730915283203125,-0.03849719617664814,0.004340275960322469,0.013306019764207302
1772462554044963000,7.740963134765625,-0.030717209824919697,0.003839386366633698,0.00547307938253507
1772462554055011300,7.75101123046875,-0.03221124777495861,-0.0034868557350710033,0.005506598059646785
1772462554065060000,7.76106005859375,-0.04238602030873299,0.004378269883152097,0.0051927646038122475
1772462554075108400,7.7711083984375,-0.02817044795155525,0.0046933911137748505,0.002968549215700477
1772462554085157000,7.7811572265625,-0.029220249265432357,0.006166861199820414,0.008101765652000903
1772462554095205000,7.791205078125,-0.047475452402234074,0.0014628208278678356,0.012294011443760246
1772462554105254100,7.801254150390625,-0.038194413837790486,-0.0020396069356705994,0.004108275569044053
1772462554115302100,7.81130224609375,-0.03969020535349846,-0.00625176300429739,-0.0006525090919807553
1772462554125350100,7.82135009765625,-0.017393617871403692,0.008370371726620942,0.0023471659143455325
1772462554135399200,7.831399169921875,-0.010362988582253456,0.012117750694556161,0.007649437040928751
1772462554145447200,7.841447265625,-0.03221066325306892,0.001565605348907411,0.004209580519050359
1772462554155496200,7.85149609375,-0.04373451230823994,-0.0066386799626518035,-0.003418576271831989
1772462554165544200,7.861544189453125,-0.04507891265451908,-0.0016714220772497356,0.003555281328782439
1772462554175593200,7.87159326171875,-0.020236147820949554,-0.0003151486300863325,-0.005325871197879314
1772462554185641200,7.88164111328125,-0.017989245676994323,0.006244922271557152,0.000589581657294184
1772462554195690200,7.891690185546875,-0.029213235002756115,0.0028042163663078096,0.0032449550042860206
1772462554205738000,7.901738037109375,-0.03534486962556839,0.003534786530025303,0.007554105173982679
1772462554215786200,7.9117861328125,-0.03923720088899135,0.00288657915382646,0.006486238480452448
1772462554225835000,7.9218349609375,-0.023078093248605727,0.00037488859384320674,-0.004491630597133189
1772462554235883300,7.93188330078125,-0.04058920001983642,-0.0070631341861095275,0.003182356363162398
1772462554245932000,7.94193212890625,-0.04044014693796635,0.00030085524325259026,-0.002265570311807096
1772462554255980300,7.951980224609375,-0.04522796573638916,0.010723848650744184,0.005213058473169803
1772462554266029000,7.962029052734375,-0.026674071913957594,0.004886575598316267,0.0026258549915626644
1772462554276077300,7.972077392578125,-0.0172539171397686,-0.0009029675885569304,0.0021356420555151997
1772462554286125000,7.982125,-0.038054713106155394,-0.0018899693319108337,-0.0037194589145481583
1772462554296174300,7.99217431640625,-0.051073184633255005,0.0027806802270933986,0.002870660065487027
1772462554306222000,8.00222216796875,-0.03715513391792774,0.004877031451836228,0.0020443287765607235
1772462554316271000,8.01227099609375,-0.013364508485794067,-0.002477496029436588,-0.00730743693653494
1772462554326319000,8.022319091796875,-0.02009820065498352,0.0000297923500649631,0.002849489413294941
1772462554336368000,8.0323681640625,-0.033416531911492346,0.004269978069933131,0.004495576119888573
1772462554346416000,8.042416015625,-0.04179214606881142,-0.0013465009718202053,0.010445369636081158
1772462554356464000,8.052464111328124,-0.0379021528929472,-0.004868354955036193,0.006212152513116598
1772462554366513200,8.06251318359375,-0.006031681379675865,0.0024039924018085003,0.00042266412517055866
1772462554376561200,8.07256103515625,-0.02518587918281555,0.006840814938629046,-0.0027466500933282074
1772462554386610200,8.082610107421875,-0.053316579645872116,0.010930139212030917,0.007180577420163899
1772462554396658200,8.092658203125,-0.03969955770373344,0.00038913631490431724,0.00018395999846979974
1772462554406707200,8.102707275390625,-0.015906009662151336,-0.004835895723849535,0.00950733986729756
1772462554416755200,8.112755126953125,-0.01695113480091095,-0.004308867041906341,0.012403938091639428
1772462554426803200,8.12280322265625,-0.048373862546682356,-0.004438493904098868,0.005418243922758847
1772462554436852200,8.132852294921875,-0.03999591030180454,-0.004966362836258485,0.00950984235163778
1772462554446900200,8.142900146484376,-0.02937339400053024,0.001352757182670757,0.0036845702642574903
1772462554456949200,8.15294921875,-0.013212532794475554,0.004534328094543889,-0.0009507065872661769
1772462554466997200,8.162997314453126,-0.027277883026003837,0.006328198374528437,-0.00018233429696410894
1772462554477046300,8.17304638671875,-0.04314180711209774,0.003385011928947642,0.003050090019311756
1772462554487094300,8.18309423828125,-0.021897359031438825,0.0015975987892132251,0.00006871785465627908
1772462554497142000,8.19314208984375,-0.0006494038194417953,0.007578554628649726,0.009808149444777517
1772462554507191300,8.20319140625,-0.026237434062361717,0.0027162823545280844,0.013586005749367176
1772462554517239000,8.213239013671876,-0.053473231512308116,-0.0002687522050924599,0.0072965319500304755
1772462554527288300,8.223288330078125,-0.056314592418074606,-0.002723013489414006,0.008227693586610256
1772462554537336000,8.233336181640626,-0.020998948886990547,-0.00269390612593852,-0.0040818259535357355
1772462554547385000,8.243385009765625,-0.01321837801337242,0.005184453433193266,-0.0012194222597405313
1772462554557433000,8.25343310546875,-0.03685995036363601,0.006158897089073434,-0.0019634638263843953
1772462554567481300,8.2634814453125,-0.04239186552762985,0.005425459114834666,0.01077536877542734
1772462554577530000,8.273530029296875,-0.037754853376746174,0.011694310251250862,0.004439023627061397
1772462554587578000,8.283578125,-0.017703998994827268,0.004287504593469202,0.004436594207957387
1772462554597627100,8.293627197265625,-0.021888591203093527,0.0007532021206337958,0.002955653201509267
1772462554607675100,8.303675048828126,-0.045233226433396334,-0.004997516026347876,0.0009455189554952085
1772462554617724200,8.31372412109375,-0.043736265873909,-0.005240485336212441,0.011610139099135995
1772462554627772200,8.323772216796876,-0.016502221989631652,-0.007211146088363602,0.00620413360344246
1772462554637821200,8.3338212890625,-0.011411036330461501,-0.0035818222758360204,0.010175046528410166
1772462554647869200,8.343869140625,-0.02846855411529541,0.002648797475732863,0.009950864117406309
1772462554657917200,8.353917236328124,-0.043431145447492596,0.0011334153435658663,0.004313351420778781
1772462554667966200,8.36396630859375,-0.04462883079946041,0.01225175233776681,-0.001575907547213137
1772462554678014200,8.37401416015625,-0.04716857841014862,0.00728144397875294,-0.0013550678707659244
1772462554688063200,8.384063232421875,-0.04582651615142822,0.0046612424098420886,-0.003445573876611888
1772462554698111000,8.394111083984376,-0.03400456093251705,0.013473540084529667,-0.007606931339763105
1772462554708160300,8.40416015625,-0.039837504869699475,0.012861262538237496,-0.006767685770336538
1772462554718208000,8.4142080078125,-0.017241057658195495,0.007409216810576618,0.000944861368369311
1772462554728256300,8.42425634765625,-0.01679156032502651,-0.0022112828413024545,0.010923051884118467
1772462554738305000,8.434304931640625,-0.02367956627309322,-0.006927534240856766,0.024248963658884168
1772462554748353300,8.444353271484376,-0.03639817807078361,-0.011646342923678457,0.020355189357046038
1772462554758402000,8.454402099609375,-0.032059856605529784,-0.009105928592709823,0.005341543691046536
1772462554768450300,8.4644501953125,-0.03580138122141361,-0.0016593115143477915,0.0026102555636316536
1772462554778499000,8.4744990234375,-0.024581483548879624,0.007729050748934969,0.006433412314672022
1772462554788547300,8.48454736328125,-0.006626724663376808,0.005111077669728547,0.012993538015242665
1772462554798595000,8.494594970703124,-0.037303602477908135,0.006213211959041655,0.00004842398529872298
1772462554808644000,8.50464404296875,-0.056765843316912645,0.005457616951921955,0.0055963769686408335
1772462554818692000,8.514692138671874,-0.046291795575618744,0.010206820773007347,-0.004920085142273455
1772462554828741000,8.5247412109375,-0.02474924133121967,0.005132467517629266,0.002291837264224887
1772462554838788900,8.534788818359376,-0.024897709891200066,0.0020888072391040623,0.011041180104762315
1772462554848838000,8.544837890625,-0.03372515946924686,-0.0042614568367600435,0.004923701871465892
1772462554858886000,8.554885986328125,-0.03971183266341686,-0.002461394278006628,0.01775421307841316
1772462554868935000,8.564934814453125,-0.040462358769774436,0.00715232857321389,0.00915880042426288
1772462554878983000,8.57498291015625,-0.04929448452293873,0.0023397041270975024,0.007268237437307834
1772462554889031000,8.585031005859374,-0.04046703494489193,0.004688724071811885,0.008160802362859248
1772462554899080000,8.595079833984375,-0.023709376889467237,-0.0004213215514551848,0.0033030236007645726
1772462554909128000,8.6051279296875,-0.018173370072245596,-0.0025893406397663053,0.005248166319169104
1772462554919176700,8.6151767578125,-0.028356325912475583,0.006804428450996056,0.007271708036027848
1772462554929225000,8.625224853515626,-0.04316986416280269,-0.004452769024623558,0.004391129364725202
1772462554939273700,8.635273681640625,-0.05110416429340839,-0.010023947619926183,0.01995314789479598
1772462554949322000,8.645322021484375,-0.0497574258595705,-0.004273403002880514,0.010052369996812194
1772462554959370800,8.655370849609374,-0.03599135083556175,0.005124211145937443,0.00507808871557936
1772462554969419000,8.6654189453125,-0.01848433571755886,0.002962439135322347,-0.006285510010272264
1772462554979467000,8.675467041015626,-0.024019758012890816,0.010286005222750827,-0.00744143857974559
1772462554989516000,8.68551611328125,-0.041381811702251435,0.01027465271167457,-0.008580945737380535
1772462554999564000,8.69556396484375,-0.031651860326528544,0.00045777197116985915,0.005567844993900508
1772462555009613000,8.705613037109375,-0.03404489294290542,-0.005624817611835897,0.005478449677396566
1772462555019661000,8.7156611328125,-0.03628653438985348,-0.007063983569480479,0.011537786248978226
1772462555029709800,8.725709716796874,-0.058280339533090586,-0.006586018193652853,0.02646888646436855
1772462555039758000,8.735758056640625,-0.031498715591430665,-0.0076393905709497625,0.012724530081823468
1772462555049806800,8.745806884765624,-0.012344517788290977,-0.007448644638666882,-0.002357321982178837
1772462555059855000,8.755855224609375,-0.02386836684346199,0.002444205681188032,-0.002250537139456719
1772462555069902800,8.76590283203125,-0.045267713224887846,0.011486713648866862,-0.0013916552877984941
1772462555079952100,8.7759521484375,-0.02297638643980026,0.012958457568706944,-0.00645425417330116
1772462555090000000,8.785999755859375,-0.005770400094985962,0.0011092490166891365,0.0029381175448186694
1772462555100049000,8.796048828125,-0.018190905728936193,-0.002485852865828201,0.0059114160008728505
1772462555110097000,8.806096923828125,-0.05679799202084541,-0.003201115862559527,0.012587185704056173
1772462555120146000,8.81614599609375,-0.04677461065649986,-0.00460113711990416,0.006189904148690402
1772462555130194000,8.82619384765625,-0.006818447843194008,-0.0034525424735154953,0.007176211772300303
1772462555140242700,8.83624267578125,-0.0029278701454401013,-0.0051904356494080275,0.003171323512494564
1772462555150291000,8.846291015625,-0.046022330984473225,-0.0006063044632319361,-0.0012608137160539626
1772462555160339000,8.8563388671875,-0.05784194811582565,0.011227441658172755,0.010036642704717814
1772462555170388000,8.866387939453125,-0.028964228677749632,0.008065671425312757,0.006052870298177003
1772462555180436000,8.87643603515625,-0.011610942816734313,0.012008828693674877,-0.0006715060533955693
1772462555190485000,8.886485107421874,-0.0404945074737072,0.0004224083968438208,0.006501198587566614
1772462555200533000,8.896532958984375,-0.0602449176043272,-0.00427358566597104,0.0016025580921210348
1772462555210582000,8.90658203125,-0.03600128770768642,0.001971555801294744,0.001127999382931739
1772462555220630000,8.916630126953125,-0.016395254483819007,0.0005418700580485165,0.005723327816557139
1772462555230677800,8.926677734375,-0.014300328031182289,0.004140698267612606,0.002676105607766658
1772462555240727000,8.93672705078125,-0.027916765451431274,0.0015626462068408728,0.012413838431145996
1772462555250774800,8.94677490234375,-0.04362929836809635,0.011083521409146486,0.002058777427021414
1772462555260824000,8.956823974609375,-0.045127427971363064,-0.00106316311894916,0.006121387223433703
1772462555270871800,8.966871826171875,-0.03181318836808204,-0.0055873442788142704,-0.005043729788251221
1772462555280921000,8.976921142578124,-0.02523205641210079,-0.005600514287641272,-0.004404208042006939
1772462555290968800,8.98696875,-0.02179039152562618,0.004301423520967364,0.005772171926964074
1772462555301016800,8.997016845703126,-0.039595512807369226,0.010697837426653131,0.016600403400789946
1772462555311065900,9.00706591796875,-0.04333645290136337,0.0009171605106908828,0.007915120506100356
1772462555321113900,9.01711376953125,-0.025979659909009932,-0.0030835264980327336,-0.000005936550442129373
1772462555331163000,9.027162841796875,-0.031518589335680004,-0.0030963585801422593,0.001864022039901465
1772462555341211000,9.0372109375,-0.026882161706686017,0.0055411305169109255,0.001356200381927192
1772462555351260000,9.047260009765624,-0.029877251869440076,0.005483335915068164,0.011185228217951954
1772462555361308000,9.057307861328125,-0.026588147196173667,0.009624445174634457,0.0019371420750394462
1772462555371356000,9.06735595703125,-0.025243162328004835,0.006073977018287405,0.00278480841293931
1772462555381405000,9.077405029296875,-0.03212707662284374,0.007717634305777028,-0.0026198271095752715
1772462555391453000,9.087452880859376,-0.052179684570431706,0.00307887772237882,0.006903422712907194
1772462555401502000,9.097501953125,-0.04230418724417686,0.007114654310792684,0.0010611264254897833
1772462555411549700,9.1075498046875,-0.02015606832206249,0.006981310254707932,0.0036689160373993214
1772462555421599000,9.117598876953124,-0.02195288861095905,-0.005015855400636792,0.01572667103987187
1772462555431646700,9.127646728515625,-0.04095803333222866,-0.00015641440441831945,0.01795485021704808
1772462555441696000,9.137696044921874,-0.05816694228649139,0.004240039589395747,0.013173333295248448
1772462555451743700,9.14774365234375,-0.032281390401721,0.0036427312833722677,-0.005590659613907337
1772462555461792000,9.1577919921875,-0.014925181931257248,-0.000784729770058766,-0.0011904153609648346
1772462555471840800,9.1678408203125,-0.026896190232038496,0.009062911434890701,-0.0034587621517479417
1772462555481889000,9.177888916015625,-0.035572248640656466,0.011523072737036273,0.002509352472424507
1772462555491937800,9.187937744140624,-0.038268063595890994,0.0023627653422765432,0.002758358797430992
1772462555501986000,9.197986083984375,-0.02869593313038349,0.0016849665454123169,-0.006955901818815618
1772462555512034800,9.208034912109374,-0.015529577565193175,-0.007679704315029084,-0.0012134491766802966
1772462555522082800,9.218082763671875,-0.04141746753752231,-0.0029806963112205265,0.006117971423640847
1772462555532131000,9.228131103515626,-0.0424637617200613,-0.008026453659776597,0.0002966265927068889
1772462555542179800,9.238179931640625,-0.023159926313161848,-0.00447222264376469,0.0030493593669496475
1772462555552228000,9.24822802734375,-0.032737317475676535,0.0018457009319216011,0.008116287367697804
1772462555562276900,9.25827685546875,-0.04785129997730255,0.0052923981865402306,0.01718978412868455
1772462555572324900,9.268324951171875,-0.06386310810148715,0.007938556180614977,0.008463730832189322
1772462555582374000,9.278373779296874,-0.027802199161052702,0.0044568698110058905,0.0004630509344860911
1772462555592422000,9.288421875,-0.011190087056159972,-0.004066619251249358,-0.0041006585181690754
1772462555602470000,9.298469970703126,-0.02016951232552528,0.008052547082258388,-0.000703618224710226
1772462555612519000,9.308518798828125,-0.04889817868173122,0.004786211363226175,-0.0021193119752220806
1772462555622567000,9.31856689453125,-0.042162148424983024,0.007305592039320618,0.0015443981640972195
1772462555632615700,9.32861572265625,-0.026601006677746772,-0.003988284184876829,0.012145908209960907
1772462555642664000,9.338663818359375,-0.019717092382907867,-0.0033090788822155446,0.012960366398002951
1772462555652712700,9.348712646484374,-0.03243687322437763,-0.005191056703915819,0.007419135416392236
1772462555662761000,9.358760986328125,-0.040671033084392544,-0.0023248262183740735,0.0013539901585318146
1772462555672809700,9.368809814453124,-0.024964345386624336,0.00735674683782272,0.0016465798969380557
1772462555682858000,9.37885791015625,-0.04471884717047214,0.007321410662960261,-0.007942428638134151
1772462555692906000,9.388906005859376,-0.049209144327044485,0.004898622229136527,-0.0008050693051889538
1772462555702955000,9.398955078125,-0.04501812237799167,0.006165025435760617,-0.0007268712361343205
1772462555713003000,9.4090029296875,-0.01329553490281105,0.003652019701525569,-0.0014993169133551418
1772462555723052000,9.419052001953125,-0.007604045262932777,-0.0009642784548923373,-0.003145732413511723
1772462555733100000,9.42910009765625,-0.03783084122240543,0.00086077241464518,0.0000037628596648573873
1772462555743148800,9.439148681640624,-0.056230421265959736,-0.004840297904331237,0.009039868486020713
1772462555753197000,9.449197021484375,-0.015373510220646857,-0.0012114764153026043,0.009597703298181295
1772462555763245800,9.459245849609376,-0.009085808253288268,0.006440910634538158,0.0008768741660751402
