time,seconds_elapsed,z,y,x
1772462546408164000,0.1041640625,-0.0006687529385089874,-0.0005713538266718388,0.0006008388008922338
1772462546418213000,0.114213134765625,-0.0012719593942165375,0.0020638438872992992,-0.000515025807544589
1772462546428261000,0.12426123046875,-0.00003871135413646698,-0.0013405606150627136,-0.0018831407651305199
1772462546438309000,0.13430908203125,-0.001417163759469986,-0.00018181931227445602,-0.0015494467224925756
1772462546448358100,0.144358154296875,-0.0010577812790870667,-0.0015445179305970669,-0.003806851804256439
1772462546458406000,0.154406005859375,0.0002876482903957367,0.00004006316885352135,-0.0029202853329479694
1772462546468455200,0.164455078125,0.00037202145904302597,-0.000015078578144311905,-0.0034155079629272223
1772462546478503000,0.1745029296875,0.0009741624817252159,-0.0006766077131032944,-0.0012700653169304132
1772462546488551200,0.18455126953125,0.0006044651381671429,-0.0003458559513092041,-0.0011458368971943855
1772462546498600000,0.194599853515625,-0.0000794343650341034,-0.0021783774718642235,0.0014278418384492397
1772462546508648200,0.204648193359375,-0.0005061347037553787,0.0017940360121428967,-0.0010463435901328921
1772462546518697000,0.214697021484375,-0.0017985664308071136,-0.002552509307861328,0.0015142858028411865
1772462546528745200,0.2247451171875,0.00019254814833402634,-0.00024912692606449127,0.001550113782286644
1772462546538793000,0.23479296875,-0.0007310360670089722,0.0014414479956030846,-0.0011322221253067255
1772462546548842200,0.24484228515625,0.00025212112814188004,-0.0003353864885866642,0.0015055162366479635
1772462546558890000,0.254889892578125,-0.00019502360373735428,-0.0005790656432509422,0.000441849697381258
1772462546568939000,0.26493896484375,-0.0002088453620672226,-0.004470868967473507,0.00233835750259459
1772462546578987000,0.274987060546875,-0.0007790280506014824,0.0010519945062696934,-0.0015309492591768503
1772462546589035000,0.285034912109375,0.0018688589334487915,0.0007343231700360775,-0.00046446104533970356
1772462546599084000,0.295083984375,-0.001805238425731659,0.00006613600999116898,0.0005526000168174505
1772462546609132000,0.305132080078125,0.001534914132207632,-0.0014810082502663136,-0.00034800858702510595
1772462546619181000,0.31518115234375,0.0031935307197272778,-0.0017286823131144047,-0.0010436262236908078
1772462546629229000,0.32522900390625,0.000983014702796936,0.0012864083983004093,0.000051927752792835236
1772462546639277000,0.335277099609375,-0.00025482289493083954,0.0015737633220851421,0.0010005456861108541
1772462546649326000,0.345326171875,-0.0002417517825961113,-0.00007215235382318497,0.0006183446384966373
1772462546659374000,0.3553740234375,-0.0008729211986064911,-0.0008583175949752331,0.001144052715972066
1772462546669422000,0.365422119140625,0.00007147155702114105,0.001983246300369501,0.0006356379017233849
1772462546679471000,0.37547119140625,0.00042460672557353973,-0.0004807105287909508,0.00042551453225314617
1772462546689519000,0.38551904296875,0.00061400281265378,0.0013826754875481129,0.0006417473778128624
1772462546699568000,0.395568115234375,-0.0006869509816169739,0.0015888041816651821,0.0012297732755541801
1772462546709616000,0.4056162109375,-0.0001247357577085495,-0.0002857954241335392,-0.00164510915055871
1772462546719664000,0.4156640625,-0.00021208729594945908,-0.0001454465091228485,-0.0006157973548397422
1772462546729713200,0.425713134765625,-0.0015278877690434456,0.00004014745354652405,0.0023976913653314114
1772462546739761200,0.43576123046875,0.0008684247732162476,-0.00012869713827967644,-0.00010647904127836227
1772462546749810000,0.445809814453125,0.0003362586721777916,-0.0013171369209885597,-0.001635340740904212
1772462546759858200,0.455858154296875,-0.0002094237133860588,-0.00016638543456792831,0.0012637763284146786
1772462546769906000,0.465906005859375,-0.0017836354672908783,-0.00270655145868659,-0.000959311961196363
1772462546779955200,0.475955078125,-0.00015271548181772232,-0.0002484535798430443,-0.00025171018205583096
1772462546790003000,0.4860029296875,-0.0003576725721359253,-0.0011555836535990238,0.00026464369148015976
1772462546800052200,0.49605224609375,0.0017725899815559387,0.0012476532720029354,0.00027289940044283867
1772462546810100000,0.506099853515625,0.00001740921288728714,-0.0009553534910082817,0.0013773709069937468
1772462546820148000,0.51614794921875,-0.0022518709301948547,0.0030242078937590122,-0.0015041693113744259
1772462546830197000,0.526197021484375,0.0012696855701506138,-0.00004487019032239914,0.00174799095839262
1772462546840245000,0.536244873046875,0.0008614230901002884,-0.002188448328524828,-0.00021901982836425304
1772462546850294000,0.5462939453125,0.00031057652086019516,0.00007763970643281937,-0.003600294701755047
1772462546860342000,0.556342041015625,0.001891428604722023,-0.0015876349061727524,0.0011190930381417274
1772462546870390000,0.56639013671875,0.00018572434782981873,-0.0005566547624766827,-0.002248971024528146
1772462546880439000,0.57643896484375,0.000882407184690237,0.000054274220019578934,-0.0007757102139294147
1772462546890487000,0.586487060546875,0.0003514392301440239,0.0006701056845486164,0.000471894396468997
1772462546900536000,0.5965361328125,0.0009652976877987385,0.0016200547106564045,-0.00024795811623334885
1772462546910584000,0.606583984375,0.0015536812134087086,-0.0006404789164662361,-0.0026762480847537518
1772462546920632000,0.616632080078125,0.000607992522418499,0.0008322489447891712,0.00015762168914079666
1772462546930681000,0.62668115234375,-0.0009734323248267174,-0.0014398470520973206,0.0007353159599006176
1772462546940729000,0.63672900390625,0.00015068799257278442,0.0017575439997017384,0.0006820529233664274
1772462546950777000,0.646777099609375,-0.002295917831361294,-0.0005960040725767612,0.0011997167021036148
1772462546960826000,0.656826171875,0.001179773360490799,0.000440764706581831,0.00112514803186059
1772462546970874000,0.6668740234375,-0.000037153251469135284,0.0011968649923801422,-0.0010833943961188197
1772462546980923000,0.6769228515625,0.002207891084253788,0.0005340045318007469,-0.0015110981184989214
1772462546990971100,0.68697119140625,0.0019237319938838482,-0.0015613706782460213,0.003711360739544034
1772462547001019000,0.697018798828125,-0.0006518112495541573,-0.0009927856735885143,0.00023327232338488102
1772462547011068200,0.707068115234375,0.0008182800374925137,0.00008056499063968658,-0.0006248854333534837
1772462547021116000,0.717115966796875,0.0010297349654138088,-0.00060679716989398,-0.000349248293787241
1772462547031165200,0.727165283203125,-0.001304134726524353,0.00032901065424084663,0.0014014982152730227
1772462547041213000,0.737212890625,0.0000708550214767456,0.0000046370550990104675,-0.00007655611261725426
1772462547051261000,0.747260986328125,-0.0003377879038453102,-0.0017673438414931297,0.002586388261988759
1772462547061310000,0.75731005859375,-0.00008026044815778732,-0.0009918310679495335,0.003582410281524062
1772462547071358000,0.76735791015625,0.0009265569970011711,-0.0012103249318897724,-0.00011558295227587223
1772462547081407000,0.777406982421875,0.0001270761713385582,-0.0009416122920811176,0.0002713743597269058
1772462547091455000,0.787455078125,-0.0004396224394440651,-0.00032818736508488655,0.0004822099581360817
1772462547101503200,0.797503173828125,-0.0003008721396327019,-0.0010871882550418377,-0.0007167451549321413
1772462547111552000,0.807552001953125,0.0005674352869391441,-0.0023959348909556866,-0.0013539360370486975
1772462547121600300,0.817600341796875,-0.000018726103007793427,-0.0006398465484380722,-0.0016423563938587904
1772462547131649000,0.82764892578125,0.00013704318553209305,0.00187740009278059,-0.00026322819758206606
1772462547141697000,0.837697021484375,-0.0008597783744335175,-0.0006102588959038258,-0.001530360197648406
1772462547151745000,0.8477451171875,-0.0012834984809160233,-0.002147617284208536,-0.0002766337711364031
1772462547161794000,0.8577939453125,0.0011125472374260426,-0.001352929975837469,-0.0010614673374220729
1772462547171842000,0.867842041015625,-0.0001627150923013687,-0.00047597941011190414,-0.002258574590086937
1772462547181891000,0.87789111328125,0.0016346522606909275,0.0009565348736941814,-0.0012609544210135937
1772462547191939000,0.88793896484375,-0.000016050413250923157,0.0013577057980000973,0.0001902538351714611
1772462547201987000,0.897987060546875,0.0016116737388074398,0.0010205493308603764,-0.0016670345794409513
1772462547212036000,0.9080361328125,0.0010432153940200806,-0.00016991235315799713,0.000009675277397036552
1772462547222084000,0.918083984375,-0.0014833258464932442,0.00047776801511645317,0.00027705682441592216
1772462547232131800,0.9281318359375,-0.0006187614053487778,0.0010781846940517426,-0.0003700209781527519
1772462547242181000,0.93818115234375,-0.0014121178537607193,-0.0009982814081013203,0.0022758296690881252
1772462547252228900,0.948228759765625,0.00018155667930841446,-0.001773372758179903,-0.0005948459729552269
1772462547262278100,0.958278076171875,0.0005951453931629658,-0.000683607067912817,0.0030709952116012573
1772462547272326000,0.968325927734375,-0.0008513182401657104,0.0004683355800807476,-0.001595999114215374
1772462547282375200,0.978375244140625,-0.0016430756077170372,0.0003247908316552639,0.0003872569650411606
1772462547292423000,0.9884228515625,-0.0011146683245897293,-0.0002705366350710392,-0.0007193402852863073
1772462547302471200,0.99847119140625,0.0011474206112325191,-0.00048492103815078735,-0.0006375812226906419
1772462547312520000,1.00852001953125,0.0011633341200649738,-0.0022627077996730804,-0.004623069893568754
1772462547322568000,1.01856787109375,-0.00045160669833421707,0.0006574485450983047,-0.000117533840239048
1772462547332616200,1.0286162109375,-0.001994907855987549,0.0002764924429357052,-0.0015975090209394693
1772462547342665000,1.0386650390625,-0.0010662628337740898,-0.0009719976224005222,0.0006131811533123255
1772462547352713200,1.048713134765625,-0.0006598504260182381,-0.001323736272752285,-0.0006439394783228636
1772462547362762000,1.058761962890625,-0.0008830232545733452,0.0031066983938217163,0.0017904560081660748
1772462547372810200,1.068810302734375,-0.0016015535220503807,0.0013018157333135605,0.0005270179826766253
1772462547382858000,1.07885791015625,-0.0004313606768846512,-0.001268401276320219,0.0006535181310027838
1772462547392907300,1.0889072265625,0.0015558595769107342,-0.0014168564230203629,-0.0008027732837945223
1772462547402955000,1.098955078125,-0.0011110296472907066,0.00047212326899170876,0.0014965999871492386
1772462547413004000,1.109004150390625,0.0026772888377308846,0.001966666430234909,0.0008114625234156847
1772462547423052000,1.119052001953125,-0.0002465955913066864,-0.0016562980599701405,-0.0007486172253265977
1772462547433100000,1.12910009765625,-0.000737813301384449,-0.00040058279410004616,0.0006537975277751684
1772462547443149000,1.139149169921875,0.0012941788882017136,-0.00017927400767803192,-0.0008279852336272597
1772462547453197000,1.149197021484375,-0.0009320378303527832,-0.0014424328692257404,-0.0007952320156618953
1772462547463246000,1.15924609375,0.0012842449359595776,0.0012516207061707973,0.00016590277664363384
1772462547473294000,1.169294189453125,-0.00022514630109071732,0.0020751003175973892,0.0011213545221835375
1772462547483341800,1.179341796875,-0.0017370227724313736,0.000532863661646843,-0.0013210305478423834
1772462547493391000,1.18939111328125,-0.0005709454417228699,-0.0007842495106160641,0.002061687409877777
1772462547503438800,1.19943896484375,-0.0016093123704195023,0.0008445396088063717,0.00030027260072529316
1772462547513488100,1.209488037109375,-0.0010855281725525856,-0.0010743592865765095,0.002950139809399843
1772462547523536000,1.219535888671875,-0.0006197411566972733,0.0026767030358314514,0.002509386744350195
1772462547533584100,1.229584228515625,-0.000189121812582016,0.000019393395632505417,0.002019939012825489
1772462547543633000,1.2396328125,0.00021035224199295044,0.002562446054071188,0.002568017691373825
1772462547553681200,1.24968115234375,-0.0024328287690877914,-0.0007109642028808594,-0.0013512804871425033
1772462547563730000,1.25972998046875,-0.0009324038401246071,-0.0014835470356047153,0.0005928270984441042
1772462547573778200,1.269778076171875,0.0001186225563287735,0.0011889520101249218,-0.0006448420463129878
1772462547583826200,1.279826171875,0.0011841533705592155,-0.0003650020807981491,-0.0005582893500104547
1772462547593875000,1.289875,-0.0012106755748391151,0.0006503965705633163,-0.0007597433868795633
1772462547603923200,1.299923095703125,0.0002764333039522171,0.0018371008336544037,-0.003629565704613924
1772462547613972000,1.309971923828125,-0.001380251720547676,-0.0015612980350852013,-0.003430187702178955
1772462547624020200,1.320020263671875,-0.0027493825182318687,-0.000828396063297987,0.0011387316044420004
1772462547634068000,1.33006787109375,-0.001958702690899372,0.0023411125876009464,-0.0016948524862527847
1772462547644117000,1.340116943359375,-0.001033521257340908,0.0006934148259460926,-0.0003611415158957243
1772462547654165000,1.3501650390625,0.001468505710363388,-0.0009198188781738281,0.001250087982043624
1772462547664214000,1.360214111328125,-0.0003315247595310211,0.0017840880900621414,-0.0010207893792539835
1772462547674262000,1.370261962890625,-0.0010858764871954918,-0.00018332572653889656,-0.00017838063649833202
1772462547684310000,1.38031005859375,0.0014891340397298336,0.0018545249477028847,0.0016706520691514015
1772462547694359000,1.390359130859375,-0.0010576499626040459,-0.0015577459707856178,-0.00029284285847097635
1772462547704407000,1.400406982421875,-0.000148712657392025,0.0003916877321898937,-0.0008616941049695015
1772462547714456000,1.4104560546875,0.00023305322974920273,0.00014428328722715378,0.0010996898636221886
1772462547724504000,1.420504150390625,-0.0018569957464933395,0.00048596644774079323,0.0024794735945761204
1772462547734552000,1.430552001953125,0.0004374752752482891,-0.00154102873057127,-0.00006991159170866013
1772462547744601000,1.44060107421875,-0.001781204715371132,0.00024355528876185417,-0.0013090805150568485
1772462547754649000,1.450649169921875,-0.00014351774007081985,-0.0013083326630294323,-0.00038187066093087196
1772462547764698000,1.460697998046875,0.00010415632277727127,0.00049622543156147,0.0003600860945880413
1772462547774745900,1.470745849609375,-0.0007549794390797615,0.0012778323143720627,0.0005923591088503599
1772462547784794000,1.480794189453125,0.00017339829355478287,-0.001318217720836401,-0.0006191127467900515
1772462547794843000,1.4908427734375,0.00048574991524219513,-0.000173984095454216,0.001218872843310237
1772462547804891100,1.50089111328125,-0.001675139181315899,0.0000744890421628952,0.0022279443219304085
1772462547814940000,1.51093994140625,0.00019136257469654083,-0.0006423857994377613,0.0005885262507945299
1772462547824988200,1.52098828125,0.0017487788572907448,-0.0016786218620836735,-0.0001758011057972908
1772462547835036200,1.5310361328125,0.00009798724204301834,-0.0024430244229733944,0.0008993363007903099
1772462547845085200,1.541085205078125,0.0005624429322779179,0.0011796732433140278,-0.001271938788704574
1772462547855133200,1.55113330078125,0.003097717184573412,-0.0015333541668951511,-0.00033208460081368685
1772462547865182200,1.56118212890625,0.0005543981678783894,0.0006235395558178425,0.0010495632886886597
1772462547875230000,1.57122998046875,0.0010595466010272503,0.0002444791607558727,-0.00024237274192273617
1772462547885278000,1.58127783203125,0.0003836359828710556,0.0010575419291853905,0.002277776598930359
1772462547895327000,1.591326904296875,0.00015884172171354294,-0.0003447486087679863,0.0001282012090086937
1772462547905375000,1.601375,0.0007511284202337265,0.00028482265770435333,0.00016149086877703667
1772462547915424000,1.611424072265625,0.0005159960128366947,0.000805070623755455,-0.0005117852706462145
1772462547925472000,1.621471923828125,0.0005234531126916409,-0.0005398252978920937,0.0008954291697591543
1772462547935520000,1.63152001953125,-0.00007796939462423325,0.0010813260450959206,0.002652166411280632
1772462547945569000,1.641569091796875,0.0007934169843792915,-0.0016180542297661304,0.00003800727427005768
1772462547955617000,1.651616943359375,0.00037470506504178047,0.002556514460593462,-0.00041524902917444706
1772462547965666000,1.661666015625,-0.0007379632443189621,-0.001168182585388422,0.0012476288247853518
1772462547975714000,1.671714111328125,-0.0017917677760124207,0.0009391792118549347,0.0009683414828032255
1772462547985762000,1.681761962890625,-0.0005390169098973274,-0.00043767550960183144,0.00028257747180759907
1772462547995811000,1.69181103515625,-0.00043083541095256805,0.001581092830747366,-0.002433362416923046
1772462548005859000,1.701859130859375,0.0007457486353814602,-0.0008256062865257263,-0.0002746041864156723
1772462548015908000,1.711908203125,0.0011382256634533405,-0.002415744122117758,0.0012377169914543629
1772462548025956000,1.7219560546875,0.0030700829811394215,-0.00008068466559052467,0.0019754127133637667
1772462548036004000,1.732004150390625,-0.00023259222507476807,-0.00020804442465305328,0.0011110969353467226
1772462548046052900,1.742052978515625,-0.0008275415748357773,0.0014130212366580963,0.0006106889341026545
1772462548056101000,1.75210107421875,0.00012059230357408524,-0.000738432165235281,0.0014251102693378925
1772462548066150000,1.76214990234375,0.0005972981452941895,0.0008333651348948479,0.0022328472696244717
1772462548076198100,1.7721982421875,-0.0020181015133857727,-0.00024654436856508255,-0.004750411491841078
1772462548086246000,1.782245849609375,0.0006589079275727272,0.0024922508746385574,-0.0013823115732520819
1772462548096295200,1.792295166015625,0.0010228157043457031,0.0021505244076251984,0.001663972157984972
1772462548106343000,1.802343017578125,-0.0009780172258615494,0.00013744132593274117,0.0003062926698476076
1772462548116392200,1.81239208984375,-0.00000982731580734253,0.002373610157519579,-0.0011635759146884084
1772462548126440000,1.82243994140625,-0.0016822926700115204,-0.0016365782357752323,-0.0003507791552692652
1772462548136488000,1.832488037109375,0.0008218954317271709,-0.0011324696242809296,0.0010661398991942406
1772462548146537000,1.842536865234375,0.0018187165260314941,-0.001245387364178896,-0.0005826230626553297
1772462548156585000,1.8525849609375,0.0011777561157941818,0.0012003909796476364,-0.00040013680700212717
1772462548166634000,1.862634033203125,0.002141553908586502,-0.0001266617327928543,0.0004171873442828655
1772462548176682000,1.872681884765625,0.0009306143037974834,-0.0012080562300980091,-0.002208480378612876
1772462548186730200,1.882730224609375,-0.0006712768226861954,-0.0005015195347368717,-0.0010409504175186157
1772462548196779000,1.892779052734375,-0.0008804546669125557,-0.001935293897986412,-0.0009901321027427912
1772462548206827300,1.9028271484375,0.00016856472939252853,0.0010905894450843334,-0.002429304411634803
1772462548216876000,1.9128759765625,-0.0007507242262363434,-0.003087867982685566,0.0019467216916382313
1772462548226924000,1.922924072265625,0.0009315945208072662,-0.0007717167027294636,-0.0005816833581775427
1772462548236972000,1.932971923828125,0.0008501340635120869,-0.00261138379573822,0.0021974139381200075
1772462548247021000,1.94302099609375,0.0010213754139840603,-0.0001175994984805584,0.0014549244660884142
1772462548257069000,1.953069091796875,-0.003066679462790489,-0.0015514837577939034,0.000783075112849474
1772462548267118000,1.9631181640625,0.0006561535410583019,0.00005813082680106163,0.00028799334540963173
1772462548277166000,1.973166015625,0.0001356564462184906,0.0003170962445437908,0.0005424506962299347
1772462548287214000,1.983214111328125,-0.00077088363468647,0.0005306820385158062,-0.0009816763922572136
1772462548297263000,1.99326318359375,0.000017333775758743286,0.0016142213717103004,-0.001460980623960495
1772462548307311000,2.00331103515625,0.00031640660017728806,-0.004236743785440922,-0.00161863979883492
1772462548317360000,2.013360107421875,-0.000952654518187046,0.0003475579433143139,0.0005652476102113724
1772462548327408000,2.023408203125,0.0004287273623049259,-0.001431433018296957,0.00026404415257275105
1772462548337455900,2.033455810546875,-0.000372324138879776,0.0010712812654674053,-0.0023651488590985537
1772462548347505200,2.043505126953125,0.000470566563308239,-0.00009864522144198418,-0.001411204575560987
1772462548357553000,2.053552978515625,0.0003055613487958908,0.0010641664266586304,-0.00017083785496652126
1772462548367602200,2.063602294921875,0.0008986471220850945,0.0012937309220433235,0.0012744597624987364
1772462548377650000,2.07364990234375,-0.0014162585139274597,0.0011044908314943314,-0.0005939702969044447
1772462548387698000,2.083697998046875,0.000763272400945425,-0.0004715677350759506,0.0005610426887869835
1772462548397747000,2.093746826171875,0.0008915355429053307,0.002538787666708231,-0.000485179596580565
1772462548407795000,2.103794921875,-0.00042593013495206833,-0.0004527410492300987,-0.0009427106706425548
1772462548417844000,2.113843994140625,-0.0012876298278570175,-0.0016239373944699764,-0.0006333449855446815
1772462548427892000,2.12389208984375,-0.00037656258791685104,0.0009843623265624046,0.0008819936774671078
1772462548437940200,2.133940185546875,-0.0017144456505775452,-0.0015454026870429516,-0.00013766787014901638
1772462548447989000,2.143989013671875,0.0010949228890240192,-0.0021257055923342705,-0.00020238268189132214
1772462548458037200,2.154037353515625,0.0016823932528495789,-0.0012220749631524086,-0.002508640754967928
1772462548468086000,2.1640859375,0.000008597038686275482,-0.0005024885758757591,-0.00044469081331044436
1772462548478134300,2.17413427734375,0.0004963385872542858,0.00046573858708143234,0.0014225617051124573
1772462548488182000,2.18418212890625,-0.0009058155119419098,-0.0018237815238535404,0.0017325535882264376
1772462548498231000,2.19423095703125,0.0008284347131848335,0.0012420499697327614,0.0016499958001077175
1772462548508279000,2.204279052734375,-0.00025820452719926834,-0.0016111023724079132,-0.00010664551518857479
1772462548518328000,2.214328125,-0.0003787372261285782,0.0003947801887989044,0.002332828240469098
1772462548528376000,2.2243759765625,0.0014593768864870071,-0.0004790034145116806,0.0015128408558666706
1772462548538424000,2.234424072265625,0.0019825324416160583,-0.0023354506120085716,0.0015522562898695469
1772462548548473000,2.24447314453125,-0.0014404281973838806,0.0005527478642761707,0.001281945500522852
1772462548558521000,2.25452099609375,0.001043467316776514,-0.002032554242759943,-0.00011892546899616718
1772462548568570000,2.264570068359375,0.001852802000939846,0.0008162287995219231,0.0012062634341418743
1772462548578618000,2.2746181640625,0.0006956290453672409,-0.0019291839562356472,0.00023629795759916306
1772462548588667100,2.284667236328125,0.0002322392538189888,0.0010114791803061962,0.0002440209500491619
1772462548598715100,2.294715087890625,-0.0013700062409043312,-0.0023364322260022163,0.001461125211790204
1772462548608763000,2.304762939453125,-0.0009028883650898933,0.000978137832134962,0.0014355590101331472
1772462548618812200,2.314812255859375,-0.0013882871717214584,0.00009140279144048691,0.000855880556628108
1772462548628860000,2.32485986328125,-0.0016375593841075897,0.0012269746512174606,-0.002071998780593276
1772462548638909200,2.3349091796875,-0.0018003582954406738,-0.0003112093545496464,-0.0021724379621446133
1772462548648957000,2.34495703125,-0.0008645234629511833,-0.0002555493265390396,-0.004371410235762596
1772462548659005200,2.355005126953125,-0.00013868696987628937,0.0010917498730123043,-0.002475414192304015
1772462548669054000,2.365053955078125,-0.0008710566908121109,0.002492306288331747,0.0006865567993372679
1772462548679102000,2.37510205078125,-0.0005900533869862556,0.0004994380287826061,0.0011792450677603483
1772462548689151000,2.38515087890625,-0.0034473584964871407,-0.002436697017401457,-0.00043969054240733385
1772462548699199000,2.395198974609375,-0.0005081696435809135,0.0005912850610911846,-0.0006539188325405121
1772462548709247200,2.405247314453125,-0.0001939171925187111,0.002416349481791258,0.0026049914304167032
1772462548719296000,2.4152958984375,-0.0007363371551036835,0.001818870659917593,0.0015247215051203966
1772462548729344300,2.42534423828125,-0.0013142423704266548,-0.0010988889262080193,-0.0009355067741125822
1772462548739393000,2.43539306640625,0.0008017909713089466,-0.0005056867375969887,-0.0021895822137594223
1772462548749441000,2.44544091796875,-0.0010240720584988594,0.0012099212035536766,0.0014269906096160412
1772462548759489000,2.455489013671875,0.0008284375071525574,-0.0025153011083602905,-0.001292492263019085
1772462548769538000,2.4655380859375,0.0013900981284677982,0.0010485411621630192,-0.0011992816580459476
1772462548779586000,2.4755859375,-0.0008756760507822037,-0.0025332458317279816,-0.00268270680680871
1772462548789634800,2.485634765625,-0.002069837413728237,-0.0009625134989619255,0.0020984660368412733
1772462548799683000,2.49568310546875,0.0008899089880287647,-0.001417805440723896,0.0013535781763494015
1772462548809731000,2.50573095703125,0.00005074683576822281,-0.0006513479165732861,0.001470757182687521
1772462548819780000,2.515780029296875,-0.0002760784700512886,0.0012061744928359985,-0.0027121284510940313
1772462548829828000,2.525828125,0.00029650144279003143,0.0011329380795359612,0.0006383946165442467
1772462548839876900,2.535876953125,-0.00018258485943078995,-0.0008251289837062359,-0.00008016359061002731
1772462548849924900,2.5459248046875,-0.0005711400881409645,-0.0033876225352287292,0.00031824526377022266
1772462548859972900,2.555972900390625,-0.0018556760624051094,0.000661016907542944,-0.00018698954954743385
1772462548870022000,2.56602197265625,-0.0031797997653484344,-0.0004532495513558388,0.001151515170931816
1772462548880070000,2.57606982421875,-0.00032019708305597305,0.002466063480824232,0.0010318753775209188
1772462548890119000,2.586118896484375,0.00009978283196687698,0.00026123179122805595,-0.00046482100151479244
1772462548900167000,2.5961669921875,-0.0007016770541667938,-0.0009835576638579369,-0.0017779276240617037
1772462548910215000,2.60621484375,-0.0017520273104310036,-0.000616573728621006,-0.00041012815199792385
1772462548920264000,2.616263916015625,-0.002069772221148014,-0.0018428354524075985,-0.0014713730197399855
1772462548930312000,2.62631201171875,-0.000997849740087986,0.00008529284968972206,-0.0017478091176599264
1772462548940361000,2.63636083984375,-0.0006501581519842148,-0.0006314604543149471,-0.00036610569804906845
1772462548950409000,2.646408935546875,-0.0015748078003525734,0.0013198372907936573,0.00023949705064296722
1772462548960458000,2.6564580078125,0.00022793002426624298,0.0015296125784516335,0.0005283758509904146
1772462548970506000,2.666506103515625,-0.0011065807193517685,0.000920281745493412,0.0011904377024620771
1772462548980554000,2.676553955078125,0.0005376324988901615,-0.0012354194186627865,-0.0005318383919075131
1772462548990603000,2.68660302734375,-0.0006826277822256088,0.0023353472352027893,-0.00044315517880022526
1772462549000651000,2.696651123046875,-0.002027004025876522,-0.0012050829827785492,-0.00012872647494077682
1772462549010700000,2.706699951171875,-0.0007303114980459213,-0.002090850379317999,-0.0024374208878725767
1772462549020747800,2.716747802734375,-0.001448136754333973,-0.0009272308088839054,-0.000446255668066442
1772462549030795800,2.726795654296875,0.0002618785947561264,0.0021034469828009605,-0.0008915362413972616
1772462549040844800,2.7368447265625,0.002668187487870455,-0.0001150909811258316,-0.0018258087802678347
1772462549050892800,2.746892822265625,-0.0013694316148757935,0.00040662242099642754,0.0012336305808275938
1772462549060941800,2.75694189453125,-0.0009543607011437416,0.002077619545161724,-0.0006673283642157912
1772462549070989800,2.76698974609375,0.0009892135858535767,-0.002470793202519417,-0.0004984840052202344
1772462549081038000,2.7770380859375,-0.0008186502382159233,-0.0010347147472202778,-0.000608862261287868
1772462549091086800,2.7870869140625,-0.0006447462365031242,0.0003671729937195778,0.0003735779318958521
1772462549101135000,2.797135009765625,0.000024672597646713257,0.0015029837377369404,-0.0002211444079875946
1772462549111184000,2.807183837890625,0.0015173740684986115,0.0014987229369580746,0.0010004476644098759
1772462549121232100,2.817232177734375,0.00038111070170998573,-0.0030269776470959187,-0.0007793320110067725
1772462549131280000,2.82727978515625,0.001044770237058401,0.001299327239394188,-0.0014067727606743574
1772462549141329000,2.837328857421875,0.00009752623736858368,0.0011394568718969822,-0.000735963461920619
1772462549151377000,2.847376953125,0.000008842907845973969,0.0008102902211248875,-0.001417200081050396
1772462549161426000,2.857426025390625,0.001547104213386774,-0.0020531192421913147,0.0003624602686613798
1772462549171474000,2.867473876953125,0.002624885644763708,0.001185550820082426,0.0009321102406829596
1772462549181523000,2.87752294921875,-0.0037512928247451782,0.0008913087658584118,-0.0026277974247932434
1772462549191571000,2.887571044921875,-0.001964312046766281,0.003055926878005266,-0.0012346977600827813
1772462549201619000,2.897618896484375,-0.000983252190053463,-0.0002263067290186882,0.00003609294071793556
1772462549211668000,2.90766796875,0.0005600498989224434,-0.0009895684197545052,0.0007868381217122078
1772462549221716000,2.917716064453125,-0.0008148960769176483,0.0016983416862785816,-0.00034684990532696247
1772462549231765000,2.927764892578125,0.0015049837529659271,-0.0009744069539010525,0.0005317269824445248
1772462549241813000,2.93781298828125,0.0004946384578943253,0.002251418773084879,0.002646423177793622
1772462549251860700,2.94786083984375,0.001380139496177435,0.0007800222374498844,0.00045597320422530174
1772462549261910000,2.957909912109375,-0.0015941374003887177,0.002485746517777443,0.0005017323419451714
1772462549271957800,2.967957763671875,-0.00015949271619319916,0.00006466684862971306,-0.00041199836414307356
1772462549282007000,2.978007080078125,0.0010852767154574394,0.00047786999493837357,0.00019917916506528854
1772462549292054800,2.9880546875,-0.0015137018635869026,-0.00037567317485809326,0.0015938766300678253
1772462549302102800,2.998102783203125,-0.0005586259067058563,-0.0009455797262489796,-0.002039737533777952
1772462549312151800,3.00815185546875,0.0007156962528824806,0.0003556408919394016,-0.003131100907921791
1772462549322199800,3.01819970703125,-0.0003422638401389122,-0.0023036235943436623,-0.00026805815286934376
1772462549332248800,3.028248779296875,-0.0028112800791859627,-0.00014699576422572136,-0.0007801840547472239
1772462549342296800,3.038296875,-0.0004392014816403389,0.0013127606362104416,0.0006153017748147249
1772462549352345000,3.048344970703125,-0.0008951351046562195,-0.0023887669667601585,0.002239829860627651
1772462549362393900,3.058393798828125,-0.0008640317246317863,0.00032364390790462494,0.0008064492139965296
1772462549372442000,3.068442138671875,0.0017288215458393097,0.0009236540645360947,-0.00047692819498479366
1772462549382491000,3.078490966796875,0.000788581557571888,0.0016583027318120003,-0.00033902120776474476
1772462549392539100,3.0885390625,-0.0018335673958063126,-0.0004083104431629181,0.0006487453356385231
1772462549402588000,3.098587890625,-0.000905575230717659,-0.00051837507635355,-0.0003750418545678258
1772462549412636000,3.108635986328125,-0.0005780067294836044,-0.0003428724594414234,0.0023158162366598845
1772462549422684000,3.118683837890625,0.0006511202082037926,-0.0005569835193455219,0.000033735064789652824
1772462549432733000,3.12873291015625,-0.001602446660399437,0.001046239398419857,-0.0013005086220800877
1772462549442781000,3.138781005859375,-0.0016099009662866592,-0.001356697641313076,-0.000519365887157619
1772462549452830000,3.148829833984375,-0.0016341358423233032,0.0009490675292909145,-0.0008815558394417167
1772462549462878000,3.1588779296875,0.0006610918790102005,-0.002137203235179186,0.0025332977529615164
1772462549472926000,3.168926025390625,0.0009790733456611633,0.000027680303901433945,0.00003445381298661232
1772462549482975000,3.17897509765625,0.000014637596905231476,-0.0030101509764790535,-0.0005564893363043666
1772462549493023000,3.18902294921875,-0.0010045543313026428,-0.0011185077019035816,-0.0008430455345660448
1772462549503072000,3.199072021484375,-0.0007560299709439278,0.0003291182219982147,0.001773493830114603
1772462549513120000,3.2091201171875,0.0014522634446620941,0.00009822240099310875,0.0010754794348031282
1772462549523167700,3.219167724609375,0.00046386243775486946,-0.0006415373645722866,-0.0006169906118884683
1772462549533217000,3.229217041015625,-0.0017271200194954872,-0.00016323337331414223,0.00009886710904538631
1772462549543264800,3.2392646484375,0.0010189344175159931,0.0005008010193705559,0.0022826942149549723
1772462549553314000,3.24931396484375,0.0009235935285687447,-0.000599350780248642,-0.0015397409442812204
1772462549563361800,3.25936181640625,0.0008010496385395527,0.00028073135763406754,0.00026470376178622246
1772462549573411000,3.2694111328125,0.00005110353231430054,0.00032973336055874825,-0.0001835061702877283
1772462549583458800,3.279458740234375,-0.0006283530965447426,0.002919974736869335,-0.0001924256794154644
1772462549593506800,3.2895068359375,-0.0018507437780499458,-0.0006353454664349556,-0.001035848748870194
1772462549603555800,3.299555908203125,0.00011602230370044708,0.0013724942691624165,-0.00040332379285246134
1772462549613603800,3.309603759765625,0.0021328339353203773,0.0003253393806517124,0.0002946907188743353
1772462549623652900,3.31965283203125,0.0019214171916246414,0.000057359226047992706,0.0017501302063465118
1772462549633700900,3.329700927734375,-0.00048421602696180344,-0.00011361576616764069,0.0009280124213546515
1772462549643750000,3.33975,-0.0008670445531606674,-0.002753217238932848,0.0008441570680588484
1772462549653798000,3.3497978515625,-0.0013416195288300514,-0.0007838099263608456,0.0015879780985414982
1772462549663846000,3.359845947265625,0.0004452918656170368,-0.0010008122771978378,-0.0002388637512922287
1772462549673895000,3.36989501953125,-0.0012577995657920837,0.0008894992060959339,0.0004988317377865314
1772462549683943000,3.37994287109375,-0.0005801022052764893,-0.0017786463722586632,0.0015384946018457413
1772462549693992000,3.389991943359375,-0.0015087462961673737,0.002298919949680567,0.002023456385359168
1772462549704040000,3.4000400390625,0.0010903049260377884,0.0009299842640757561,0.00031223054975271225
1772462549714088000,3.410087890625,-0.0005456749349832535,-0.0021387762390077114,0.0011750946287065744
1772462549724136700,3.42013671875,0.0012232540175318718,-0.001399423461407423,0.000783777330070734
1772462549734185000,3.43018505859375,0.0015968955121934414,0.001266400795429945,-0.001682842499576509
1772462549744233700,3.440233642578125,0.0016515390016138554,0.0013750623911619186,-0.0003295382484793663
1772462549754282000,3.450281982421875,0.0009378120303153992,-0.000989824067801237,0.00007313163951039314
1772462549764330000,3.460330078125,-0.00017405860126018524,0.0003982395865023136,0.004507600329816341
1772462549774379000,3.47037890625,-0.0019676974043250084,-0.00009497767314314842,-0.0032113054767251015
1772462549784427000,3.480427001953125,0.0016895812004804611,-0.00030283210799098015,0.00004876474849879742
1772462549794476000,3.49047607421875,0.0007396317087113857,-0.0005318638868629932,0.0009835341479629278
1772462549804524000,3.50052392578125,-0.0003663599491119385,0.000599356833845377,0.0029812210705131292
1772462549814571800,3.51057177734375,0.00048744911327958107,0.000882450956851244,-0.0012366935843601823
1772462549824621000,3.52062109375,0.0007818257436156273,-0.0015405714511871338,0.0006478645373135805
1772462549834669600,3.530669677734375,-0.001031520776450634,-0.0008313716389238834,0.001732570119202137
1772462549844718300,3.54071826171875,0.0006030211225152016,-0.000944260973483324,0.0006332225166261196
1772462549854766600,3.5507666015625,-0.0017717191949486732,0.0010310057550668716,0.000639880308881402
1772462549864815400,3.5608154296875,0.00040646176785230637,0.0004030992276966572,0.0003120389301329851
1772462549874863600,3.570863525390625,0.0009018098935484886,0.0009181550703942776,0.0005328147672116756
1772462549884911600,3.58091162109375,-0.000986183062195778,-0.0019954033195972443,-0.00023842230439186096
1772462549894960600,3.590960693359375,-0.00021812692284584045,-0.0027341642417013645,0.00013974658213555813
1772462549905008600,3.601008544921875,0.0001849047839641571,-0.0002919323742389679,-0.002009930554777384
1772462549915057700,3.6110576171875,-0.0008164439350366592,-0.0020520156249403954,0.003233034396544099
1772462549925105700,3.621105712890625,0.00187744852155447,0.0011904044076800346,0.002207414945587516
1772462549935153400,3.6311533203125,0.0000979248434305191,-0.0011483835987746716,0.002451626816764474
1772462549945202700,3.64120263671875,-0.0018788333982229233,0.0006684223189949989,-0.0002527174074202776
1772462549955250400,3.65125048828125,0.0002772621810436249,-0.00167169701308012,0.0009457049891352654
1772462549965299700,3.6612998046875,0.0009665349498391151,0.00043263984844088554,0.0007927981205284595
1772462549975347500,3.671347412109375,0.00027650967240333557,-0.0009221103973686695,-0.0037921001203358173
1772462549985395500,3.6813955078125,-0.0003124801442027092,0.0012332317419350147,-0.0009113629348576069
1772462549995444500,3.691444580078125,0.0002973834052681923,0.00031710369512438774,0.0000063623301684856415
1772462550005492500,3.701492431640625,0.0019924663938581944,-0.001595865935087204,0.00043878844007849693
1772462550015541500,3.71154150390625,0.0015969867818057537,-0.000272274948656559,0.0003418494015932083
1772462550025589500,3.721589599609375,-0.001160062849521637,0.0005419063381850719,-0.0008918646490201354
1772462550035638500,3.731638427734375,0.0010146750137209892,-0.0002895323559641838,-0.0012708324939012527
1772462550045686500,3.7416865234375,-0.0016449382528662682,-0.0009715412743389606,-0.0033137996215373278
1772462550055734500,3.751734619140625,-0.00043506454676389694,-0.001155299600213766,-0.00029270967934280634
1772462550065783600,3.761783447265625,0.00005174707621335983,-0.0007636789232492447,0.00019434653222560883
1772462550075831600,3.77183154296875,0.00036147236824035645,-0.00023051397874951363,0.0013349782675504684
1772462550085880600,3.781880615234375,0.0008006743155419827,0.00009216880425810814,-0.0010852226987481117
1772462550095928300,3.79192822265625,-0.001986323855817318,-0.0015704426914453506,0.0022261517588049173
1772462550105977600,3.8019775390625,-0.00028536561876535416,-0.0010818191803991795,-0.002421707846224308
1772462550116025300,3.812025390625,-0.00036259740591049194,0.00048012426123023033,-0.00015881983563303947
1772462550126073600,3.822073486328125,-0.0016108257696032524,-0.0008969786576926708,-0.0005215017590671778
1772462550136122400,3.832122314453125,0.002292037010192871,0.0013800240121781826,-0.00017555709928274155
1772462550146170600,3.842170654296875,-0.0008176201954483986,0.001750862691551447,-0.0005657679866999388
1772462550156219400,3.852219482421875,0.0003991788253188133,0.0006813365034759045,-0.001006521051749587
1772462550166267600,3.862267578125,-0.0007426738739013672,0.0008729440160095692,-0.0003007174236699939
1772462550176315600,3.872315673828125,0.00038277730345726013,-0.0009257551282644272,-0.0016629243036732078
1772462550186364700,3.88236474609375,-0.001033145934343338,-0.00016045570373535156,-0.0014558524126186967
1772462550196412700,3.89241259765625,-0.0013977326452732086,-0.0005609951913356781,-0.001558384159579873
1772462550206461400,3.90246142578125,-0.0007340190932154655,0.0006479271687567234,-0.001887246617116034
1772462550216509700,3.912509765625,-0.0008573234081268311,0.00036243582144379616,-0.003281943965703249
1772462550226558500,3.922558349609375,0.0017141327261924744,-0.000006549526005983353,0.0006940655875951052
1772462550236606700,3.932606689453125,-0.0007913690060377121,-0.00022253161296248436,0.0011441397946327925
1772462550246654500,3.942654541015625,0.0014935401268303394,0.0013281400315463543,0.0029504899866878986
1772462550256703500,3.952703369140625,-0.0015730904415249825,0.00022585783153772354,0.0008010526653379202
1772462550266751500,3.96275146484375,0.0010675867088139057,-0.000022324733436107635,-0.0005080467090010643
1772462550276800500,3.972800537109375,0.003097980748862028,-0.0016548424027860165,0.000490106176584959
1772462550286848500,3.9828486328125,-0.0006473949179053307,-0.0010784589685499668,-0.0006323248380795121
1772462550296896500,3.992896484375,0.0011931154876947403,0.0002097119577229023,-0.00011593778617680073
1772462550306945500,4.002945556640625,0.000034127384424209595,0.0008582351729273796,0.0008390529546886683
1772462550316993500,4.01299365234375,0.0019287001341581345,-0.0009487192146480083,0.0006140158511698246
1772462550327042600,4.02304248046875,-0.0009195702150464058,-0.0011379141360521317,-0.0010782763129100204
1772462550337090600,4.033090576171875,-0.0009552566334605217,0.0012586647644639015,0.0026871669106185436
1772462550347138600,4.043138671875,0.0011525093577802181,0.003000012133270502,-0.0002949570771306753
1772462550357187600,4.0531875,-0.0005295434966683388,-0.0007105707190930843,0.0028971079736948013
1772462550367235600,4.063235595703125,0.0010339580476284027,-0.0009691249579191208,-0.0024052863009274006
1772462550377284600,4.07328466796875,0.000023554079234600067,0.0005914871580898762,0.002473624888807535
1772462550387332400,4.083332275390625,0.002155343070626259,0.00020789122208952904,-0.0004510112339630723
1772462550397381600,4.093381591796875,-0.0003144722431898117,0.0010949899442493916,0.0034995218738913536
1772462550407429400,4.103429443359375,0.00041963718831539154,0.00293540395796299,0.00214917934499681
1772462550417477600,4.1134775390625,0.0016002161428332329,0.0029159635305404663,0.005295704118907452
1772462550427526400,4.1235263671875,-0.0013095084577798843,-0.0026104068383574486,0.003172081196680665
1772462550437574700,4.13357470703125,0.0005786726251244545,0.0019300165586173534,0.0006673780735582113
1772462550447623400,4.14362353515625,0.0011563962325453758,-0.000905193854123354,0.00012556463479995728
1772462550457671700,4.153671630859375,-0.003007989376783371,0.0013409163802862167,0.0014283829368650913
1772462550467719700,4.1637197265625,-0.000905187800526619,-0.00016840826719999313,0.0006175676826387644
1772462550477768700,4.173768798828125,0.00003437511622905731,-0.0016238256357610226,0.0005360750947147608
1772462550487816400,4.18381640625,-0.0004558973014354706,0.001705157570540905,0.00019036279991269112
1772462550497865500,4.193865478515625,0.0005529080517590046,0.0006137937307357788,0.0012915797997266054
1772462550507913500,4.20391357421875,-0.0024487273767590523,0.0015077181160449982,0.0024434176739305258
1772462550517962500,4.21396240234375,-0.0023046499118208885,-0.0023296307772397995,-0.001413638354279101
1772462550528010500,4.224010498046875,0.0012324475683271885,0.0001910231076180935,0.0030286144465208054
1772462550538058500,4.23405859375,-0.0005563972517848015,0.0022453851997852325,0.0007966191042214632
1772462550548107500,4.244107421875,-0.0002447189763188362,0.00013001402840018272,0.0017817751504480839
1772462550558155500,4.254155517578125,-0.0011251606047153473,-0.0009261956438422203,-0.0004829767858609557
1772462550568204500,4.26420458984375,0.0031090653501451015,-0.0010815486311912537,0.0006493052933365107
1772462550578252500,4.27425244140625,-0.0011021913960576057,-0.0001084296964108944,-0.000640463549643755
1772462550588301600,4.284301513671875,0.0006186002865433693,0.00038397684693336487,0.0005986792966723442
1772462550598349600,4.294349609375,-0.0009697088971734047,-0.0023921020328998566,0.001624795375391841
1772462550608397600,4.3043974609375,-0.0011034980416297913,-0.0005784826353192329,-0.00032660807482898235
1772462550618446600,4.314446533203125,-0.00026859622448682785,-0.001038676593452692,-0.00061689259018749
1772462550628494600,4.32449462890625,-0.0005462700501084328,0.0006812927313148975,0.000025090528652071953
1772462550638543600,4.334543701171875,-0.002402227371931076,0.0013366970233619213,-0.0003560077166184783
1772462550648591600,4.344591552734375,-0.002002401277422905,0.0013065082021057606,-0.0009279982186853886
1772462550658639400,4.354639404296875,-0.0009176963940262794,-0.0002317335456609726,-0.0013554355828091502
1772462550668688600,4.364688720703125,-0.0014299144968390465,-0.00023873336613178253,-0.002582438290119171
1772462550678736400,4.374736328125,-0.0007119262591004372,-0.0036177521105855703,-0.00030010915361344814
1772462550688785700,4.38478564453125,-0.001295158639550209,0.0007114093750715256,0.0015912880189716816
1772462550698833400,4.39483349609375,-0.0007726456969976425,-0.0018276488408446312,-0.00020954152569174767
1772462550708882700,4.404882568359375,0.0012421687133610249,-0.002308061346411705,-0.0007438058964908123
1772462550718930400,4.414930419921875,-0.0001828884705901146,0.0009905300103127956,0.0014921841211616993
1772462550728978700,4.424978759765625,-0.0003432324156165123,-0.0016192863695323467,0.000009242212399840355
1772462550739027500,4.43502734375,0.0001422623172402382,0.0015083299949765205,-0.00023550237528979778
1772462550749075700,4.44507568359375,0.0008459212258458138,-0.0026848516426980495,-0.0008440234232693911
1772462550759124500,4.45512451171875,-0.0020867520943284035,0.00026273494586348534,-0.002607834991067648
1772462550769172500,4.46517236328125,0.001205394510179758,0.0010365364141762257,-0.0012326834257692099
1772462550779220500,4.475220458984375,0.0007854136638343334,0.0006618290208280087,0.0010144920088350773
1772462550789269500,4.48526953125,-0.000635240226984024,0.00007461430504918098,-0.00008350517600774765
1772462550799317500,4.4953173828125,0.0008678478188812733,-0.00018903892487287521,0.0025349147617816925
1772462550809366500,4.505366455078125,0.00032935570925474167,0.0007408112287521362,0.000932315131649375
1772462550819414500,4.51541455078125,-0.002884812653064728,0.002082511782646179,0.0014084884896874428
1772462550829463600,4.525463623046875,0.0000634538009762764,0.0014795660972595215,0.0006043107714504004
1772462550839511000,4.535510986328125,-0.001677987165749073,-0.0025284914299845695,-0.0019888090901076794
1772462550849559000,4.54555908203125,-0.0001473287120461464,-0.00038606999441981316,0.001878427341580391
1772462550859607800,4.55560791015625,-0.00022083241492509842,0.002085077576339245,-0.00010829092934727669
1772462550869656000,4.565656005859375,0.000592437107115984,0.0004847738891839981,-0.0005368078127503395
1772462550879704800,4.575704833984375,0.0009865849278867245,-0.0012827659957110882,-0.0005184320034459233
1772462550889753000,4.585753173828125,-0.0015076017007231712,0.0002583353780210018,0.0006758118979632854
1772462550899801000,4.595801025390625,-0.0003485940396785736,0.0011840499937534332,-0.00041714950930327177
1772462550909850000,4.60585009765625,0.0007265815511345863,0.0023623560555279255,-0.0009739516535773873
1772462550919898000,4.615898193359375,0.002717028371989727,0.002233725506812334,0.0015736282803118229
1772462550929947100,4.625947021484375,0.0003506746143102646,-0.0013168537989258766,0.00015087402425706387
1772462550939995100,4.6359951171875,-0.001373988576233387,0.0012861201539635658,0.0010805835481733084
1772462550950044200,4.646044189453125,0.000058708712458610535,-0.0010900949127972126,0.000840738182887435
1772462550960092200,4.656092041015625,0.00011703185737133026,-0.000045336782932281494,0.0015358233358711004
1772462550970140000,4.666139892578125,-0.00001803319901227951,-0.00040869368240237236,-0.002406713552772999
1772462550980189200,4.676189208984375,0.00001685507595539093,-0.00032427161931991577,0.00043807527981698513
1772462550990237000,4.68623681640625,0.0008059795945882797,0.0008724755607545376,0.00008627050556242466
1772462551000286200,4.6962861328125,-0.0007676826789975166,0.002855997998267412,0.0005078488029539585
1772462551010334000,4.706333984375,-0.0004329998046159744,0.0005182786844670773,0.0005915130022913218
1772462551020383200,4.71638330078125,0.0005696802400052547,0.0034064766950905323,0.00043944641947746277
1772462551030431000,4.726430908203125,0.0008711623959243298,-0.001809690147638321,0.000678560696542263
1772462551040479000,4.73647900390625,0.0004671607166528702,0.001016722060739994,-0.00008603278547525406
1772462551050528000,4.746528076171875,-0.001392965205013752,0.00017574382945895195,0.000004972098395228386
1772462551060576000,4.756575927734375,-0.0007868297398090363,-0.0001739291474223137,0.0007788867224007845
1772462551070625000,4.766625,-0.0008355649188160896,0.0006287475116550922,-0.0017593721859157085
1772462551080673000,4.776673095703125,-0.0019028084352612495,0.00029873335734009743,0.0004789235536009073
1772462551090722000,4.78672216796875,0.001779140904545784,0.0003197598271071911,0.0010732023511081934
1772462551100770000,4.79677001953125,0.00010933913290500641,0.00109473941847682,0.0017741462215781212
1772462551110818000,4.806818115234375,-0.0018899915739893913,-0.002357372548431158,-0.0013426170917227864
1772462551120867000,4.8168671875,-0.0000814385712146759,-0.001044700387865305,0.00039216596633195877
1772462551130915000,4.8269150390625,-0.000562913715839386,-0.00045693712309002876,-0.0009783274726942182
1772462551140964000,4.836964111328125,0.0005596084520220757,-0.00018289778381586075,-0.0007839167956262827
1772462551151011800,4.84701171875,-0.0002499958500266075,0.001223376952111721,0.00020319619216024876
1772462551161061000,4.85706103515625,-0.00017010141164064407,-0.0007979623042047024,0.0003107876982539892
1772462551171108900,4.86710888671875,-0.0003139656037092209,0.00018215086311101913,0.0009514461271464825
1772462551181157000,4.8771572265625,0.001187791582196951,-0.000884711742401123,-0.0011404668912291527
1772462551191206000,4.887205810546875,-0.00045251473784446716,-0.00001963973045349121,-0.00043735746294260025
1772462551201254100,4.897254150390625,-0.00031988881528377533,-0.0021307277493178844,-0.0011308445828035474
1772462551211303000,4.907302978515625,-0.0005200942978262901,-0.0019845888018608093,-0.001686962554231286
1772462551221351200,4.91735107421875,-0.0009512603282928467,-0.0014460976235568523,0.0009652795270085335
1772462551231399200,4.927399169921875,-0.0005934182554483414,0.00009019719436764717,-0.000215439242310822
1772462551241448200,4.9374482421875,0.0009187245741486549,-0.0006996961310505867,-0.001423715497367084
1772462551251496200,4.94749609375,0.00003845337778329849,0.0018994687125086784,0.0006935449782758951
1772462551261545000,4.957544921875,-0.0019163070246577263,-0.0006225444376468658,-0.00004361802712082863
1772462551271593200,4.96759326171875,-0.00023906026035547256,0.000580997671931982,0.0019363698083907366
1772462551281642000,4.97764208984375,0.0013798754662275314,0.001115493942052126,0.000190401216968894
1772462551291690000,4.98768994140625,0.00007103476673364639,-0.0013141646049916744,0.000453233253210783
1772462551301738000,4.997738037109375,-0.0005047405138611794,0.00008772313594818115,0.0004271341022104025
1772462551311787000,5.007787109375,0.0012144045904278755,-0.0014783688820898533,-0.0011316159507259727
1772462551321835000,5.0178349609375,-0.003194192424416542,0.0034087980166077614,0.0004186101723462343
1772462551331884000,5.027884033203125,0.0009573712013661861,0.0009379321709275246,-0.00004344130866229534
1772462551341932000,5.03793212890625,0.00046974653378129005,-0.00013132719323039055,-0.0009947225917130709
1772462551351981000,5.04798095703125,-0.0000015171244740486145,-0.0014041704125702381,0.0006334527861326933
1772462551362029000,5.058029052734375,-0.0015067355707287788,0.00014951778575778008,-0.00029998517129570246
1772462551372077000,5.0680771484375,0.0011176387779414654,-0.001135864295065403,0.0008931527845561504
1772462551382126000,5.0781259765625,-0.001513032242655754,0.002141954842954874,0.0030974510591477156
1772462551392174000,5.088174072265625,0.0017395224422216415,0.00044133514165878296,0.00017156265676021576
1772462551402223000,5.09822314453125,0.0009951689280569553,-0.00217974791303277,0.0012623935472220182
1772462551412271000,5.10827099609375,-0.0018026027828454971,-0.0003026258200407028,0.0006413892842829227
1772462551422318800,5.11831884765625,-0.0021959515288472176,-0.000605427660048008,-0.0018641126807779074
1772462551432368000,5.1283681640625,-0.00017844606190919876,0.0016412357799708843,0.0034865704365074635
1772462551442415900,5.138415771484375,-0.000035167671740055084,-0.0003822343423962593,0.0008236756548285484
1772462551452465200,5.148465087890625,-0.0018099267035722733,-0.0015847673639655113,0.0009851523209363222
1772462551462513000,5.158512939453125,0.0010420526377856731,0.000973997637629509,0.00024958723224699497
1772462551472562200,5.168562255859375,0.0005473745986819267,-0.0025926348753273487,-0.0010821969481185079
1772462551482610000,5.17860986328125,-0.00010403431951999664,0.0012673507444560528,0.0006901368033140898
1772462551492658200,5.188658203125,-0.000804494135081768,0.0023904601112008095,-0.00017791497521102428
1772462551502707000,5.19870703125,-0.0004934370517730713,0.0013041570782661438,-0.0016908567631617188
1772462551512755200,5.208755126953125,0.0008456539362668991,-0.001324949786067009,-0.0011836107587441802
1772462551522804000,5.218803955078125,-0.0007836678996682167,0.0006383326835930347,-0.001251255045644939
1772462551532852000,5.22885205078125,0.0016830973327159882,0.0018186490051448345,0.0017488158773630857
1772462551542901000,5.23890087890625,0.002313201315701008,-0.00038964441046118736,0.000878228573128581
1772462551552949000,5.248948974609375,0.0014301673509180546,-0.0005455706268548965,0.0027936261612921953
1772462551562997000,5.2589970703125,0.0016048704273998737,-0.002528826706111431,0.000922489445656538
1772462551573046000,5.2690458984375,0.0010294150561094284,-0.0015262714587152004,-0.0008891216712072492
1772462551583094000,5.279093994140625,-0.001728554256260395,-0.00004129251465201378,0.0026118699461221695
1772462551593143000,5.28914306640625,-0.00072487723082304,-0.0004167766310274601,0.001188031630590558
1772462551603191000,5.29919091796875,-0.002133956179022789,-0.0004897471517324448,-0.00027431012131273746
1772462551613240000,5.309239990234375,0.00036034826189279556,0.00032503576949238777,0.00009760051034390926
1772462551623288000,5.3192880859375,-0.0013411445543169975,-0.00018735649064183235,-0.001194298965856433
1772462551633336000,5.329336181640625,0.0005594883114099503,-0.0008581499569118023,-0.0003071993123739958
1772462551643384800,5.339384765625,0.0016204915009438992,-0.00147573696449399,0.00020439387299120426
1772462551653433000,5.34943310546875,0.0022208215668797493,0.0013685580343008041,0.00039245118387043476
1772462551663481900,5.35948193359375,0.0018056351691484451,0.0005224719643592834,0.00008991616778075695
1772462551673530000,5.369530029296875,0.00027624238282442093,-0.00035765906795859337,-0.0002612349344417453
1772462551683578000,5.379578125,0.0006197900511324406,0.0023731463588774204,-0.0028402400203049183
1772462551693627100,5.389627197265625,-0.00025910791009664536,-0.0012242421507835388,0.0030829529277980328
1772462551703675100,5.399675048828125,0.0019017811864614487,0.002274618484079838,0.00019235769286751747
1772462551713724200,5.40972412109375,0.0014863787218928337,-0.00010149646550416946,0.0009876340627670288
1772462551723772200,5.419772216796875,-0.00010938756167888641,-0.00007832702249288559,0.0007982831448316574
1772462551733821200,5.4298212890625,0.0009152679704129696,-0.00044899340718984604,-0.001487251603975892
1772462551743869200,5.439869140625,0.00267614983022213,-0.0013848282396793365,0.0030462476424872875
1772462551753917000,5.4499169921875,-0.00023843441158533096,0.0017455811612308025,0.0005772276781499386
1772462551763966200,5.45996630859375,0.0009826244786381721,-0.001366589218378067,-0.00019721942953765392
1772462551774014000,5.470013916015625,-0.00017165206372737885,-0.0008283918723464012,-0.0002474694047123194
1772462551784063000,5.48006298828125,0.00013780780136585236,0.0012046648189425468,-0.002451767912134528
1772462551794111000,5.490111083984375,0.0017783194780349731,-0.002672065980732441,-0.0009520992171019316
1772462551804160000,5.500159912109375,0.0008142548613250256,-0.0017564711160957813,0.003166479291394353
1772462551814208000,5.5102080078125,-0.00022599287331104279,-0.001529754139482975,-0.0009545159991830587
1772462551824256000,5.520256103515625,0.0010083820670843124,0.0002532321959733963,-0.0004730165237560868
1772462551834305800,5.530305908203125,-0.0007375478744506836,-0.00139719620347023,-0.0029394440352916718
1772462551844353800,5.540353759765625,-0.0015961509197950363,0.00004357378929853439,0.0013546368572860956
1772462551854402800,5.55040283203125,-0.0006293747574090958,0.00019431579858064651,-0.00017198431305587292
1772462551864450800,5.560450927734375,-0.0006866324692964554,0.000926685519516468,0.0005233669653534889
1772462551874499800,5.570499755859375,-0.0006555533036589622,0.00116388825699687,0.0005360725335776806
1772462551884547600,5.580547607421875,-0.0014169514179229736,-0.0013506687246263027,0.00014778366312384605
1772462551894595800,5.590595947265625,0.00040082354098558426,-0.0014046486467123032,0.00009463401511311531
1772462551904644600,5.60064453125,-0.0015073306858539581,-0.0005116905085742474,-0.00001535448245704174
1772462551914692900,5.61069287109375,-0.0006984705105423927,0.0012147552333772182,-0.0016437503509223461
1772462551924741600,5.62074169921875,-0.00013973936438560486,-0.0012428094632923603,-0.0016336303669959307
1772462551934790000,5.630789794921875,0.001227907370775938,-0.0004889867268502712,0.0002171394880861044
1772462551944838700,5.640838623046875,-0.0003769136965274811,-0.0015095099806785583,-0.0004779456648975611
1772462551954887000,5.650886962890625,-0.0003585042431950569,0.0005059847608208656,-0.00025527062825858593
1772462551964935000,5.660934814453125,-0.0017111236229538918,-0.0019553089514374733,-0.0031621106900274754
1772462551974983700,5.670983642578125,-0.0009525874629616737,-0.0016698096878826618,-0.000941408216021955
1772462551985032000,5.681031982421875,-0.0009722942486405373,-0.0008234572596848011,-0.0011712390696629882
1772462551995080700,5.691080810546875,-0.000021444633603096008,-0.00041004549711942673,0.0006797381211072206
1772462552005129000,5.70112890625,-0.0004347674548625946,0.0013292646035552025,0.0012877376284450293
1772462552015176700,5.7111767578125,-0.0005584843456745148,-0.0012037460692226887,-0.00046351959463208914
1772462552025226000,5.72122607421875,0.0011904132552444935,-0.0004362231120467186,-0.0007886915700510144
1772462552035273700,5.731273681640625,-0.0007309690117835999,0.0005832263268530369,0.000634732423350215
1772462552045323000,5.741322998046875,-0.0003085918724536896,0.0014399648644030094,-0.0004659519763663411
1772462552055370800,5.751370849609375,0.00010855961591005325,-0.0008020997047424316,-0.0004579987144097686
1772462552065420000,5.761419921875,0.0012316140346229076,-0.00013311393558979034,-0.001661481219343841
1772462552075467800,5.7714677734375,0.0007561384700238705,-0.0013867081142961979,-0.0020595365203917027
1772462552085515800,5.781515869140625,-0.00048303045332431793,-0.00047004781663417816,-0.00034392811357975006
1772462552095564800,5.791564697265625,0.00027636345475912094,-0.00017434963956475258,-0.0009076785063371062
1772462552105612800,5.80161279296875,0.0009197834879159927,0.00041767116636037827,0.00029553775675594807
1772462552115661800,5.811661865234375,0.0004992634057998657,0.0005861399695277214,-0.0015219051856547594
1772462552125709800,5.821709716796875,0.0000886041671037674,-0.0001267879270017147,-0.0005751514108851552
1772462552135758800,5.8317587890625,0.0011378023773431778,0.0015765824355185032,-0.0032720486633479595
1772462552145806800,5.841806884765625,0.0009958562441170216,-0.0015092226676642895,0.0005245539359748363
1772462552155854600,5.8518544921875,-0.0010056719183921814,0.003987192641943693,0.00010462617501616478
1772462552165904000,5.86190380859375,0.002356036100536585,-0.0009742765687406063,-0.0006157588213682175
1772462552175951600,5.87195166015625,-0.0008936133235692978,-0.0008869231678545475,0.0033517780248075724
1772462552186001000,5.8820009765625,0.0011855163611471653,-0.0003004949539899826,0.0008739731274545193
1772462552196048600,5.892048583984375,0.0003963373601436615,0.00016194675117731094,0.0016567306593060493
1772462552206098000,5.902097900390625,0.0013244492001831532,-0.0016170446760952473,-0.0022993951570242643
1772462552216145700,5.912145751953125,-0.001758938655257225,-0.00009683100506663322,0.00117757567204535
1772462552226194000,5.92219384765625,0.00038330815732479095,-0.0015543787740170956,-0.0022882623597979546
1772462552236242700,5.93224267578125,-0.002148195169866085,-0.002094622701406479,-0.0008463356643915176
1772462552246290700,5.942290771484375,-0.0002672048285603523,0.0015118303708732128,-0.000749662984162569
1772462552256339700,5.952339599609375,0.00031061191111803055,-0.0013224012218415737,-0.00010966276749968529
1772462552266387700,5.9623876953125,0.0005763955414295197,0.0010222457349300385,-0.0006928951479494572
1772462552276436700,5.972436767578125,0.0013960213400423527,-0.0008731028065085411,0.0010627745650708675
1772462552286484700,5.982484619140625,-0.0014535607770085335,-0.0012576631270349026,0.0002417219802737236
1772462552296533000,5.992532958984375,-0.0003588283434510231,-0.0005366113036870956,0.0005186202470213175
1772462552306581800,6.002581787109375,-0.0015780236572027206,-0.0007944055832922459,0.0006320709362626076
1772462552316629800,6.012629638671875,-0.000642361119389534,0.00021728314459323883,0.00017591984942555428
1772462552326678800,6.0226787109375,-0.0006516827270388603,-0.0017667720094323158,0.0022358749993145466
1772462552336726800,6.032726806640625,-0.00031691789627075195,-0.00035007111728191376,-0.002068769186735153
1772462552346775800,6.04277587890625,0.0019936407916247845,0.00037191202864050865,-0.0011007102439180017
1772462552356823800,6.05282373046875,-0.00017667189240455627,-0.001956505700945854,-0.0018944074399769306
1772462552366871800,6.062871826171875,-0.0007905298843979836,0.001152734737843275,0.0003772689960896969
1772462552376920600,6.072920654296875,-0.0015895767137408257,-0.005024349316954613,-0.0004451762652024627
1772462552386968800,6.08296875,-0.0012042168527841568,0.0014886781573295593,-0.001344525720924139
1772462552397017600,6.093017578125,-0.0014977985993027687,-0.0003505898639559746,-0.00045145151671022177
1772462552407065900,6.10306591796875,0.0003970405086874962,0.00020228233188390732,-0.002258140128105879
1772462552417113900,6.11311376953125,0.0005926894955337048,-0.000631778035312891,-0.0016638957895338535
1772462552427163000,6.123162841796875,-0.0015524867922067642,0.0014257803559303284,0.0006999259348958731
1772462552437211000,6.1332109375,0.0012814323417842388,-0.0015516569837927818,0.001359686953946948
1772462552447260000,6.143260009765625,-0.0011178096756339073,-0.0007689539343118668,-0.0006541954353451729
1772462552457308000,6.153307861328125,0.0001639900729060173,-0.00046394066885113716,-0.000351698137819767
1772462552467356700,6.163356689453125,-0.0007052654400467873,0.0009808242321014404,0.00038360082544386387
1772462552477405000,6.173405029296875,0.0005356981419026852,0.0000045211054384708405,0.00003798701800405979
1772462552487453700,6.18345361328125,0.0020015016198158264,0.0014655315317213535,-0.0006666855188086629
1772462552497502000,6.193501953125,-0.00043535884469747543,-0.00030814390629529953,0.001754590542986989
1772462552507549700,6.2035498046875,-0.004813062958419323,-0.0005582147277891636,-0.0009628991829231381
1772462552517599000,6.213598876953125,-0.0005388194695115089,0.00021539442241191864,0.0007278400007635355
1772462552527646700,6.223646728515625,-0.0002522636204957962,-0.0005188393406569958,0.0023262694012373686
1772462552537696000,6.233696044921875,0.0009530279785394669,-0.000015363097190856934,0.0011121798306703568
1772462552547743700,6.24374365234375,-0.00026084110140800476,0.001088517252355814,0.0016781017184257507
1772462552557791700,6.253791748046875,0.0025951615534722805,-0.00208459934219718,-0.00043398095294833183
1772462552567840800,6.2638408203125,-0.0010325964540243149,0.0005095857195556164,0.0022118696942925453
1772462552577888800,6.273888671875,-0.0015868162736296654,0.00213055033236742,-0.000005373731255531311
1772462552587937800,6.283937744140625,-0.000744192861020565,0.002357184886932373,0.0017658949363976717
1772462552597985800,6.29398583984375,0.000680362805724144,-0.0014510899782180786,-0.0003764673601835966
1772462552608034800,6.304034912109375,-0.00027384795248508453,0.00006877584382891655,-0.0004680800484493375
1772462552618082800,6.314082763671875,0.0005146334879100323,-0.000048649031668901443,-0.00035084737464785576
1772462552628131800,6.3241318359375,0.001651270780712366,-0.0022388328798115253,0.0025104531086981297
1772462552638179800,6.334179931640625,-0.001818908378481865,-0.0012538246810436249,-0.0012560139875859022
1772462552648227600,6.3442275390625,0.0007190844044089317,0.0013299738056957722,0.001234307885169983
1772462552658276900,6.35427685546875,-0.0005197413265705109,-0.0011169430799782276,-0.0038502849638462067
1772462552668324600,6.36432470703125,0.0004134299233555794,-0.0004977579228579998,-0.0006627474213019013
1772462552678374000,6.374373779296875,0.0007627368904650211,0.001742690335959196,0.0014071478508412838
1772462552688421600,6.384421630859375,-0.00026870518922805786,0.0008055237121880054,-0.0003332279156893492
1772462552698470000,6.394469970703125,-0.00006937887519598007,0.0011118208058178425,0.0006358339451253414
1772462552708518700,6.4045185546875,-0.000007327646017074585,0.00017039338126778603,-0.00017776177264750004
1772462552718567000,6.41456689453125,-0.0001338934525847435,-0.0002554175443947315,0.001713974867016077
1772462552728615700,6.42461572265625,0.0016895732842385769,-0.0007379823364317417,-0.0006658260244876146
1772462552738664000,6.434663818359375,-0.002869230695068836,0.0005755308084189892,0.0023065947461873293
1772462552748712700,6.444712646484375,0.000464513897895813,0.00035315658897161484,-0.0010556462220847607
1772462552758760700,6.4547607421875,0.0001640086993575096,-0.0006343824788928032,0.0015667902771383524
1772462552768809000,6.46480908203125,0.00014270376414060593,-0.0003014872781932354,0.0009673128370195627
1772462552778857700,6.474857666015625,0.0000053746625781059265,0.0003890460357069969,0.001548347994685173
1772462552788906000,6.484906005859375,0.001250668428838253,-0.0008131046779453754,-0.00044023431837558746
1772462552798954800,6.494954833984375,0.0009308019652962685,0.0001287665218114853,-0.00006068311631679535
1772462552809002800,6.505002685546875,-0.0003834683448076248,0.0013769897632300854,-0.0006079627200961113
1772462552819051800,6.5150517578125,0.0008088694885373116,0.0015349783934652805,0.000486898235976696
1772462552829099800,6.525099853515625,0.0010948930867016315,0.00042843492701649666,-0.0024244694504886866
1772462552839148000,6.53514794921875,0.001105582807213068,-0.0007508206181228161,-0.0009856063406914473
1772462552849196800,6.54519677734375,-0.0006377222016453743,-0.0005300445482134819,0.0033441607374697924
1772462552859245000,6.5552451171875,-0.0015440760180354118,0.0007723630405962467,-0.0005221681203693151
1772462552869293800,6.5652939453125,0.0005049603059887886,-0.00020581576973199844,-0.0014580029528588057
1772462552879342000,6.575342041015625,0.0007322710007429123,0.0019161747768521309,0.0007841181941330433
1772462552889390800,6.585390869140625,0.00022067781537771225,-0.0002412521280348301,-0.0006108456291258335
1772462552899438800,6.59543896484375,-0.0016891779378056526,-0.0020396802574396133,0.0010100200306624174
1772462552909487000,6.605487060546875,0.00024401023983955383,0.000270345713943243,0.00025474769063293934
1772462552919535900,6.615535888671875,0.0023825778625905514,0.0013346890918910503,-0.002291192999109626
1772462552929584000,6.625584228515625,-0.000690709799528122,-0.0010762708261609077,-0.00020141038112342358
1772462552939633000,6.6356328125,0.00010885205119848251,-0.0014454647898674011,0.002343191532418132
1772462552949681200,6.64568115234375,0.0006899535655975342,0.0005487101152539253,0.0005317095201462507
1772462552959730000,6.65572998046875,-0.0008220644667744637,-0.0033472124487161636,0.000060093821957707405
1772462552969778200,6.665778076171875,0.0004714326933026314,-0.0023543857969343662,0.000957579119130969
1772462552979826000,6.675825927734375,0.002357354387640953,0.0004633232019841671,0.0012228665873408318
1772462552989875200,6.685875244140625,0.00014453381299972534,-0.0010157963261008263,0.00020793592557311058
1772462552999923000,6.6959228515625,0.002167808823287487,0.00038157869130373,0.0009314846247434616
1772462553009972000,6.705971923828125,-0.0019672811031341553,-0.0013217790983617306,0.0009418709669262171
1772462553020020000,6.71602001953125,0.0005227578803896904,0.0005016736686229706,0.003242656821385026
1772462553030069000,6.726069091796875,0.0009704353287816048,-0.0013769203796982765,-0.00004341755993664265
1772462553040117000,6.736116943359375,0.0005957377143204212,-0.001516218762844801,-0.0008260478498414159
1772462553050165000,6.7461650390625,0.000642076600342989,-0.002560444176197052,0.002056557685136795
1772462553060214000,6.756214111328125,0.002954217605292797,0.0013300986029207706,-0.00019324361346662045
1772462553070262000,6.766261962890625,-0.0010192189365625381,-0.0002313130535185337,-0.0011775478487834334
1772462553080311000,6.77631103515625,0.00011819414794445038,-0.0008813687600195408,-0.0013139609945937991
1772462553090359000,6.786359130859375,-0.00022934842854738235,0.0006853686645627022,-0.00028731231577694416
1772462553100408000,6.796407958984375,0.00005841534584760666,-0.0013274308294057846,-0.001762420404702425
1772462553110456000,6.8064560546875,0.0006677471101284027,-0.00042967917397618294,-0.002530742436647415
1772462553120503800,6.81650390625,0.0018123909831047058,0.00012016342952847481,-0.0017423435347154737
1772462553130553000,6.826552978515625,0.00006482470780611038,0.001226441003382206,0.00032533472403883934
1772462553140600800,6.836600830078125,-0.001822143793106079,-0.0008586067706346512,-0.0027829587925225496
1772462553150650000,6.846650146484375,0.0014551421627402306,0.0007930854335427284,-0.0010875904699787498
1772462553160697900,6.85669775390625,0.00032834988087415695,-0.0012462553568184376,0.0031166726257652044
1772462553170747100,6.8667470703125,-0.001042645424604416,-0.0015637041069567204,-0.0010455818846821785
1772462553180795000,6.876794921875,-0.0018609873950481415,-0.0017517916858196259,-0.0014935252256691456
1772462553190843000,6.8868427734375,0.00014357361942529678,0.00044771330431103706,0.0017163828015327454
1772462553200892000,6.896891845703125,-0.0006668344140052795,0.00023008882999420166,-0.001790693961083889
1772462553210940000,6.90693994140625,0.0013995119370520115,-0.00010014325380325317,-0.001653807470574975
1772462553220989000,6.916989013671875,-0.0005880193784832954,0.0007364372722804546,-0.0017778603360056877
1772462553231037000,6.927036865234375,-0.0011352989822626114,0.002183332573622465,-0.0009149961406365037
1772462553241086000,6.9370859375,0.0020401524379849434,0.0013990383595228195,-0.00025826250202953815
1772462553251134000,6.947134033203125,-0.0010778764262795448,0.00014202576130628586,-0.0005325679667294025
1772462553261182000,6.957181884765625,-0.0017198268324136734,-0.0003761523403227329,-0.00036196131259202957
1772462553271231000,6.96723095703125,0.001138011459261179,0.001004430465400219,0.0023264996707439423
1772462553281279000,6.977279052734375,-0.0018489053472876549,-0.00046256324276328087,-0.0005531588103622198
1772462553291328000,6.987327880859375,-0.0008888356387615204,-0.0013741631992161274,0.001112914877012372
1772462553301375700,6.997375732421875,0.0000372985377907753,-0.0018591135740280151,0.0044726599007844925
1772462553311425000,7.007425048828125,0.0001595374196767807,0.002191821113228798,-0.0009175783488899469
1772462553321472800,7.01747265625,0.0012534107081592083,-0.0008485657162964344,0.000047462061047554016
1772462553331522000,7.02752197265625,-0.000316789373755455,-0.00013830047100782394,0.0013449541293084621
1772462553341569800,7.03756982421875,0.0011835484765470028,-0.001049029640853405,0.0014015063643455505
1772462553351618000,7.0476181640625,0.002178771421313286,0.0005398117937147617,-0.0016515414463356137
1772462553361666800,7.057666748046875,-0.0006778892129659653,-0.0019875233992934227,-0.0016868629027158022
1772462553371715000,7.067715087890625,-0.0010693734511733055,-0.0020956480875611305,-0.002766774734482169
1772462553381763800,7.077763916015625,0.0013578799553215504,-0.00003897771239280701,-0.0002379799261689186
1772462553391811800,7.087811767578125,0.0012239227071404457,-0.003602553391829133,-0.00006620609201490879
1772462553401860000,7.097860107421875,-0.0016704201698303223,-0.00042822351679205894,-0.000413315137848258
1772462553411908900,7.107908935546875,0.002221523318439722,-0.0009656492620706558,0.0014042924158275127
1772462553421957000,7.11795703125,-0.0015912381932139397,0.0012247897684574127,0.0005237681325525045
1772462553432006000,7.128005859375,0.002282596193253994,-0.002392316237092018,0.0021514922846108675
1772462553442054100,7.13805419921875,-0.00298857968300581,0.000018911901861429214,-0.001087385113351047
1772462553452103000,7.14810302734375,0.00013983529061079025,-0.001042624469846487,-0.0009363838471472263
1772462553462151200,7.158151123046875,-0.0013364944607019424,-0.0009786286391317844,0.0011354838497936726
1772462553472200000,7.168199951171875,0.000961547251790762,-0.0001280149444937706,0.0034998380579054356
1772462553482248200,7.178248291015625,0.00021319929510354996,-0.0013058269396424294,0.00159662333317101
1772462553492296000,7.1882958984375,0.0010835197754204273,-0.0011249985545873642,-0.0013325876789167523
1772462553502345000,7.198344970703125,0.001483166590332985,-0.0022638170048594475,-0.0006198595510795712
1772462553512393000,7.20839306640625,-0.00021779444068670273,-0.0008925553411245346,0.00015698443166911602
1772462553522442000,7.21844189453125,0.0021633105352520943,-0.0009074434638023376,0.00006686942651867867
1772462553532490000,7.228489990234375,0.00033318623900413513,0.0024968753568828106,0.0005853869952261448
1772462553542539000,7.2385390625,-0.0008465759456157684,0.0012108832597732544,0.0015141535550355911
1772462553552587000,7.2485869140625,0.0010157725773751736,-0.0004376140423119068,-0.0008597881533205509
1772462553562635000,7.258635009765625,-0.001428411342203617,-0.00021093711256980896,0.0017838082276284695
1772462553572684000,7.26868408203125,-0.000049958936870098114,-0.0005845786072313786,-0.0001443205401301384
1772462553582732000,7.27873193359375,0.00175100052729249,-0.0009824186563491821,-0.0016466854140162468
1772462553592781000,7.288781005859375,0.0013997298665344715,-0.0032796612940728664,-0.00004852237179875374
1772462553602829000,7.2988291015625,-0.0009503904730081558,0.0003005601465702057,-0.0014862078242003918
1772462553612877800,7.3088779296875,0.00013804342597723007,0.0020417352207005024,0.0019157142378389835
1772462553622926000,7.318926025390625,0.0019749822095036507,0.000003898516297340393,0.0028698460664600134
1772462553632973800,7.328973876953125,0.00045777950435876846,-0.000004090834408998489,-0.0006151667330414057
1772462553643023000,7.339023193359375,0.0001283464953303337,-0.001225150190293789,-0.0009786882437765598
1772462553653070800,7.34907080078125,-0.0010265670716762543,0.00032484810799360275,-0.00021014362573623657
1772462553663120100,7.3591201171875,0.00034308433532714844,0.00034709274768829346,-0.0002388330176472664
1772462553673168000,7.36916796875,-0.0003282977268099785,-0.00009552435949444771,0.00020964350551366806
1772462553683217200,7.379217041015625,-0.0013725189492106438,0.0021100444719195366,0.0011082252021878958
1772462553693265000,7.389264892578125,-0.0005445415154099464,0.00005275243893265724,0.0007420405745506287
1772462553703313000,7.39931298828125,0.0007869265973567963,0.0002031535841524601,-0.0015252421144396067
1772462553713362000,7.40936181640625,0.001116359606385231,0.0016697561368346214,-0.000011501368135213852
1772462553723410000,7.419409912109375,0.0004508337005972862,-0.0002871323376893997,-0.0017903221305459738
1772462553733459000,7.429458984375,0.00027613062411546707,-0.0012743663974106312,-0.00236210273578763
1772462553743507000,7.4395068359375,0.0030790073797106743,-0.0008491533808410168,0.0012428306508809328
1772462553753556000,7.449555908203125,-0.0024262787774205208,0.0001942734234035015,0.00037863501347601414
1772462553763604000,7.45960400390625,0.00019280333071947098,0.002229915000498295,0.0011435693595558405
1772462553773652000,7.46965185546875,0.0005773636512458324,0.0007193693891167641,0.0009590121917426586
1772462553783701000,7.479700927734375,-0.0017961282283067703,0.0005090921185910702,0.0011770811397582293
1772462553793748700,7.489748779296875,-0.00005042552947998047,0.00038578780367970467,-0.000069810776039958
1772462553803798000,7.499798095703125,-0.0004893988370895386,0.0017921598628163338,-0.0003405564930289984
1772462553813845800,7.509845703125,0.002598270308226347,-0.0014568963088095188,0.0010096661280840635
1772462553823895000,7.51989501953125,0.0002519572153687477,0.0006693964824080467,-0.0013436619192361832
1772462553833946000,7.529946044921875,-0.00043087732046842575,-0.001243019476532936,-0.002587091876193881
1772462553843994000,7.539994140625,-0.0018625464290380478,-0.0013701822608709335,0.0001291974913328886
1772462553854043100,7.550043212890625,0.0018160780891776085,0.00031879451125860214,-0.0006732129259034991
1772462553864091100,7.560091064453125,0.0016435347497463226,-0.00006174622103571892,-0.0005917431553825736
1772462553874140200,7.57014013671875,0.00012366939336061478,0.0009092427790164948,0.0008037532679736614
1772462553884188200,7.580188232421875,-0.00017016753554344177,-0.0014449860900640488,0.000618314603343606
1772462553894237200,7.5902373046875,0.00006685405969619751,0.0007308167405426502,0.00045479671098291874
1772462553904285200,7.60028515625,-0.0011242739856243134,-0.0015165088698267937,-0.0009437842527404428
1772462553914333200,7.610333251953125,-0.0013381261378526688,-0.0000994410365819931,0.0016072578728199005
1772462553924382200,7.62038232421875,-0.0019239643588662148,-0.0002782754600048065,-0.001672803540714085
1772462553934430200,7.63043017578125,0.0018332228064537048,0.0005395812913775444,-0.001291705179028213
1772462553944479200,7.640479248046875,-0.0017586546018719673,0.000039291102439165115,-0.0005293962312862277
1772462553954527200,7.65052734375,-0.0000763358548283577,0.0004957565106451511,-0.0011656254064291716
1772462553964576300,7.660576171875,0.00038058869540691376,0.0013240352272987366,0.00020332983694970608
1772462553974624300,7.670624267578125,0.0010572979226708412,0.0011309562250971794,-0.0003799025435000658
1772462553984672000,7.680672119140625,-0.0013004103675484657,0.0022965557873249054,-0.0015912287635728717
1772462553994721300,7.69072119140625,-0.000687883235514164,0.0000789416953921318,-0.0004170411266386509
1772462554004769000,7.70076904296875,0.0022454597055912018,-0.0006562569178640842,0.00020231632515788078
1772462554014818300,7.710818359375,-0.001532234251499176,0.001421807799488306,0.0008590519428253174
1772462554024866000,7.720865966796875,0.0020158798433840275,0.0009290222078561783,0.0032943813130259514
1772462554034915300,7.730915283203125,-0.0011428957805037498,0.000439266674220562,0.0012035337276756763
1772462554044963000,7.740963134765625,-0.0023526260629296303,0.0007993630133569241,-0.0014967217575758696
1772462554055011300,7.75101123046875,-0.0009121224284172058,0.0009602182544767857,-0.001515896525233984
1772462554065060000,7.76106005859375,-0.0003616185858845711,-0.002278014086186886,-0.00007720012217760086
1772462554075108400,7.7711083984375,-0.00010196026414632797,0.0003055185079574585,-0.0017600517021492124
1772462554085157000,7.7811572265625,-0.0005432292819023132,-0.0003093946725130081,0.0003748179879039526
1772462554095205000,7.791205078125,0.002015269361436367,0.001569998450577259,-0.0034606666304171085
1772462554105254100,7.801254150390625,-0.0011799046769738197,-0.00040027033537626266,-0.0008461748948320746
1772462554115302100,7.81130224609375,-0.0017825774848461151,-0.0003864215686917305,-0.0027229045517742634
1772462554125350100,7.82135009765625,-0.00010651815682649612,-0.0002958150580525398,-0.0009604602819308639
1772462554135399200,7.831399169921875,-0.001279907301068306,0.0014932965859770775,0.0000028051435947418213
1772462554145447200,7.841447265625,0.0009602815844118595,0.0005674557760357857,0.0018882134463638067
1772462554155496200,7.85149609375,0.0019280742853879929,-0.00028741825371980667,0.002400339348241687
1772462554165544200,7.861544189453125,-0.0016229068860411644,-0.0011389399878680706,0.000835716724395752
1772462554175593200,7.87159326171875,0.00004076957702636719,-0.0015035266987979412,-0.0005424692062661052
1772462554185641200,7.88164111328125,0.002097655553370714,0.001774731557816267,-0.00008284463547170162
1772462554195690200,7.891690185546875,-0.0006672386080026627,-0.0031941942870616913,0.0014455434866249561
1772462554205738000,7.901738037109375,-0.00026139989495277405,-0.00040539586916565895,-0.0007191167678683996
1772462554215786200,7.9117861328125,0.002135978080332279,0.00038582924753427505,0.001261209836229682
1772462554225835000,7.9218349609375,0.002202622126787901,0.002156151458621025,-0.0008955969242379069
1772462554235883300,7.93188330078125,0.0009232396259903908,0.0014570718631148338,-0.0007001209305599332
1772462554245932000,7.94193212890625,-0.00038555823266506195,0.0013347389176487923,0.00028771511279046535
1772462554255980300,7.951980224609375,0.0008405614644289017,-0.00013878848403692245,-0.0010894055012613535
1772462554266029000,7.962029052734375,0.002657418604940176,-0.00016038492321968079,0.0010216613300144672
1772462554276077300,7.972077392578125,0.0005623097531497478,0.0008851718157529831,0.00028050364926457405
1772462554286125000,7.982125,-0.00001695007085800171,0.00039368122816085815,-0.001952383783645928
1772462554296174300,7.99217431640625,0.0003292607143521309,-0.0006955512799322605,0.001478034071624279
1772462554306222000,8.00222216796875,0.00023932941257953644,0.001203465275466442,-0.0017381275538355112
1772462554316271000,8.01227099609375,0.0010859486646950245,-0.0014937841333448887,-0.0017682211473584175
1772462554326319000,8.022319091796875,-0.001878810115158558,-0.0013796533457934856,0.0018435381352901459
1772462554336368000,8.0323681640625,-0.0005765240639448166,0.000324503518640995,-0.0006955194985494018
1772462554346416000,8.042416015625,-0.0006288513541221619,-0.0005026469007134438,-0.0009831457864493132
1772462554356464000,8.052464111328124,0.0005959360860288143,0.000012941192835569382,-0.0012377439998090267
1772462554366513200,8.06251318359375,-0.0014042500406503677,0.003757437225431204,-0.0013359091244637966
1772462554376561200,8.07256103515625,-0.002928909845650196,0.00006469804793596268,-0.0005558693083003163
1772462554386610200,8.082610107421875,0.00106458505615592,-0.0024672257713973522,-0.0010656408267095685
1772462554396658200,8.092658203125,-0.00046353694051504135,0.002051093615591526,-0.0016552646411582828
1772462554406707200,8.102707275390625,-0.0016721831634640694,-0.00012478232383728027,-0.0001691316720098257
1772462554416755200,8.112755126953125,-0.002936386503279209,0.0022065485827624798,0.0011312898714095354
1772462554426803200,8.12280322265625,-0.0005343854427337646,-0.00022466015070676804,0.0009424227755516768
1772462554436852200,8.132852294921875,-0.002636685036122799,-0.00031733838841319084,0.0007908889092504978
1772462554446900200,8.142900146484376,0.0013318615965545177,0.0003812951035797596,0.0023797661997377872
1772462554456949200,8.15294921875,0.0007968326099216938,-0.00003362540155649185,0.0010370002128183842
1772462554466997200,8.162997314453126,0.0010976390913128853,0.0007696589455008507,0.0026575138326734304
1772462554477046300,8.17304638671875,0.0013953805901110172,0.0005427580326795578,0.0004625364672392607
1772462554487094300,8.18309423828125,0.0012671947479248047,0.001500250305980444,0.00005235034041106701
1772462554497142000,8.19314208984375,0.00006717443466186523,-0.002522720955312252,0.0009945768397301435
1772462554507191300,8.20319140625,0.002078142948448658,0.00006989855319261551,0.0021720738150179386
1772462554517239000,8.213239013671876,0.000052276067435741425,-0.00046752719208598137,0.0013954960741102695
1772462554527288300,8.223288330078125,0.0013060811907052994,-0.0024182130582630634,0.0024734241887927055
1772462554537336000,8.233336181640626,0.002648313995450735,-0.0010176566429436207,0.0004587427247315645
1772462554547385000,8.243385009765625,-0.002932329662144184,0.00019712187349796295,-0.00008536898531019688
1772462554557433000,8.25343310546875,-0.0005410769954323769,-0.002433015964925289,-0.0008640773594379425
1772462554567481300,8.2634814453125,0.0023342897184193134,-0.0010283198207616806,-0.0003381893038749695
1772462554577530000,8.273530029296875,0.0003267992287874222,0.0031842682510614395,0.0010365343187004328
1772462554587578000,8.283578125,0.001306657213717699,-0.0008737891912460327,0.00012583541683852673
1772462554597627100,8.293627197265625,-0.0006086882203817368,-0.00008283043280243874,-0.0012488882057368755
1772462554607675100,8.303675048828126,-0.0004186062142252922,0.00019691279157996178,-0.0013202495174482465
1772462554617724200,8.31372412109375,0.00009751413017511368,0.0005812072195112705,0.001923214178532362
1772462554627772200,8.323772216796876,0.00010078027844429016,0.0004802020266652107,0.001138398190960288
1772462554637821200,8.3338212890625,0.0010968027636408806,-0.0011243526823818684,0.0005847269203513861
1772462554647869200,8.343869140625,0.00032153166830539703,-0.0015300479717552662,-0.0001489897258579731
1772462554657917200,8.353917236328124,-0.0008369432762265205,0.002365623600780964,-0.00009146565571427345
1772462554667966200,8.36396630859375,-0.0005735224112868309,0.0011767148971557617,-0.0021059163846075535
1772462554678014200,8.37401416015625,0.0012017404660582542,-0.0011801826767623425,-0.0006145461229607463
1772462554688063200,8.384063232421875,-0.0028872424736618996,-0.00029485905542969704,0.0022569415159523487
1772462554698111000,8.394111083984376,-0.0005354052409529686,-0.0005180323496460915,-0.0011321973288431764
1772462554708160300,8.40416015625,-0.0021339543163776398,-0.0006587859243154526,0.0007948658894747496
1772462554718208000,8.4142080078125,0.0029540150426328182,-0.002160809002816677,0.0036777378991246223
1772462554728256300,8.42425634765625,-0.0014966484159231186,0.0024613472633063793,0.0023539047688245773
1772462554738305000,8.434304931640625,0.00003813114017248154,-0.00017331819981336594,0.0001373558770865202
1772462554748353300,8.444353271484376,0.00009056087583303452,-0.0007733306847512722,-0.00012868456542491913
1772462554758402000,8.454402099609375,0.002145456150174141,-0.0002276487648487091,-0.0006922094617038965
1772462554768450300,8.4644501953125,0.0003398042172193527,0.0017426698468625546,0.0005068450700491667
1772462554778499000,8.4744990234375,0.0029821922071278095,0.0012792800553143024,0.003082388313487172
1772462554788547300,8.48454736328125,0.001633151900023222,-0.00032060407102108,-0.00009213504381477833
1772462554798595000,8.494594970703124,-0.001023084856569767,0.002396353054791689,-0.0017888350412249565
1772462554808644000,8.50464404296875,-0.001115412451326847,0.001120181754231453,0.000596341211348772
1772462554818692000,8.514692138671874,-0.00013030879199504852,-0.0010865130461752415,0.00008741114288568497
1772462554828741000,8.5247412109375,0.0004850323311984539,0.0012118779122829437,0.00035567255690693855
1772462554838788900,8.534788818359376,0.002047508955001831,-0.002547440119087696,-0.000787888653576374
1772462554848838000,8.544837890625,0.0012551350519061089,0.0021948888897895813,-0.0013594459742307663
1772462554858886000,8.554885986328125,0.0012210463173687458,0.00047049205750226974,-0.0006931230891495943
1772462554868935000,8.564934814453125,-0.0005723470821976662,-0.00014550704509019852,0.0014956372324377298
1772462554878983000,8.57498291015625,0.00048253126442432404,0.00016874587163329124,0.0012500938028097153
1772462554889031000,8.585031005859374,0.0012556351721286774,0.0010345326736569405,-0.0009371682535856962
1772462554899080000,8.595079833984375,0.0007059588097035885,0.00007526203989982605,-0.001533982576802373
1772462554909128000,8.6051279296875,0.00028294045478105545,0.0010946639813482761,0.002539627021178603
1772462554919176700,8.6151767578125,0.0003231549635529518,0.00040144333615899086,0.0006525113712996244
1772462554929225000,8.625224853515626,-0.0005771173164248466,0.0005204929038882256,0.00038951635360717773
1772462554939273700,8.635273681640625,-0.0024397317320108414,0.0007961299270391464,0.002281958470121026
1772462554949322000,8.645322021484375,-0.0019594505429267883,-0.0005308850668370724,0.0007364267949014902
1772462554959370800,8.655370849609374,-0.00007499754428863525,-0.001212654635310173,-0.0005517441313713789
1772462554969419000,8.6654189453125,-0.0014429045841097832,-0.0000016009435057640076,0.000538121908903122
1772462554979467000,8.675467041015626,0.0009957519359886646,0.0014817793853580952,-0.0013908058172091842
1772462554989516000,8.68551611328125,-0.00011767260730266571,0.0003795335069298744,-0.00009150081314146519
1772462554999564000,8.69556396484375,0.0008852742612361908,-0.0033339778892695904,-0.0004654086660593748
1772462555009613000,8.705613037109375,-0.000540134496986866,-0.00042125070467591286,0.000213234918192029
1772462555019661000,8.7156611328125,-0.000558244064450264,-0.002466824371367693,-0.002619569655507803
1772462555029709800,8.725709716796874,-0.0015107924118638039,-0.0013440605252981186,-0.00017569842748343945
1772462555039758000,8.735758056640625,0.0003696652129292488,0.0012357435189187527,0.0021130219101905823
1772462555049806800,8.745806884765624,0.0001875767484307289,-0.0007325722835958004,-0.0013491896679624915
1772462555059855000,8.755855224609375,-0.0010513253509998322,-0.0008452241308987141,0.0008780118077993393
1772462555069902800,8.76590283203125,-0.0002759937196969986,0.0034654056653380394,0.0034496416337788105
1772462555079952100,8.7759521484375,0.0012510628439486027,-0.00043079862371087074,0.0018823714926838875
1772462555090000000,8.785999755859375,-0.0005342382937669754,0.0019715875387191772,0.0019920652266591787
1772462555100049000,8.796048828125,0.0011611301451921463,-0.0014162193983793259,0.0003326497972011566
1772462555110097000,8.806096923828125,0.001606479287147522,0.0014538089744746685,0.000057788100093603134
1772462555120146000,8.81614599609375,-0.00018982309848070145,-0.0009270571172237396,-0.0024999117013067007
1772462555130194000,8.82619384765625,-0.00020527653396129608,-0.0022696363739669323,0.0013570799492299557
1772462555140242700,8.83624267578125,0.002006745431572199,0.0001232139766216278,0.0006473474204540253
1772462555150291000,8.846291015625,-0.0009755212813615799,-0.0012949062511324883,0.0013752162922173738
1772462555160339000,8.8563388671875,-0.0009837765246629715,-0.0010754619725048542,-0.0018155169673264027
1772462555170388000,8.866387939453125,-0.0006667487323284149,0.0019462807103991508,-0.0002915698569267988
1772462555180436000,8.87643603515625,0.0008374047465622425,0.0013257646933197975,0.001213116105645895
1772462555190485000,8.886485107421874,-0.0005709128454327583,0.0015035606920719147,-0.001213584910146892
1772462555200533000,8.896532958984375,-0.00032563600689172745,-0.0011050058528780937,0.002156645292416215
1772462555210582000,8.90658203125,-0.0016184039413928986,0.00030396319925785065,0.00120142986997962
1772462555220630000,8.916630126953125,-0.0013286517933011055,-0.0007549095898866653,-0.0017924958374351263
1772462555230677800,8.926677734375,-0.0001295972615480423,0.0002323421649634838,-0.0006556836888194084
1772462555240727000,8.93672705078125,-0.000674479641020298,-0.00023237941786646843,0.0006127799861133099
1772462555250774800,8.94677490234375,-0.0013620425015687943,0.0041304393671453,-0.001945130294188857
1772462555260824000,8.956823974609375,0.00037993118166923523,0.000024377834051847458,0.0009252247400581837
1772462555270871800,8.966871826171875,-0.0026222914457321167,0.0011058300733566284,0.003018903313204646
1772462555280921000,8.976921142578124,0.000004383735358715057,0.0011609569191932678,-0.0016171273309737444
1772462555290968800,8.98696875,0.0021551144309341908,0.0003358856774866581,0.0006487423088401556
1772462555301016800,8.997016845703126,-0.0013810312375426292,-0.0009727915748953819,-0.0017366510583087802
1772462555311065900,9.00706591796875,-0.00020910799503326416,-0.0009678918868303299,0.002794708590954542
1772462555321113900,9.01711376953125,0.00010354723781347275,0.00014477688819169998,0.00009612739086151123
1772462555331163000,9.027162841796875,0.003251349553465843,0.0034427400678396225,0.0012502912431955338
1772462555341211000,9.0372109375,0.0009802053682506084,-0.0021427073515951633,0.0031685661524534225
1772462555351260000,9.047260009765624,0.0018370174802839756,-0.000046984292566776276,-0.0003894877154380083
1772462555361308000,9.057307861328125,-0.0007752776145935059,0.0010377210564911366,-0.0018054903484880924
1772462555371356000,9.06735595703125,-0.0025111129507422447,0.0004954286850988865,0.001280259108170867
1772462555381405000,9.077405029296875,-0.0015872623771429062,0.0005241916514933109,0.00013723038136959076
1772462555391453000,9.087452880859376,0.0006724516861140728,-0.00006592739373445511,0.002331413794308901
1772462555401502000,9.097501953125,-0.00004047621041536331,0.0002264874055981636,-0.000983156613074243
1772462555411549700,9.1075498046875,0.0011182208545506,0.0004511810839176178,-1.641456037759781e-7
1772462555421599000,9.117598876953124,-0.00017767306417226791,-0.002071897964924574,0.0013492596335709095
1772462555431646700,9.127646728515625,0.0004897890612483025,0.0023375670425593853,-0.0008092805510386825
1772462555441696000,9.137696044921874,0.001657318789511919,-0.0007389169186353683,-0.001538986572995782
1772462555451743700,9.14774365234375,0.0001843757927417755,0.0018758983351290226,-0.0026496120262891054
1772462555461792000,9.1577919921875,-0.0015322975814342499,0.0011206264607608318,-0.0005166862392798066
1772462555471840800,9.1678408203125,-0.000850028358399868,0.0004424573853611946,0.0002823718823492527
1772462555481889000,9.177888916015625,-0.0006268555298447609,-0.00022892560809850693,0.0012392457574605942
1772462555491937800,9.187937744140624,-0.00024924054741859436,0.0008089109323918819,0.0008675868157297373
1772462555501986000,9.197986083984375,-0.0002588275820016861,0.0022257124073803425,-0.0014451021561399102
1772462555512034800,9.208034912109374,-0.00022451486438512802,0.0002553611993789673,0.00332884443923831
1772462555522082800,9.218082763671875,0.0027534314431250095,-0.0015254942700266838,0.00035196286626160145
1772462555532131000,9.228131103515626,0.00004732143133878708,-0.0005724900402128696,0.0007456033490598202
1772462555542179800,9.238179931640625,0.0023472276516258717,-0.0007019196636974812,0.0001333428081125021
1772462555552228000,9.24822802734375,0.0010408246889710426,-0.0004907199181616306,-0.00012341397814452648
1772462555562276900,9.25827685546875,-0.00007477402687072754,0.0014355448074638844,-0.00282891932874918
1772462555572324900,9.268324951171875,0.00016758497804403305,0.0003217351622879505,-0.0010696050012484193
1772462555582374000,9.278373779296874,-0.0006422828882932663,-0.0009390055201947689,-0.0013787980424240232
1772462555592422000,9.288421875,0.0013520228676497936,0.0004607886075973511,-0.0013305782340466976
1772462555602470000,9.298469970703126,0.0010132687166333199,-0.0006569400429725647,-0.0013004845241084695
1772462555612519000,9.308518798828125,-0.0002301754429936409,-0.001749084796756506,0.0013843104243278503
1772462555622567000,9.31856689453125,-0.000027509406208992004,-0.0015101991593837738,-0.0016745964530855417
1772462555632615700,9.32861572265625,0.0011959504336118698,-0.0008659744635224342,0.0011043569538742304
1772462555642664000,9.338663818359375,-0.001324199140071869,0.00007971376180648804,0.0003386980388313532
1772462555652712700,9.348712646484374,0.0009714835323393345,-0.0009228992275893688,0.0009571253322064877
1772462555662761000,9.358760986328125,-0.0005049733445048332,0.002628160174936056,0.0013398213777691126
1772462555672809700,9.368809814453124,-0.001978650689125061,0.0007151709869503975,0.0021305312402546406
1772462555682858000,9.37885791015625,0.0000815708190202713,0.0016904203221201897,-0.0013496876927092671
1772462555692906000,9.388906005859376,-0.00008576828986406326,-0.0005019828677177429,0.00031249457970261574
1772462555702955000,9.398955078125,-0.0011020312085747719,-0.00042102253064513206,0.0009122383780777454
1772462555713003000,9.4090029296875,-0.00031937845051288605,-0.002332031726837158,-0.002506461227312684
1772462555723052000,9.419052001953125,0.000073971226811409,3.650784492492676e-7,-0.0017876741476356983
1772462555733100000,9.42910009765625,0.0005769850686192513,-0.003331627231091261,-0.000895246397703886
1772462555743148800,9.439148681640624,-0.0013623284175992012,-0.0007020221091806889,-0.003795961383730173
1772462555753197000,9.449197021484375,0.00033571571111679077,-0.0007372787222266197,-0.0006942063337191939
1772462555763245800,9.459245849609376,0.00031813886016607285,-0.0024435659870505333,0.0003345727454870939
