time,seconds_elapsed,z,y,x
1772537107210826800,0.08282666015625,0.36805567145347595,-0.13627485930919647,-0.1767866164445877
1772537107220874500,0.09287451171875,0.4018261432647705,-0.23179206252098083,-0.17683136463165283
1772537107230923800,0.102923828125,0.3859873116016388,-0.22336532175540924,-0.1907842606306076
1772537107240971500,0.112971435546875,0.3429871201515198,-0.16041432321071625,-0.15591122210025787
1772537107251019800,0.123019775390625,0.2783961892127991,-0.14611192047595978,-0.05726225674152374
1772537107261068500,0.133068603515625,0.1935039609670639,-0.08277688920497894,0.08409301191568375
1772537107271116800,0.14311669921875,0.12885303795337677,0.09110703319311142,0.24916906654834747
1772537107281164500,0.15316455078125,0.06358828395605087,0.23571641743183136,0.3573642671108246
1772537107291213800,0.1632138671875,-0.031600531190633774,0.16141220927238464,0.4284292161464691
1772537107301261600,0.173261474609375,-0.07487823069095612,-0.20817303657531738,0.48619717359542847
1772537107311309600,0.1833095703125,-0.1788041591644287,-0.5358052849769592,0.5519990921020508
1772537107321358600,0.193358642578125,-0.2507116496562958,-0.717093825340271,0.590021550655365
1772537107331406600,0.203406494140625,-0.16904973983764648,-0.6690970659255981,0.6228065490722656
1772537107341454800,0.213454833984375,0.04946316033601761,-0.48041826486587524,0.6433643102645874
1772537107351503600,0.223503662109375,0.2764199674129486,-0.3952416181564331,0.6044190526008606
1772537107361552000,0.2335517578125,0.12781637907028198,-0.5582475662231445,0.6211985349655151
1772537107371599600,0.243599609375,0.056019850075244904,-0.9382827877998352,0.4752773344516754
1772537107381648600,0.253648681640625,-0.046931035816669464,-0.854992151260376,0.2652719020843506
1772537107391696600,0.263696533203125,-0.21903523802757263,-0.49445435404777527,0.005846015177667141
1772537107401745700,0.27374560546875,-0.26420432329177856,-0.6786300539970398,-0.31822603940963745
1772537107411793700,0.283793701171875,-0.14640796184539795,-0.7881091237068176,-0.532674252986908
1772537107421841700,0.293841552734375,0.12960392236709595,-0.2762216329574585,-0.6854429841041565
1772537107431890700,0.303890625,0.3848118484020233,-0.02547484263777733,-0.6302902102470398
1772537107441938700,0.313938720703125,0.5445094108581543,0.09312291443347931,-0.43267887830734253
1772537107451986400,0.323986328125,0.6662286520004272,0.21058589220046997,-0.2818851172924042
1772537107462035700,0.33403564453125,0.8136016130447388,0.3696170747280121,-0.25815901160240173
1772537107472083500,0.34408349609375,0.8555617928504944,0.4188705384731293,-0.3848286271095276
1772537107482131700,0.354131591796875,0.72760009765625,0.46499142050743103,-0.6163409352302551
1772537107492180500,0.364180419921875,0.4331660568714142,0.4205642640590668,-0.8988634943962097
1772537107502228700,0.374228759765625,0.06478112936019897,0.2971515357494354,-1.1129188537597656
1772537107512276700,0.38427685546875,-0.21869425475597382,0.1846887767314911,-1.1760926246643066
1772537107522325800,0.39432568359375,-0.40647637844085693,0.11190084367990494,-1.1409721374511719
1772537107532373800,0.404373779296875,-0.5604236125946045,0.021544039249420166,-0.9548127055168152
1772537107542422500,0.414422607421875,-0.6941172480583191,-0.1838541179895401,-0.7189988493919373
1772537107552470800,0.424470703125,-0.7796145677566528,-0.34307849407196045,-0.40595734119415283
1772537107562518500,0.4345185546875,-0.8009377121925354,-0.4394835829734802,-0.0748731791973114
1772537107572567800,0.44456787109375,-0.7460752129554749,-0.4619954526424408,0.19747135043144226
1772537107582615600,0.454615478515625,-0.5605615377426147,-0.4583413302898407,0.38983121514320374
1772537107592663800,0.464663818359375,-0.3342793583869934,-0.4622994363307953,0.5057457089424133
1772537107602712600,0.474712646484375,-0.08683202415704727,-0.38130950927734375,0.5277508497238159
1772537107612760600,0.484760498046875,0.12966178357601166,-0.2562911808490753,0.4520760774612427
1772537107622808600,0.49480859375,0.24914848804473877,-0.1423395723104477,0.30222025513648987
1772537107632857600,0.504857666015625,0.3464045226573944,-0.08555760979652405,0.15540811419487
1772537107642905600,0.514905517578125,0.4836409389972687,-0.059646911919116974,0.06460922956466675
1772537107652953600,0.52495361328125,0.6257558465003967,-0.05601394921541214,0.03255368769168854
1772537107663002600,0.535002685546875,0.7168402075767517,-0.011325040832161903,0.05278199538588524
1772537107673050600,0.545050537109375,0.7605675458908081,0.10141809284687042,0.08808919042348862
1772537107683098600,0.5550986328125,0.7818845510482788,0.41293469071388245,0.08610140532255173
1772537107693147600,0.565147705078125,0.6901317238807678,0.8153132200241089,-0.035377174615859985
1772537107703195600,0.575195556640625,0.5167425870895386,1.1326661109924316,-0.11955596506595612
1772537107713244700,0.58524462890625,0.35648927092552185,1.090777039527893,-0.07500339299440384
1772537107723292700,0.595292724609375,0.16429667174816132,0.6839181780815125,0.049879953265190125
1772537107733340700,0.605340576171875,0.0006394702941179276,0.17389024794101715,0.2635023891925812
1772537107743389700,0.6153896484375,-0.09323535859584808,-0.1250772774219513,0.45078253746032715
1772537107753437700,0.625437744140625,-0.12057720869779587,-0.10444686561822891,0.5528910160064697
1772537107763485700,0.635485595703125,-0.06807511299848557,0.05176617205142975,0.5940507054328918
1772537107773534500,0.645534423828125,0.03074292466044426,0.12499705702066422,0.5318638682365417
1772537107783582700,0.655582763671875,0.12117668241262436,0.07929988205432892,0.3597754240036011
1772537107793630700,0.665630615234375,0.19488342106342316,-0.04362531751394272,0.11147530376911163
1772537107803679700,0.6756796875,0.2518199682235718,-0.10755184292793274,-0.16004887223243713
1772537107813727700,0.685727783203125,0.30667081475257874,-0.05222699046134949,-0.391103595495224
1772537107823775700,0.695775634765625,0.34022238850593567,0.08951416611671448,-0.48084065318107605
1772537107833824500,0.705824462890625,0.34830644726753235,0.26461708545684814,-0.38511544466018677
1772537107843872500,0.71587255859375,0.2980557978153229,0.3858968913555145,-0.20347800850868225
1772537107853920800,0.725920654296875,0.1986013650894165,0.39361289143562317,-0.009396654553711414
1772537107863969500,0.735969482421875,0.06152341514825821,0.24102868139743805,0.17922893166542053
1772537107874017800,0.746017822265625,-0.13052481412887573,0.0864519402384758,0.3387241065502167
1772537107884066600,0.756066650390625,-0.3189131021499634,-0.031343936920166016,0.4432406723499298
1772537107894114800,0.76611474609375,-0.47189247608184814,-0.19201001524925232,0.48435431718826294
1772537107904162600,0.77616259765625,-0.5551884174346924,-0.37193527817726135,0.39448702335357666
1772537107914211800,0.7862119140625,-0.492631196975708,-0.5041091442108154,0.19914376735687256
1772537107924259600,0.796259521484375,-0.2684106230735779,-0.4952877163887024,-0.05129058286547661
1772537107934307600,0.8063076171875,-0.07281611859798431,-0.34819597005844116,-0.39261993765830994
1772537107944356600,0.816356689453125,-0.0588289238512516,0.000203015748411417,-0.873833179473877
1772537107954404600,0.826404541015625,-0.10603391379117966,0.2924547493457794,-1.1470626592636108
1772537107964452900,0.836452880859375,-0.22509266436100006,0.25944194197654724,-1.1280040740966797
1772537107974501600,0.846501708984375,-0.3494676649570465,-0.11035948246717453,-0.867089033126831
1772537107984550000,0.8565498046875,-0.3414137363433838,-0.6119499206542969,-0.5373385548591614
1772537107994597600,0.86659765625,-0.2756221890449524,-0.8409243226051331,-0.3612440228462219
1772537108004646700,0.876646728515625,-0.32412368059158325,-0.7630497813224792,-0.49946582317352295
1772537108014694700,0.886694580078125,-0.38932135701179504,-0.6397258043289185,-0.8630028367042542
1772537108024743700,0.89674365234375,-0.335528165102005,-0.5380686521530151,-1.2394726276397705
1772537108034791700,0.906791748046875,-0.2035815715789795,-0.4016585350036621,-1.4527310132980347
1772537108044839700,0.916839599609375,-0.07581828534603119,-0.1267252415418625,-1.4431703090667725
1772537108054888700,0.926888671875,-0.05222076177597046,0.08701624721288681,-1.3343170881271362
1772537108064936700,0.936936767578125,-0.14466813206672668,0.202846959233284,-1.2034224271774292
1772537108074984400,0.946984375,-0.23189683258533478,0.18287362158298492,-1.0538123846054077
1772537108085033700,0.95703369140625,-0.2863912284374237,0.048506222665309906,-0.8827809691429138
1772537108095081500,0.96708154296875,-0.33077821135520935,-0.08584281802177429,-0.6568831205368042
1772537108105129700,0.977129638671875,-0.3781129717826843,-0.17653436958789825,-0.3684207499027252
1772537108115178500,0.987178466796875,-0.41155633330345154,-0.18122364580631256,-0.017227301374077797
1772537108125226500,0.9972265625,-0.3897213339805603,-0.23303118348121643,0.3798907697200775
1772537108135274800,1.007274658203125,-0.294424831867218,-0.3050538897514343,0.7652547955513
1772537108145323500,1.017323486328125,-0.1908174753189087,-0.3146609663963318,1.1246055364608765
1772537108155371800,1.027371826171875,-0.11593165248632431,-0.3547467589378357,1.459792971611023
1772537108165419500,1.03741943359375,-0.08684168010950089,-0.4132026135921478,1.7505578994750977
1772537108175468800,1.04746875,-0.09980924427509308,-0.39467114210128784,1.9640756845474243
1772537108185516500,1.0575166015625,-0.11087441444396973,-0.21886123716831207,1.9962029457092285
1772537108195565800,1.06756591796875,-0.024528007954359055,0.16101104021072388,1.787760615348816
1772537108205613600,1.077613525390625,0.19373348355293274,0.5251516699790955,1.496290683746338
1772537108215661600,1.08766162109375,0.41824427247047424,0.684714138507843,1.2564010620117188
1772537108225710600,1.097710693359375,0.5029293298721313,0.6451712846755981,1.0891380310058594
1772537108235758600,1.107758544921875,0.4554709792137146,0.6065533757209778,1.0369385480880737
1772537108245806600,1.117806640625,0.3213001489639282,0.6061328649520874,1.0798503160476685
1772537108255855600,1.127855712890625,0.1073075383901596,0.6155228614807129,1.1234736442565918
1772537108265903600,1.137903564453125,-0.07439408451318741,0.5612164735794067,1.1496338844299316
1772537108275951600,1.14795166015625,-0.1689913272857666,0.3699047863483429,1.144058346748352
1772537108286000400,1.15800048828125,-0.16455742716789246,0.08228128403425217,1.1439826488494873
1772537108296048600,1.168048583984375,-0.08191508054733276,-0.14127060770988464,1.0928899049758911
1772537108306096600,1.1780966796875,0.029209310188889503,-0.12288042157888412,0.9394339919090271
1772537108316145700,1.188145751953125,0.10792897641658783,0.05842200666666031,0.7268195152282715
1772537108326193700,1.198193603515625,0.14489683508872986,0.22839081287384033,0.5280818939208984
1772537108336241700,1.20824169921875,0.16590796411037445,0.21924975514411926,0.44717922806739807
1772537108346290700,1.218290771484375,0.12960800528526306,-0.053258735686540604,0.425663560628891
1772537108356338400,1.22833837890625,0.04573400691151619,-0.33187761902809143,0.4088411331176758
1772537108366387700,1.2383876953125,-0.06523432582616806,-0.3468954563140869,0.43986430764198303
1772537108376435500,1.248435546875,-0.19831368327140808,-0.16511772572994232,0.5541428923606873
1772537108386483700,1.258483642578125,-0.33986708521842957,-0.018154380843043327,0.701194167137146
1772537108396532500,1.268532470703125,-0.5748313665390015,-0.02534417435526848,0.7920563817024231
1772537108406580700,1.278580810546875,-0.8167590498924255,-0.27042022347450256,0.848552405834198
1772537108416628500,1.28862841796875,-0.9168798327445984,-0.6718749403953552,0.8167588114738464
1772537108426677800,1.298677734375,-0.7977316379547119,-0.8648958206176758,0.6905156373977661
1772537108436725500,1.3087255859375,-0.5532960295677185,-0.8678354620933533,0.7572112679481506
1772537108446773500,1.3187734375,-0.255349338054657,-0.485004723072052,0.6175791025161743
1772537108456822500,1.328822509765625,-0.08027160167694092,0.025665733963251114,0.42738568782806396
1772537108466870500,1.33887060546875,-0.09561433643102646,0.34292280673980713,0.20003962516784668
1772537108476918800,1.348918701171875,-0.25181764364242554,0.5053803324699402,0.0725838840007782
1772537108486967600,1.358967529296875,-0.35158684849739075,0.1532001942396164,0.020270612090826035
1772537108497015800,1.369015869140625,-0.1651209443807602,-0.39733514189720154,-0.11425178498029709
1772537108507063600,1.3790634765625,0.1682754009962082,-0.6735134720802307,-0.4817142188549042
1772537108517112600,1.389112548828125,0.342034250497818,-0.4354499280452728,-0.9795303344726562
1772537108527160600,1.39916064453125,0.3224850594997406,-0.025606760755181313,-1.3624070882797241
1772537108537209600,1.409209716796875,0.18683971464633942,0.24277503788471222,-1.4311604499816895
1772537108547257600,1.419257568359375,0.0015004859305918217,0.1395474374294281,-1.208032250404358
1772537108557305600,1.4293056640625,-0.12640435993671417,-0.13394300639629364,-0.8700985908508301
1772537108567354600,1.439354736328125,-0.15588396787643433,-0.10503679513931274,-0.638340175151825
1772537108577402600,1.449402587890625,-0.11869800835847855,0.14287133514881134,-0.40427544713020325
1772537108587450600,1.45945068359375,-0.09917783737182617,0.30751168727874756,-0.15334734320640564
1772537108597499600,1.469499755859375,-0.032358475029468536,0.43885552883148193,0.07001302391290665
1772537108607547600,1.479547607421875,0.08392472565174103,0.43702036142349243,0.25239241123199463
1772537108617595600,1.489595703125,0.1733545958995819,0.30648866295814514,0.3095073103904724
1772537108627644400,1.49964453125,0.2010141909122467,0.11959891766309738,0.25852668285369873
1772537108637692700,1.509692626953125,0.2019910365343094,-0.012064831331372261,0.24349632859230042
1772537108647740700,1.51974072265625,0.15215663611888885,-0.0746840089559555,0.34472253918647766
1772537108657789700,1.529789794921875,0.09033335000276566,-0.13002055883407593,0.6284818053245544
1772537108667837700,1.539837646484375,0.07316873967647552,-0.23953744769096375,0.9777385592460632
1772537108677885400,1.549885498046875,0.09086733311414719,-0.36018800735473633,1.2644197940826416
1772537108687934700,1.559934814453125,0.10090558975934982,-0.4473458230495453,1.3797403573989868
1772537108697982500,1.569982421875,0.06707289814949036,-0.36450517177581787,1.334875464439392
1772537108708031700,1.58003173828125,-0.013618222437798977,-0.10859294980764389,1.1981679201126099
1772537108718079500,1.59007958984375,-0.14644882082939148,0.2054642289876938,1.046064853668213
1772537108728127700,1.600127685546875,-0.2830927073955536,0.42316296696662903,0.9189490079879761
1772537108738176500,1.610176513671875,-0.3868768513202667,0.476248174905777,0.809386134147644
1772537108748224500,1.620224609375,-0.4359282851219177,0.43236327171325684,0.6631125211715698
1772537108758272800,1.630272705078125,-0.4384121894836426,0.40756264328956604,0.4554097652435303
1772537108768321500,1.640321533203125,-0.38600197434425354,0.3374179005622864,0.21215581893920898
1772537108778369800,1.650369873046875,-0.2743105888366699,0.23123982548713684,-0.025013022124767303
1772537108788417500,1.66041748046875,-0.13590025901794434,0.13432367146015167,-0.22115883231163025
1772537108798466600,1.670466552734375,-0.029816947877407074,0.08585610240697861,-0.3911808133125305
1772537108808514600,1.6805146484375,0.039066508412361145,0.14176969230175018,-0.49009275436401367
1772537108818562600,1.6905625,0.09848862886428833,0.17214268445968628,-0.5490174293518066
1772537108828611600,1.700611572265625,0.10139520466327667,0.07821618765592575,-0.5792959928512573
1772537108838659600,1.71065966796875,0.05661514401435852,-0.025359632447361946,-0.5442997813224792
1772537108848707600,1.72070751953125,-0.020245283842086792,-0.0969664454460144,-0.43124833703041077
1772537108858756600,1.730756591796875,-0.10363853722810745,-0.2083190679550171,-0.23428091406822205
1772537108868804600,1.7408046875,-0.18111228942871094,-0.3753086030483246,-0.005691678263247013
1772537108878853600,1.750853515625,-0.24512901902198792,-0.5031980872154236,0.26135069131851196
1772537108888901600,1.760901611328125,-0.3099934756755829,-0.5040103197097778,0.44390878081321716
1772537108898949600,1.77094970703125,-0.4241330027580261,-0.3950166702270508,0.39530324935913086
1772537108908998700,1.78099853515625,-0.5730034112930298,-0.43995004892349243,0.07549916207790375
1772537108919046700,1.791046630859375,-0.6747633218765259,-0.5859857201576233,-0.3451220393180847
1772537108929094700,1.8010947265625,-0.6570215821266174,-0.6274178624153137,-0.6666572093963623
1772537108939143700,1.811143798828125,-0.5629051327705383,-0.33258774876594543,-0.7262908816337585
1772537108949191700,1.821191650390625,-0.5869430899620056,-0.012914681807160378,-0.522658109664917
1772537108959239700,1.83123974609375,-0.5202715396881104,-0.02756524085998535,-0.23671531677246094
1772537108969288700,1.841288818359375,-0.28785720467567444,-0.2904730439186096,-0.1627100706100464
1772537108979336400,1.85133642578125,-0.022556453943252563,-0.4128272235393524,-0.4208015501499176
1772537108989384700,1.861384765625,0.04359620064496994,-0.3802594244480133,-0.9219501614570618
1772537108999433500,1.87143359375,0.0059331804513931274,-0.2134489119052887,-1.4036779403686523
1772537109009481700,1.881481689453125,0.04945269227027893,-0.11649066209793091,-1.6220464706420898
1772537109019529500,1.891529541015625,0.20633754134178162,-0.15474411845207214,-1.6987591981887817
1772537109029578800,1.901578857421875,0.4157631993293762,-0.19187258183956146,-1.6817083358764648
1772537109039626500,1.91162646484375,0.5482082366943359,-0.15651115775108337,-1.6081831455230713
1772537109049675300,1.92167529296875,0.5314476490020752,0.0361270010471344,-1.4284355640411377
1772537109059723300,1.93172314453125,0.43758925795555115,0.1402955800294876,-1.062436819076538
1772537109069771300,1.941771240234375,0.32729870080947876,0.09959794580936432,-0.5760005712509155
1772537109079820000,1.951820068359375,0.21458181738853455,-0.021280771121382713,-0.08641720563173294
1772537109089868300,1.961868408203125,0.10037560760974884,-0.05790722370147705,0.36693933606147766
1772537109099916300,1.971916259765625,0.017965413630008698,-0.022998902946710587,0.806843101978302
1772537109109965300,1.98196533203125,-0.025839325040578842,-0.09173055738210678,1.1876405477523804
1772537109120013300,1.992013427734375,-0.06735320389270782,-0.2167687714099884,1.4631582498550415
1772537109130061000,2.00206103515625,-0.09971620887517929,-0.291772723197937,1.6243010759353638
1772537109140110300,2.0121103515625,-0.07220137864351273,-0.268154114484787,1.6871075630187988
1772537109150158000,2.022157958984375,0.016764983534812927,-0.12498044967651367,1.6334413290023804
1772537109160206300,2.032206298828125,0.12420336902141571,0.12247996032238007,1.5286047458648682
1772537109170255000,2.042255126953125,0.19537343084812164,0.3994588255882263,1.4742366075515747
1772537109180303400,2.052303466796875,0.2022983878850937,0.6650533676147461,1.496867060661316
1772537109190351400,2.062351318359375,0.12519986927509308,0.8811041712760925,1.5607653856277466
1772537109200400400,2.072400390625,-0.0010386444628238678,0.9912573099136353,1.6377979516983032
1772537109210448400,2.082448486328125,-0.12184255570173264,0.9323625564575195,1.65519380569458
1772537109220496100,2.09249609375,-0.19362379610538483,0.736603856086731,1.5755201578140259
1772537109230545400,2.10254541015625,-0.20623385906219482,0.48026156425476074,1.4182045459747314
1772537109240593200,2.11259326171875,-0.19826294481754303,0.27919015288352966,1.2184603214263916
1772537109250642200,2.12264208984375,-0.15614372491836548,0.1622728407382965,0.966166079044342
1772537109260690200,2.132690185546875,-0.08640582114458084,0.1439553201198578,0.690021812915802
1772537109270738200,2.14273828125,0.022492431104183197,0.14676494896411896,0.4159652590751648
1772537109280787200,2.152787109375,0.16389153897762299,0.0685972198843956,0.13066481053829193
1772537109290835200,2.162835205078125,0.3138352036476135,-0.09124970436096191,-0.14870691299438477
1772537109300883200,2.17288330078125,0.4005100727081299,-0.22740107774734497,-0.4234806299209595
1772537109310932200,2.18293212890625,0.3790649473667145,-0.23780152201652527,-0.6443924903869629
1772537109320980200,2.192980224609375,0.2371448576450348,-0.16730062663555145,-0.7361303567886353
1772537109331028200,2.2030283203125,0.0238360445946455,-0.05287018045783043,-0.6853832602500916
1772537109341077200,2.2130771484375,-0.17850908637046814,-0.041258927434682846,-0.6044192910194397
1772537109351125200,2.223125244140625,-0.31065645813941956,-0.1445709466934204,-0.6138308644294739
1772537109361173200,2.23317333984375,-0.38381463289260864,-0.39087390899658203,-0.7929047346115112
1772537109371222300,2.24322216796875,-0.4759882390499115,-0.5924669504165649,-1.1127142906188965
1772537109381270300,2.253270263671875,-0.5024414658546448,-0.5585885047912598,-1.3862576484680176
1772537109391319300,2.2633193359375,-0.3756486773490906,-0.36810487508773804,-1.4373043775558472
1772537109401367300,2.2733671875,-0.2784203886985779,-0.04119851812720299,-1.2090128660202026
1772537109411415300,2.283415283203125,-0.3718845546245575,0.17760013043880463,-0.7224673628807068
1772537109421464300,2.29346435546875,-0.4894554018974304,0.05499526858329773,-0.05456801503896713
1772537109431512000,2.303511962890625,-0.20838697254657745,-0.3996473550796509,0.5125747323036194
1772537109441560300,2.313560302734375,0.21517446637153625,-0.8663122057914734,0.6403520107269287
1772537109451609000,2.323609130859375,0.4301363229751587,-1.0575050115585327,0.33171263337135315
1772537109461657300,2.3336572265625,0.32821089029312134,-0.8611276745796204,-0.0983022153377533
1772537109471705000,2.343705078125,0.1515788733959198,-0.5582897663116455,-0.39491552114486694
1772537109481754400,2.35375439453125,0.08042073249816895,-0.5788739919662476,-0.5886725783348083
1772537109491802000,2.363802001953125,0.06302762776613235,-0.6872881054878235,-0.8658202886581421
1772537109501850000,2.37385009765625,0.020844101905822754,-0.4441184103488922,-1.2470245361328125
1772537109511899100,2.383899169921875,-0.05545759201049805,-0.13517256081104279,-1.5612200498580933
1772537109521947100,2.393947021484375,-0.13106167316436768,-0.051262155175209045,-1.5430043935775757
1772537109531995400,2.403995361328125,-0.20733647048473358,-0.08865133672952652,-1.0176998376846313
1772537109542044200,2.414044189453125,-0.28865864872932434,-0.20975808799266815,-0.2763326168060303
1772537109552092400,2.424092529296875,-0.3929738700389862,-0.3605012893676758,0.4196179509162903
1772537109562140200,2.43414013671875,-0.5047646164894104,-0.4665648937225342,0.9733774662017822
1772537109572189400,2.444189453125,-0.5388488173484802,-0.4750140309333801,1.3647385835647583
1772537109582237200,2.4542373046875,-0.5054500102996826,-0.35383298993110657,1.5848504304885864
1772537109592286500,2.464286376953125,-0.4297946095466614,-0.07640616595745087,1.657362699508667
1772537109602334200,2.474334228515625,-0.298293799161911,0.2532113492488861,1.6366615295410156
1772537109612382200,2.48438232421875,-0.12214995175600052,0.48602354526519775,1.5446966886520386
1772537109622431200,2.49443115234375,0.06020007282495499,0.5541812777519226,1.355954647064209
1772537109632479200,2.504479248046875,0.22855207324028015,0.5986185669898987,1.0829130411148071
1772537109642527200,2.51452734375,0.33400893211364746,0.6492658853530884,0.7688130140304565
1772537109652576300,2.524576171875,0.31980016827583313,0.5868909358978271,0.4644536077976227
1772537109662624000,2.5346240234375,0.20048418641090393,0.4797130525112152,0.23087634146213531
1772537109672672300,2.54467236328125,0.042241550981998444,0.4530966281890869,0.10444064438343048
1772537109682721000,2.554720947265625,-0.05681122466921806,0.46623826026916504,0.06736618280410767
1772537109692769300,2.564769287109375,-0.03580740466713905,0.4052569270133972,0.04339746758341789
1772537109702817300,2.5748173828125,0.05555333197116852,0.2874159812927246,-0.022827664390206337
1772537109712866300,2.5848662109375,0.14561717212200165,0.18898369371891022,-0.14707638323307037
1772537109722914300,2.594914306640625,0.20782090723514557,0.1343328207731247,-0.31073471903800964
1772537109732962000,2.604962158203125,0.23315022885799408,0.07654062658548355,-0.461416095495224
1772537109743011300,2.61501123046875,0.19763638079166412,0.03765058144927025,-0.6038000583648682
1772537109753059000,2.62505908203125,0.08438333123922348,0.019719252362847328,-0.7232308387756348
1772537109763107300,2.635107421875,-0.07131339609622955,0.04991108179092407,-0.783310055732727
1772537109773156000,2.645156005859375,-0.20776525139808655,0.1717006415128708,-0.7497353553771973
1772537109783204400,2.655204345703125,-0.3115021586418152,0.38573867082595825,-0.574116051197052
1772537109793253000,2.665253173828125,-0.3810114562511444,0.5342671871185303,-0.28271347284317017
1772537109803301400,2.67530126953125,-0.44059327244758606,0.4407922327518463,0.01309435348957777
1772537109813349000,2.68534912109375,-0.5135287642478943,0.07450743764638901,0.20027968287467957
1772537109823398400,2.6953984375,-0.6251170635223389,-0.3546152710914612,0.15415525436401367
1772537109833446100,2.705446044921875,-0.714022696018219,-0.700716495513916,-0.14900648593902588
1772537109843494100,2.715494140625,-0.6491471529006958,-0.9580253958702087,-0.6043844819068909
1772537109853543200,2.725543212890625,-0.39489540457725525,-0.8916085362434387,-0.9975411295890808
1772537109863591200,2.735591064453125,-0.03228949010372162,-0.40638479590415955,-1.0539910793304443
1772537109873639400,2.745639404296875,0.27145811915397644,0.1563616544008255,-0.8900430798530579
1772537109883688200,2.755688232421875,0.23342153429985046,0.38456273078918457,-0.7428423166275024
1772537109893736200,2.765736083984375,0.10576371103525162,0.23942579329013824,-0.8314632773399353
1772537109903784200,2.7757841796875,0.12605959177017212,-0.221795916557312,-0.9617393016815186
1772537109913833200,2.785833251953125,0.23568809032440186,-0.6567175984382629,-1.2175228595733643
1772537109923881200,2.795881103515625,0.5192087888717651,-0.7380740642547607,-1.6352804899215698
1772537109933929200,2.80592919921875,0.9376449584960938,-0.7564802169799805,-2.1726746559143066
1772537109943978200,2.815978271484375,1.1557637453079224,-0.8216143250465393,-2.6568405628204346
1772537109954026200,2.826026123046875,1.0358363389968872,-0.6522992849349976,-3.01196551322937
1772537109964075300,2.8360751953125,0.8540769815444946,-0.14828020334243774,-2.95025897026062
1772537109974123300,2.846123291015625,0.7578257918357849,0.3893837630748749,-2.447237491607666
1772537109984171300,2.856171142578125,0.6941014528274536,0.7784250378608704,-1.7090116739273071
1772537109994220300,2.86622021484375,0.6249804496765137,0.9656878709793091,-0.8109148740768433
1772537110004268300,2.876268310546875,0.5083672404289246,0.9621978998184204,0.04550322890281677
1772537110014316300,2.88631640625,0.3357200622558594,0.7914352416992188,0.6606386303901672
1772537110024365300,2.896365234375,0.1277456432580948,0.5458678603172302,1.0553581714630127
1772537110034413300,2.906413330078125,-0.04343275725841522,0.3010932505130768,1.313350796699524
1772537110044462300,2.91646240234375,-0.10109570622444153,0.19399809837341309,1.5217534303665161
1772537110054511400,2.926511474609375,-0.055402517318725586,0.2635310888290405,1.7121752500534058
1772537110064559400,2.936559326171875,0.036283787339925766,0.40460944175720215,1.8659963607788086
1772537110074607400,2.946607421875,0.12241335213184357,0.587235152721405,2.0006887912750244
1772537110084656400,2.956656494140625,0.16777969896793365,0.760128378868103,2.1038031578063965
1772537110094704400,2.966704345703125,0.13912701606750488,0.8792246580123901,2.1430492401123047
1772537110104752400,2.97675244140625,0.02909935638308525,0.9220718145370483,2.1094536781311035
1772537110114801400,2.986801513671875,-0.1176578626036644,0.8337744474411011,2.0051136016845703
1772537110124849400,2.996849365234375,-0.25131553411483765,0.6153056025505066,1.859113335609436
1772537110134897400,3.0068974609375,-0.35098060965538025,0.37620219588279724,1.6879093647003174
1772537110144946400,3.016946533203125,-0.46586552262306213,0.20691102743148804,1.544817566871643
1772537110154994200,3.026994140625,-0.5563222169876099,0.09527184814214706,1.4309122562408447
1772537110165043500,3.03704345703125,-0.5279176831245422,0.18739384412765503,1.328145980834961
1772537110175091200,3.04709130859375,-0.35464364290237427,0.21443559229373932,1.1527316570281982
1772537110185139500,3.057139404296875,-0.14839547872543335,0.1952582746744156,0.9336643815040588
1772537110195188200,3.067188232421875,0.028538018465042114,0.16328223049640656,0.6653410792350769
1772537110205236500,3.077236572265625,0.07549417018890381,0.05673009529709816,0.31921276450157166
1772537110215284200,3.0872841796875,-0.021406807005405426,-0.16275832056999207,-0.10509137064218521
1772537110225333500,3.09733349609375,-0.23758596181869507,-0.5125511884689331,-0.5419683456420898
1772537110235381200,3.10738134765625,-0.45639073848724365,-0.8128098249435425,-0.9194149374961853
1772537110245429200,3.11742919921875,-0.32976222038269043,-0.49465107917785645,-0.8703065514564514
1772537110255478300,3.127478271484375,-0.04426495358347893,-0.31677669286727905,-0.8088666200637817
1772537110265526300,3.1375263671875,-0.0462360605597496,-0.1307816356420517,-0.8719785809516907
1772537110275574500,3.147574462890625,0.014999866485595703,-0.19501575827598572,-1.0629501342773438
1772537110285623300,3.157623291015625,0.1005149558186531,-0.043474189937114716,-1.1889432668685913
1772537110295671600,3.167671630859375,0.17209593951702118,0.1562865972518921,-1.136278748512268
1772537110305719300,3.17771923828125,0.1806756556034088,0.2606174051761627,-0.8152643442153931
1772537110315768300,3.187768310546875,0.07698201388120651,0.12972143292427063,-0.2504104971885681
1772537110325816300,3.19781640625,-0.0387079194188118,-0.22579191625118256,0.4464133381843567
1772537110335864300,3.2078642578125,-0.12209176272153854,-0.6296714544296265,0.9381479024887085
1772537110345913300,3.217913330078125,-0.14339996874332428,-0.8201438784599304,0.9158526062965393
1772537110355961300,3.22796142578125,-0.12656240165233612,-0.5919610261917114,0.4418138861656189
1772537110366010400,3.23801025390625,-0.06388384103775024,-0.16026978194713593,-0.16079260408878326
1772537110376058400,3.248058349609375,0.08879731595516205,0.0709511861205101,-0.6346040964126587
1772537110386106400,3.2581064453125,0.22925543785095215,0.10427841544151306,-0.9686107039451599
1772537110396155400,3.2681552734375,0.2948080897331238,0.06544126570224762,-1.1688103675842285
1772537110406203400,3.278203369140625,0.31492918729782104,0.10813355445861816,-1.187997579574585
1772537110416251400,3.28825146484375,0.2980841398239136,0.2840963304042816,-1.0920367240905762
1772537110426300200,3.298300048828125,0.2830626666545868,0.42321455478668213,-0.8607463240623474
1772537110436348400,3.308348388671875,0.3004927933216095,0.41673535108566284,-0.6160457730293274
1772537110446396400,3.318396484375,0.33127638697624207,0.2949003577232361,-0.40334799885749817
1772537110456445400,3.328445556640625,0.3601977825164795,0.12824000418186188,-0.28752657771110535
1772537110466493400,3.338493408203125,0.353543758392334,-0.016067204996943474,-0.3670647144317627
1772537110476541200,3.348541259765625,0.33924898505210876,-0.029774494469165802,-0.573422908782959
1772537110486590500,3.358590576171875,0.3543145954608917,0.06554609537124634,-0.7522822022438049
1772537110496638200,3.36863818359375,0.4218369126319885,0.24630336463451385,-0.8423130512237549
1772537110506686500,3.3786865234375,0.4951634109020233,0.4557254910469055,-0.8238936066627502
1772537110516735200,3.3887353515625,0.5280576944351196,0.5822913646697998,-0.7245654463768005
1772537110526783500,3.398783447265625,0.5275855660438538,0.5387181043624878,-0.5479368567466736
1772537110536831500,3.40883154296875,0.4929479658603668,0.36183497309684753,-0.300028532743454
1772537110546880300,3.41888037109375,0.4431535303592682,0.17493164539337158,0.03653804212808609
1772537110556928500,3.428928466796875,0.38080358505249023,0.12926296889781952,0.4504542350769043
1772537110566977300,3.438977294921875,0.29525455832481384,0.14543244242668152,0.8824270963668823
1772537110577025500,3.449025634765625,0.1798483282327652,0.18956555426120758,1.2426923513412476
1772537110587073300,3.4590732421875,0.050272222608327866,0.23736317455768585,1.4863255023956299
1772537110597122300,3.469122314453125,-0.057206831872463226,0.2812557816505432,1.6275795698165894
1772537110607170300,3.47917041015625,-0.1458107829093933,0.34439557790756226,1.668548822402954
1772537110617218300,3.48921826171875,-0.19488884508609772,0.3938864469528198,1.6340755224227905
1772537110627267300,3.499267333984375,-0.18517151474952698,0.4124595522880554,1.5473487377166748
1772537110637315300,3.5093154296875,-0.11229915916919708,0.31691280007362366,1.4083690643310547
1772537110647363300,3.51936328125,-0.04089454934000969,0.13896553218364716,1.2549116611480713
1772537110657412400,3.529412353515625,0.007942764088511467,-0.08188961446285248,1.1127904653549194
1772537110667460400,3.53946044921875,0.023190220817923546,-0.2432294636964798,0.9736249446868896
1772537110677508400,3.54950830078125,0.035817600786685944,-0.3521474301815033,0.8405020236968994
1772537110687557400,3.559557373046875,0.044759854674339294,-0.3845556974411011,0.7041258811950684
1772537110697605400,3.56960546875,0.01233746949583292,-0.3466232120990753,0.6005545258522034
1772537110707653400,3.5796533203125,-0.08294978737831116,-0.29209381341934204,0.5265878438949585
1772537110717702400,3.589702392578125,-0.22100034356117249,-0.27128735184669495,0.4523911774158478
1772537110727750400,3.59975048828125,-0.39168012142181396,-0.28269070386886597,0.3535602390766144
1772537110737798400,3.60979833984375,-0.5134233236312866,-0.334018349647522,0.22664572298526764
1772537110747847400,3.619847412109375,-0.49399250745773315,-0.5337061285972595,-0.023359540849924088
1772537110757895400,3.6298955078125,-0.35780057311058044,-0.7792741060256958,-0.3873901963233948
1772537110767944400,3.6399443359375,-0.18541651964187622,-1.0388075113296509,-0.6534640192985535
1772537110777992200,3.6499921875,-0.10563167929649353,-1.0811504125595093,-0.9265555143356323
1772537110788040400,3.66004052734375,-0.14205093681812286,-0.7808584570884705,-1.0945861339569092
1772537110798089200,3.670089111328125,-0.23004870116710663,-0.4729869067668915,-0.9811037182807922
1772537110808137500,3.680137451171875,-0.32862141728401184,-0.397627055644989,-0.6413188576698303
1772537110818185200,3.690185302734375,-0.3281013071537018,-0.5224927663803101,-0.3652619421482086
1772537110828234500,3.700234375,-0.20015034079551697,-0.6210983395576477,-0.5381709933280945
1772537110838282200,3.7102822265625,-0.017356034368276596,-0.46253907680511475,-1.1507694721221924
1772537110848330200,3.720330322265625,0.1192493885755539,-0.10486999899148941,-1.7873769998550415
1772537110858379300,3.730379150390625,0.17708951234817505,0.0652812197804451,-2.1343047618865967
1772537110868427300,3.74042724609375,0.1442606896162033,0.10299615561962128,-2.175438404083252
1772537110878475500,3.7504755859375,0.07700469344854355,0.15600690245628357,-1.9485012292861938
1772537110888524300,3.760524169921875,0.011795725673437119,0.19367791712284088,-1.5126022100448608
1772537110898572500,3.770572509765625,-0.016975201666355133,0.17082160711288452,-1.0031675100326538
1772537110908620300,3.780620361328125,-0.021830063313245773,0.18639792501926422,-0.5317405462265015
1772537110918669600,3.790669677734375,-0.036888908594846725,0.21403968334197998,-0.17355282604694366
1772537110928717300,3.80071728515625,-0.07154794782400131,0.1620917171239853,0.06895080953836441
1772537110938765300,3.810765380859375,-0.1075349822640419,0.07613206654787064,0.17883363366127014
1772537110948814300,3.820814453125,-0.10835736244916916,0.0432533398270607,0.1635567992925644
1772537110958862300,3.8308623046875,-0.06638514250516891,0.07881053537130356,0.08371415734291077
1772537110968911400,3.840911376953125,0.002435473259538412,0.18187285959720612,0.001962154172360897
1772537110978959400,3.85095947265625,0.07424575090408325,0.31668099761009216,-0.03061017021536827
1772537110989007400,3.86100732421875,0.13685984909534454,0.41772228479385376,0.006736817769706249
1772537110999056400,3.871056396484375,0.1650984138250351,0.560642659664154,0.18097226321697235
1772537111009104100,3.881104248046875,0.15854457020759583,0.6206729412078857,0.5252206921577454
1772537111019152400,3.89115234375,0.12270933389663696,0.5509892106056213,0.9950558543205261
1772537111029201200,3.901201171875,0.0636976808309555,0.38140952587127686,1.4748995304107666
1772537111039249400,3.91124951171875,-0.0703706368803978,0.16833454370498657,1.8529999256134033
1772537111049296600,3.921296630859375,-0.26387155055999756,-0.05527731776237488,2.0729923248291016
1772537111059345400,3.931345458984375,-0.4346747100353241,-0.13347065448760986,2.1354360580444336
1772537111069393700,3.9413935546875,-0.5307934880256653,0.0034137065522372723,2.088024616241455
1772537111079441700,3.951441650390625,-0.554263710975647,0.27138444781303406,1.9823803901672363
1772537111089490400,3.961490478515625,-0.5251257419586182,0.5134081244468689,1.8204723596572876
1772537111099538700,3.97153857421875,-0.4876782298088074,0.6287621259689331,1.6451420783996582
1772537111109586400,3.98158642578125,-0.44323623180389404,0.5504928827285767,1.4780009984970093
1772537111119635500,3.991635498046875,-0.3650229275226593,0.38264453411102295,1.3103057146072388
1772537111129683500,4.001683349609375,-0.26473817229270935,0.1879468858242035,1.0843887329101562
1772537111139731500,4.0117314453125,-0.15173625946044922,0.027343884110450745,0.796984851360321
1772537111149780500,4.021780517578125,-0.07993865758180618,-0.04360143840312958,0.4930766224861145
1772537111159828500,4.031828369140625,-0.09104510396718979,-0.004445779137313366,0.21978941559791565
1772537111169876500,4.04187646484375,-0.12012806534767151,0.1029798835515976,0.0055784243158996105
1772537111179925500,4.051925537109375,-0.14893147349357605,0.22537024319171906,-0.14474795758724213
1772537111189973500,4.061973388671875,-0.17969492077827454,0.30582985281944275,-0.24523070454597473
1772537111200022500,4.0720224609375,-0.21283024549484253,0.29837697744369507,-0.3396506905555725
1772537111210070500,4.082070556640625,-0.22599078714847565,0.16275711357593536,-0.43539372086524963
1772537111220118500,4.092118408203125,-0.176426962018013,-0.13107743859291077,-0.5956648588180542
1772537111230167600,4.10216748046875,-0.13317173719406128,-0.49737927317619324,-0.8313015699386597
1772537111240215600,4.112215576171875,-0.05439329892396927,-0.7739019393920898,-0.9764726161956787
1772537111250263600,4.122263671875,0.024022795259952545,-0.8960177302360535,-1.0486228466033936
1772537111260312600,4.1323125,-0.018300693482160568,-0.6622617244720459,-1.1993495225906372
1772537111270360600,4.142360595703125,-0.06712523102760315,-0.13641829788684845,-1.3706413507461548
1772537111280408600,4.15240869140625,0.06646212935447693,0.10806895047426224,-1.4323620796203613
1772537111290457600,4.16245751953125,0.35707539319992065,-0.1535210907459259,-1.268523097038269
1772537111300505600,4.172505615234375,0.4995531737804413,-0.5512048006057739,-1.0497212409973145
1772537111310553600,4.1825537109375,0.4121599793434143,-0.5317472815513611,-1.1237916946411133
1772537111320602400,4.192602294921875,0.3181661069393158,-0.3161683678627014,-1.4850854873657227
1772537111330650600,4.202650634765625,0.2914992570877075,-0.1537453532218933,-1.8096803426742554
1772537111340698400,4.212698486328125,0.26173388957977295,0.038500260561704636,-1.8597077131271362
1772537111350747600,4.22274755859375,0.20140156149864197,0.2734023928642273,-1.7106678485870361
1772537111360795400,4.23279541015625,0.11604618281126022,0.42403239011764526,-1.4669896364212036
1772537111370844700,4.2428447265625,0.06862695515155792,0.4131459891796112,-1.1994644403457642
1772537111380892400,4.252892333984375,0.08838921040296555,0.3327172100543976,-0.8257172107696533
1772537111390940400,4.2629404296875,0.19391082227230072,0.18596187233924866,-0.44886600971221924
1772537111400989400,4.272989501953125,0.3581189215183258,0.03003671020269394,-0.16903649270534515
1772537111411037400,4.283037353515625,0.5332955121994019,-0.05419224500656128,-0.10349801927804947
1772537111421085700,4.293085693359375,0.6954820156097412,-0.026435716077685356,-0.29026922583580017
1772537111431134500,4.303134521484375,0.837336540222168,0.04341065511107445,-0.6552249193191528
1772537111441182700,4.3131826171875,0.9326648712158203,0.15240424871444702,-1.1086350679397583
1772537111451230500,4.32323046875,0.9292318820953369,0.2663605213165283,-1.5599360466003418
1772537111461279700,4.33327978515625,0.8410836458206177,0.27394306659698486,-1.874472737312317
1772537111471327500,4.343327392578125,0.709502100944519,0.22969982028007507,-1.9438245296478271
1772537111481375500,4.35337548828125,0.5812299251556396,0.34833088517189026,-1.776023030281067
1772537111491424500,4.363424560546875,0.5726261734962463,0.4691823720932007,-1.315672516822815
1772537111501472500,4.373472412109375,0.6280966401100159,0.49564990401268005,-0.651204526424408
1772537111511520500,4.3835205078125,0.5958040356636047,0.3594198226928711,0.03878044709563255
1772537111521569500,4.393569580078125,0.4108608663082123,0.2526465058326721,0.619999349117279
1772537111531617500,4.403617431640625,0.17328038811683655,0.18300028145313263,1.093790888786316
1772537111541665500,4.41366552734375,-0.047341473400592804,0.1634920984506607,1.4481247663497925
1772537111551714300,4.42371435546875,-0.22499722242355347,0.165523961186409,1.6735737323760986
1772537111561762600,4.433762451171875,-0.3491857349872589,0.16368930041790009,1.8020681142807007
1772537111571810600,4.443810546875,-0.39290112257003784,0.11696754395961761,1.8897112607955933
1772537111581859600,4.453859619140625,-0.3853561282157898,0.048072367906570435,1.9227683544158936
1772537111591907600,4.463907470703125,-0.3397310972213745,-0.020426437258720398,1.938284993171692
1772537111601956600,4.47395654296875,-0.26671096682548523,-0.060977593064308167,1.9444690942764282
1772537111612004600,4.484004638671875,-0.19760999083518982,-0.11677004396915436,1.8394454717636108
1772537111622052400,4.49405224609375,-0.13308772444725037,-0.17291852831840515,1.6992616653442383
1772537111632101600,4.5041015625,-0.0844961553812027,-0.23212963342666626,1.5252001285552979
1772537111642149400,4.5141494140625,-0.04774746298789978,-0.34036901593208313,1.3309686183929443
1772537111652197600,4.52419775390625,0.015054595656692982,-0.42911940813064575,1.1290292739868164
1772537111662246400,4.534246337890625,0.05581614002585411,-0.4092077314853668,0.9402260184288025
1772537111672294700,4.544294677734375,0.005772605072706938,-0.3477388322353363,0.7259224653244019
1772537111682342700,4.5543427734375,-0.09240403026342392,-0.410379022359848,0.44243568181991577
1772537111692391700,4.5643916015625,-0.1355138123035431,-0.6227360963821411,0.09817862510681152
1772537111702439400,4.574439453125,-0.08326978236436844,-0.8596064448356628,-0.2908490300178528
1772537111712487400,4.5844873046875,-0.08365946263074875,-0.8322362303733826,-0.7070216536521912
1772537111722536400,4.594536376953125,-0.16330528259277344,-0.5392099618911743,-1.0878267288208008
1772537111732584400,4.60458447265625,-0.20232181251049042,-0.22046998143196106,-1.406866192817688
1772537111742632700,4.6146328125,-0.22747109830379486,-0.07187224924564362,-1.7152326107025146
1772537111752681500,4.624681396484375,-0.1407368779182434,0.06262050569057465,-1.9232643842697144
1772537111762729500,4.6347294921875,0.21037349104881287,0.06251531094312668,-1.9359256029129028
1772537111772777500,4.644777587890625,0.6226288676261902,-0.18467657268047333,-1.635575294494629
1772537111782826500,4.654826416015625,0.8632382750511169,-0.4418138265609741,-1.2896770238876343
1772537111792874500,4.66487451171875,0.8259037137031555,-0.2644651234149933,-1.482460856437683
1772537111802923500,4.674923583984375,0.5178055763244629,-0.007261022459715605,-1.8801871538162231
1772537111812971500,4.684971435546875,0.12382632493972778,0.05729873850941658,-2.003347873687744
1772537111823019500,4.69501953125,-0.18292616307735443,0.01398295909166336,-1.7247192859649658
1772537111833068500,4.705068603515625,-0.3567856252193451,-0.07016859203577042,-1.2462719678878784
1772537111843116500,4.715116455078125,-0.4566272497177124,-0.09917867183685303,-0.6184389591217041
1772537111853164500,4.72516455078125,-0.4919472932815552,-0.09263470768928528,0.015492734499275684
1772537111863213600,4.735213623046875,-0.46955516934394836,-0.09884386509656906,0.514638364315033
1772537111873261600,4.745261474609375,-0.39179372787475586,-0.12578460574150085,0.7947161793708801
1772537111883309600,4.7553095703125,-0.24570336937904358,-0.13378874957561493,0.8463655114173889
1772537111893358600,4.765358642578125,-0.060012735426425934,-0.13525021076202393,0.6719421744346619
1772537111903406600,4.775406494140625,0.10793498903512955,-0.1523362547159195,0.29128533601760864
1772537111913454600,4.78545458984375,0.2557752728462219,-0.13942797482013702,-0.2033921629190445
1772537111923503600,4.795503662109375,0.3766934275627136,-0.10901814699172974,-0.7120639085769653
1772537111933551600,4.805551513671875,0.43636807799339294,-0.0293330829590559,-1.1239029169082642
1772537111943599400,4.815599365234375,0.4680245518684387,0.1000313013792038,-1.3412667512893677
1772537111953648600,4.825648681640625,0.5046394467353821,0.33469584584236145,-1.2937664985656738
1772537111963696400,4.8356962890625,0.5291743874549866,0.5007827877998352,-0.9710606336593628
1772537111973744600,4.84574462890625,0.5069031715393066,0.5167365074157715,-0.4867938458919525
1772537111983793400,4.85579345703125,0.4106424152851105,0.5005260705947876,0.06255904585123062
1772537111993841400,4.86584130859375,0.25619930028915405,0.4787713885307312,0.637191891670227
1772537112003889700,4.8758896484375,0.05508003383874893,0.4558620750904083,1.173980712890625
1772537112013938400,4.8859384765625,-0.1481969654560089,0.3949446380138397,1.6070588827133179
1772537112023986700,4.895986572265625,-0.3659495413303375,0.3131123483181,1.9023998975753784
1772537112034035500,4.906035400390625,-0.5707038044929504,0.25384554266929626,2.0547091960906982
1772537112044083700,4.916083740234375,-0.6754430532455444,0.18645529448986053,2.085653066635132
1772537112054131500,4.92613134765625,-0.6546515822410583,0.07712195068597794,2.0185558795928955
1772537112064180700,4.9361806640625,-0.5501300096511841,0.0006695226766169071,1.8338923454284668
1772537112074228500,4.946228515625,-0.4049428403377533,0.053483568131923676,1.5571907758712769
1772537112084276700,4.95627685546875,-0.27615052461624146,0.13296879827976227,1.1943061351776123
1772537112094325500,4.966325439453125,-0.19601285457611084,0.1753833144903183,0.7674031853675842
1772537112104373800,4.976373779296875,-0.15006586909294128,0.22029273211956024,0.3628988265991211
1772537112114421500,4.98642138671875,-0.10293196141719818,0.2383827418088913,0.0747881606221199
1772537112124470800,4.996470703125,-0.06591802090406418,0.11785899102687836,-0.14124347269535065
1772537112134518500,5.0065185546875,-0.0999235138297081,-0.10585620254278183,-0.34720978140830994
1772537112144566500,5.01656640625,-0.19508305191993713,-0.34708908200263977,-0.485248863697052
1772537112154615600,5.026615478515625,-0.32288119196891785,-0.48823362588882446,-0.5997628569602966
1772537112164663600,5.03666357421875,-0.49178314208984375,-0.42917534708976746,-0.7075543403625488
1772537112174711800,5.0467119140625,-0.6519036889076233,-0.1819756180047989,-0.8255508542060852
1772537112184760600,5.056760498046875,-0.7523512244224548,-0.027892565354704857,-1.0171669721603394
1772537112194808800,5.066808837890625,-0.80092453956604,-0.0633915439248085,-1.1806859970092773
1772537112204856600,5.076856689453125,-0.8269183039665222,-0.0834435522556305,-1.4511430263519287
1772537112214905600,5.086905517578125,-0.6563549041748047,0.1582036316394806,-1.8359770774841309
1772537112224953600,5.09695361328125,-0.19272764027118683,0.3786981999874115,-2.245152711868286
1772537112235001600,5.107001708984375,0.39017215371131897,0.21794945001602173,-2.3374974727630615
1772537112245050600,5.117050537109375,0.7985284924507141,-0.22138264775276184,-2.1971564292907715
1772537112255098600,5.1270986328125,0.8715123534202576,-0.4890584945678711,-1.9992892742156982
1772537112265146400,5.137146484375,0.6653770208358765,-0.4679470658302307,-1.837619662284851
1772537112275195600,5.147195556640625,0.30818799138069153,-0.36749032139778137,-1.5853291749954224
1772537112285243400,5.157243408203125,-0.02920016273856163,-0.28117063641548157,-1.0956807136535645
1772537112295292700,5.167292724609375,-0.24828064441680908,-0.33252933621406555,-0.3909287750720978
1772537112305340400,5.17734033203125,-0.3759874701499939,-0.46144869923591614,0.3714471459388733
1772537112315388700,5.187388671875,-0.4547910690307617,-0.6022794246673584,1.0178519487380981
1772537112325437400,5.1974375,-0.49586501717567444,-0.6452907919883728,1.4712958335876465
1772537112335485700,5.207485595703125,-0.4467647671699524,-0.600765585899353,1.7341389656066895
1772537112345533700,5.21753369140625,-0.3040507733821869,-0.5698415040969849,1.7159874439239502
1772537112355582700,5.227582763671875,-0.16152116656303406,-0.5282767415046692,1.4068303108215332
1772537112365630700,5.237630615234375,-0.06170268729329109,-0.377550333738327,0.8454772233963013
1772537112375678500,5.247678466796875,0.07461486011743546,-0.1586005538702011,0.17738217115402222
1772537112385727700,5.257727783203125,0.2858240604400635,0.03310895711183548,-0.39577800035476685
1772537112395775500,5.267775390625,0.4993715286254883,0.10762957483530045,-0.8040077686309814
1772537112405823700,5.27782373046875,0.6097699403762817,0.11260249465703964,-1.0581178665161133
1772537112415872500,5.28787255859375,0.6367647647857666,-0.03530034422874451,-1.1679776906967163
1772537112425920800,5.297920654296875,0.609316885471344,-0.13859158754348755,-1.122709035873413
1772537112435968500,5.307968505859375,0.5607754588127136,-0.10755933821201324,-0.8669872283935547
1772537112446017500,5.318017578125,0.4924437999725342,-0.013733511790633202,-0.47526443004608154
1772537112456065500,5.3280654296875,0.4032793641090393,0.06188497692346573,-0.010622575879096985
1772537112466113500,5.338113525390625,0.2923005223274231,0.06162884086370468,0.47058457136154175
1772537112476162600,5.34816259765625,0.15023578703403473,0.032517027109861374,0.8967335224151611
1772537112486210600,5.35821044921875,-0.015491657890379429,0.0396718755364418,1.2759969234466553
1772537112496258600,5.368258544921875,-0.16092555224895477,0.04138082638382912,1.6113765239715576
1772537112506307600,5.3783076171875,-0.27565547823905945,0.02744007296860218,1.8825312852859497
1772537112516355600,5.38835546875,-0.3449826240539551,0.05930692330002785,2.0268681049346924
1772537112526403600,5.398403564453125,-0.3710891604423523,0.1554754376411438,2.0481011867523193
1772537112536452600,5.40845263671875,-0.3578670918941498,0.29173552989959717,1.9630963802337646
1772537112546500600,5.41850048828125,-0.3301342725753784,0.39163458347320557,1.8227254152297974
1772537112556548600,5.428548583984375,-0.2931104898452759,0.40950465202331543,1.6645299196243286
1772537112566597600,5.43859765625,-0.24777112901210785,0.2961909770965576,1.4851242303848267
1772537112576645600,5.448645751953125,-0.20928311347961426,0.12081727385520935,1.2601909637451172
1772537112586694700,5.458694580078125,-0.20256347954273224,-0.002498700749129057,1.0127363204956055
1772537112596742700,5.46874267578125,-0.20513929426670074,-0.009380575269460678,0.8099725842475891
1772537112606790700,5.478790771484375,-0.19730593264102936,-0.007542230188846588,0.6593958139419556
1772537112616839700,5.488839599609375,-0.2533774673938751,-0.044766563922166824,0.5215284824371338
1772537112626887700,5.4988876953125,-0.4077969193458557,-0.1050303503870964,0.3436565399169922
1772537112636935700,5.508935791015625,-0.5804022550582886,-0.2044387012720108,0.09554499387741089
1772537112646984700,5.518984619140625,-0.6781728267669678,-0.40599220991134644,-0.2360767424106598
1772537112657032400,5.529032470703125,-0.6514405608177185,-0.6249631643295288,-0.654211163520813
1772537112667080700,5.539080810546875,-0.5856510400772095,-0.5886070132255554,-1.1148990392684937
1772537112677129500,5.54912939453125,-0.4556105136871338,-0.34578824043273926,-1.4338206052780151
1772537112687177700,5.559177734375,-0.2977447211742401,-0.09115356206893921,-1.4399373531341553
1772537112697225500,5.5692255859375,-0.19078177213668823,-0.01606546714901924,-1.1983567476272583
1772537112707274800,5.579274658203125,-0.14907348155975342,-0.1944316029548645,-0.9674628973007202
1772537112717322500,5.589322509765625,-0.1654338240623474,-0.5548198819160461,-0.7698979377746582
1772537112727370500,5.59937060546875,-0.20189502835273743,-0.7958796620368958,-0.5114110112190247
1772537112737419500,5.60941943359375,-0.1224750280380249,-0.8529989123344421,-0.30475667119026184
1772537112747467500,5.619467529296875,0.12148543447256088,-0.761741042137146,-0.3438919484615326
1772537112757515800,5.629515869140625,0.40247663855552673,-0.5483821630477905,-0.5904945731163025
1772537112767564500,5.639564453125,0.5312969088554382,-0.3552073538303375,-0.8393748998641968
1772537112777612800,5.64961279296875,0.4573071300983429,-0.28560778498649597,-0.9803847670555115
1772537112787660500,5.65966064453125,0.21203850209712982,-0.32861557602882385,-1.0227001905441284
1772537112797709800,5.669709716796875,-0.14026574790477753,-0.4009387791156769,-1.002996802330017
1772537112807757600,5.679757568359375,-0.4619051218032837,-0.3752354383468628,-0.9015594720840454
1772537112817805600,5.6898056640625,-0.5955702066421509,-0.21228431165218353,-0.6888064742088318
1772537112827854600,5.6998544921875,-0.5130347609519958,0.029694145545363426,-0.4134069085121155
1772537112837902600,5.709902587890625,-0.31036391854286194,0.19142071902751923,-0.1837841272354126
1772537112847950600,5.71995068359375,-0.11851748079061508,0.2517496645450592,-0.04307267814874649
1772537112857999600,5.72999951171875,0.023874815553426743,0.24207599461078644,0.016881734132766724
1772537112868047600,5.740047607421875,0.10627556592226028,0.13891397416591644,0.011393268592655659
1772537112878096600,5.7500966796875,0.13821591436862946,-0.024968169629573822,-0.038910381495952606
1772537112888144400,5.760144287109375,0.14927944540977478,-0.1259210705757141,-0.09370674192905426
1772537112898192600,5.770192626953125,0.18960396945476532,-0.08999955654144287,-0.0892707109451294
1772537112908241400,5.780241455078125,0.2661689221858978,0.030431564897298813,-0.04204326122999191
1772537112918289700,5.79028955078125,0.3773295283317566,0.2081935703754425,0.006909898482263088
1772537112928337700,5.800337646484375,0.5030855536460876,0.37626954913139343,0.051471687853336334
1772537112938386700,5.81038671875,0.5950506329536438,0.4958001673221588,0.06782402843236923
1772537112948434700,5.8204345703125,0.6157642006874084,0.6302940249443054,0.048372481018304825
1772537112958482400,5.830482421875,0.5926341414451599,0.8224735856056213,0.035130180418491364
1772537112968531700,5.84053173828125,0.5620166659355164,0.9708914160728455,0.06749410182237625
1772537112978579500,5.850579345703125,0.5287830829620361,0.9682122468948364,0.16925881803035736
1772537112988627700,5.860627685546875,0.4913855195045471,0.8352813124656677,0.3570432662963867
1772537112998676500,5.870676513671875,0.45399633049964905,0.6741728782653809,0.6398539543151855
1772537113008724700,5.880724853515625,0.37767207622528076,0.529678225517273,0.9360413551330566
1772537113018772500,5.8907724609375,0.2181503176689148,0.45636481046676636,1.1683366298675537
1772537113028821800,5.90082177734375,0.027838485315442085,0.4440777003765106,1.326483130455017
1772537113038869500,5.910869384765625,-0.14020857214927673,0.422942578792572,1.4082711935043335
1772537113048917000,5.9209169921875,-0.2265404611825943,0.35677477717399597,1.4100993871688843
1772537113058966300,5.93096630859375,-0.1994989812374115,0.1987963318824768,1.3607717752456665
1772537113069014000,5.941013916015625,-0.1168542206287384,0.02098376676440239,1.288583517074585
1772537113079062300,5.951062255859375,-0.05754828825592995,-0.07337629050016403,1.229257583618164
1772537113089111000,5.961111083984375,-0.07513756304979324,-0.1294395476579666,1.1183686256408691
1772537113099159000,5.971158935546875,-0.15979386866092682,-0.11025974154472351,0.9514269232749939
1772537113109208000,5.9812080078125,-0.29252156615257263,-0.057606909424066544,0.7807079553604126
1772537113119256000,5.991256103515625,-0.44247373938560486,-0.01528666540980339,0.686419665813446
1772537113129304000,6.001303955078125,-0.5905519127845764,-0.020308054983615875,0.6867019534111023
1772537113139353000,6.01135302734375,-0.7333498001098633,-0.10231918841600418,0.6563085317611694
1772537113149401000,6.021401123046875,-0.8551276326179504,-0.2272997349500656,0.5010308027267456
1772537113159449000,6.031448974609375,-0.9011836051940918,-0.47089385986328125,0.1330854743719101
1772537113169498000,6.041498046875,-0.8374969959259033,-0.6368389129638672,-0.3617658317089081
1772537113179546000,6.051546142578125,-0.6595366597175598,-0.3962535560131073,-0.8898840546607971
1772537113189594000,6.061593994140625,-0.33624300360679626,0.15174482762813568,-1.352554202079773
1772537113199643100,6.07164306640625,0.05843061953783035,0.7925165295600891,-1.9089299440383911
1772537113209691100,6.081691162109375,0.4046815037727356,1.2410192489624023,-2.391714334487915
1772537113219739100,6.0917392578125,0.5726929306983948,1.1408354043960571,-2.465150833129883
1772537113229788200,6.1017880859375,0.5499740839004517,0.6903746724128723,-2.003490924835205
1772537113239836200,6.111836181640625,0.3789960741996765,0.07754139602184296,-1.3238555192947388
1772537113249884200,6.12188427734375,0.1373397707939148,-0.467881441116333,-0.6965565085411072
1772537113259933000,6.131932861328125,0.02362724021077156,-0.6210378408432007,-0.3892379701137543
1772537113269981200,6.141981201171875,0.09238579869270325,-0.4295629560947418,-0.3101295828819275
1772537113280030000,6.152030029296875,0.12273671478033066,-0.16293558478355408,-0.3301320970058441
1772537113290078200,6.162078125,0.035835374146699905,-0.04433703050017357,-0.32125577330589294
1772537113300126000,6.1721259765625,-0.04958818107843399,-0.04610217362642288,-0.2410389631986618
1772537113310175200,6.18217529296875,-0.07805018126964569,-0.0094461590051651,-0.10251650959253311
1772537113320223000,6.192222900390625,-0.08182109147310257,0.11187794059515,0.058961670845746994
1772537113330271000,6.20227099609375,-0.08151855319738388,0.19017407298088074,0.19643297791481018
1772537113340320000,6.212320068359375,-0.08172227442264557,0.06992141902446747,0.31135523319244385
1772537113350368000,6.222367919921875,-0.07175192981958389,-0.10768027603626251,0.39778441190719604
1772537113360416300,6.232416259765625,-0.04734506458044052,-0.26107871532440186,0.40377888083457947
1772537113370465000,6.242465087890625,0.020029712468385696,-0.3432747721672058,0.326593279838562
1772537113380513300,6.25251318359375,0.1281808316707611,-0.3351913392543793,0.1037512943148613
1772537113390561000,6.26256103515625,0.2565630376338959,-0.27511733770370483,-0.18646694719791412
1772537113400610300,6.2726103515625,0.359427809715271,-0.1732216626405716,-0.5002927780151367
1772537113410658000,6.282657958984375,0.44271257519721985,0.0059145488776266575,-0.7928985357284546
1772537113420706000,6.2927060546875,0.5321254134178162,0.1919274777173996,-1.0232621431350708
1772537113430755000,6.302755126953125,0.6022281050682068,0.3509083390235901,-1.1356608867645264
1772537113440803000,6.312802978515625,0.675970733165741,0.4604445695877075,-1.1148765087127686
1772537113450851300,6.322851318359375,0.7533113360404968,0.5710352659225464,-0.9271814823150635
1772537113460900000,6.332900146484375,0.7962791919708252,0.5747935771942139,-0.5936325192451477
1772537113470948000,6.342947998046875,0.7456098794937134,0.49575918912887573,-0.19006586074829102
1772537113480996000,6.35299609375,0.6247905492782593,0.4465791583061218,0.20211230218410492
1772537113491045000,6.363045166015625,0.39657625555992126,0.4499429762363434,0.5756999850273132
1772537113501093000,6.373093017578125,0.08884770423173904,0.4719246029853821,0.9094074368476868
1772537113511141000,6.38314111328125,-0.19043266773223877,0.43750113248825073,1.1960865259170532
1772537113521190100,6.393190185546875,-0.34826016426086426,0.30694133043289185,1.4264851808547974
1772537113531238100,6.403238037109375,-0.3794945180416107,0.10910388082265854,1.5850452184677124
1772537113541286000,6.413285888671875,-0.33662334084510803,-0.03430900350213051,1.6466004848480225
1772537113551335200,6.423335205078125,-0.2327083945274353,-0.045175500214099884,1.6120915412902832
1772537113561383000,6.4333828125,-0.06537879258394241,0.07006214559078217,1.5115833282470703
1772537113571432200,6.44343212890625,0.07183658331632614,0.08685018122196198,1.3315786123275757
1772537113581480000,6.45347998046875,0.025481412187218666,0.016313176602125168,1.0639222860336304
1772537113591528200,6.463528076171875,-0.1359567493200302,-0.09675638377666473,0.724338173866272
1772537113601577000,6.473576904296875,-0.2872501313686371,-0.24028132855892181,0.34840127825737
1772537113611625200,6.483625244140625,-0.32210850715637207,-0.4316542446613312,-0.0041506621055305
1772537113621673200,6.493673095703125,-0.2421262562274933,-0.5825486183166504,-0.2876155376434326
1772537113631722200,6.50372216796875,-0.1285267174243927,-0.5561354160308838,-0.5439895391464233
1772537113641770200,6.513770263671875,-0.07673098146915436,-0.3815164566040039,-0.8248510956764221
1772537113651818000,6.52381787109375,-0.11596653610467911,-0.3081892430782318,-1.1380395889282227
1772537113661867300,6.5338671875,-0.17114411294460297,-0.21540063619613647,-1.4822646379470825
1772537113671915000,6.5439150390625,-0.2606220543384552,-0.13593697547912598,-1.6888360977172852
1772537113681963300,6.55396337890625,-0.23388004302978516,0.06112010404467583,-1.8157144784927368
1772537113692012000,6.564011962890625,-0.00031230412423610687,0.22060030698776245,-1.819944143295288
1772537113702060300,6.574060302734375,0.37518173456192017,0.16591008007526398,-1.6283992528915405
1772537113712108000,6.58410791015625,0.7025071382522583,-0.10701332241296768,-1.3639391660690308
1772537113722157000,6.594156982421875,0.8372551202774048,-0.4644196927547455,-1.1800273656845093
1772537113732205000,6.604205078125,0.8132861256599426,-0.618401288986206,-1.0621901750564575
1772537113742253000,6.614253173828125,0.7039238214492798,-0.49418801069259644,-0.9313638210296631
1772537113752302000,6.624302001953125,0.4883396029472351,-0.2971862554550171,-0.780673623085022
1772537113762350000,6.63435009765625,0.22473877668380737,-0.2164163738489151,-0.571071445941925
1772537113772398000,6.644398193359375,-0.01933273673057556,-0.29726195335388184,-0.31689032912254333
1772537113782447000,6.654447021484375,-0.2015089988708496,-0.3672463893890381,-0.05548698082566261
1772537113792495000,6.6644951171875,-0.24158957600593567,-0.36337709426879883,0.22784486413002014
1772537113802543000,6.674543212890625,-0.16332480311393738,-0.435110867023468,0.43321993947029114
1772537113812592000,6.684592041015625,-0.043227434158325195,-0.546578049659729,0.4971928000450134
1772537113822640000,6.69464013671875,0.05914849415421486,-0.6046397686004639,0.40841466188430786
1772537113832689200,6.704689208984375,0.13337132334709167,-0.5231329202651978,0.2406642585992813
1772537113842737200,6.714737060546875,0.20383894443511963,-0.37153342366218567,0.0600256472826004
1772537113852785200,6.72478515625,0.29142072796821594,-0.229562446475029,-0.10659769177436829
1772537113862834200,6.734834228515625,0.33714255690574646,-0.05741099640727043,-0.23738670349121094
1772537113872882200,6.744882080078125,0.317525178194046,0.06614689528942108,-0.3546225130558014
1772537113882930000,6.754929931640625,0.2358424961566925,0.12988589704036713,-0.46551814675331116
1772537113892979200,6.764979248046875,0.1630428582429886,0.20597347617149353,-0.5187941193580627
1772537113903027000,6.77502685546875,0.15886110067367554,0.31975260376930237,-0.44917795062065125
1772537113913075200,6.7850751953125,0.19719889760017395,0.37430399656295776,-0.28207552433013916
1772537113923124000,6.7951240234375,0.22537022829055786,0.3569367527961731,-0.06563669443130493
1772537113933172200,6.805172119140625,0.20152853429317474,0.2843616306781769,0.17581267654895782
1772537113943220200,6.81522021484375,0.10611427575349808,0.20478951930999756,0.41107919812202454
1772537113953269000,6.82526904296875,-0.0035826638340950012,0.18980976939201355,0.6213855743408203
1772537113963317200,6.835317138671875,-0.07317658513784409,0.21009936928749084,0.8444509506225586
1772537113973365000,6.845364990234375,-0.10225990414619446,0.23082967102527618,1.0742961168289185
1772537113983414300,6.855414306640625,-0.09860892593860626,0.2854696810245514,1.241870641708374
1772537113993462000,6.8654619140625,-0.08399349451065063,0.3565867245197296,1.3279134035110474
1772537114003510000,6.875510009765625,-0.06328549236059189,0.37699735164642334,1.356877088546753
1772537114013559000,6.88555908203125,-0.035999007523059845,0.3456980288028717,1.346807837486267
1772537114023607000,6.89560693359375,-0.014990122988820076,0.31730154156684875,1.2872260808944702
1772537114033655000,6.905655029296875,-0.012464646250009537,0.27276283502578735,1.1561166048049927
1772537114043704000,6.9157041015625,-0.006810493767261505,0.1885538101196289,0.9590267539024353
1772537114053752600,6.925752685546875,0.015252996236085892,0.11573739349842072,0.7594279050827026
1772537114063800800,6.93580078125,0.02065822295844555,0.059299442917108536,0.5887203216552734
1772537114073849600,6.945849609375,0.00027199089527130127,0.11815902590751648,0.5100372433662415
1772537114083897900,6.95589794921875,-0.034723877906799316,0.2064562439918518,0.5095595717430115
1772537114093945900,6.96594580078125,-0.21942847967147827,0.24194738268852234,0.47739580273628235
1772537114103995000,6.975994873046875,-0.5196413397789001,0.21476024389266968,0.46943774819374084
1772537114114043000,6.98604296875,-0.746727466583252,0.02190556935966015,0.5601460337638855
1772537114124090600,6.996090576171875,-0.837553858757019,-0.2442883551120758,0.725098192691803
1772537114134140000,7.006139892578125,-0.8071589469909668,-0.3358912169933319,0.9032820463180542
1772537114144187600,7.016187744140625,-0.7398954629898071,-0.32235029339790344,0.9211841821670532
1772537114154236700,7.026236572265625,-0.7033652067184448,-0.2728671729564667,0.7310134172439575
1772537114164284700,7.03628466796875,-0.5705099701881409,-0.35518819093704224,0.4025220274925232
1772537114174332700,7.046332763671875,-0.44294270873069763,-0.5072450637817383,-0.03988335281610489
1772537114184381700,7.056381591796875,-0.4054834842681885,-0.3904634714126587,-0.7179834246635437
1772537114194429700,7.0664296875,-0.32740652561187744,0.011038143187761307,-1.3471301794052124
1772537114204477700,7.076477783203125,-0.16379764676094055,0.014058472588658333,-1.5722821950912476
1772537114214526700,7.086526611328125,-0.006424003280699253,-0.21180075407028198,-1.5499937534332275
1772537114224574700,7.09657470703125,0.09454189985990524,-0.40453818440437317,-1.4743616580963135
1772537114234622700,7.106622802734375,0.13603182137012482,-0.4620145261287689,-1.7592600584030151
1772537114244671700,7.116671630859375,0.14475247263908386,-0.6002367734909058,-2.1024932861328125
1772537114254719700,7.1267197265625,0.06957729160785675,-0.694736123085022,-2.1963324546813965
1772537114264767700,7.136767822265625,-0.10528818517923355,-0.4046179950237274,-1.9302279949188232
1772537114274816800,7.146816650390625,-0.3599870502948761,-0.12994995713233948,-1.1913297176361084
1772537114284864800,7.15686474609375,-0.5080928802490234,-0.08559270948171616,-0.245411217212677
1772537114294912800,7.166912841796875,-0.4994519054889679,-0.36822760105133057,0.7704872488975525
1772537114304961800,7.1769619140625,-0.4629587233066559,-0.7622606158256531,1.6345205307006836
1772537114315009800,7.187009765625,-0.46224260330200195,-1.0864797830581665,2.302668571472168
1772537114325057800,7.197057861328125,-0.4793780446052551,-1.3090635538101196,2.7270541191101074
1772537114335106800,7.20710693359375,-0.47773274779319763,-1.3520327806472778,2.881474256515503
1772537114345154800,7.21715478515625,-0.3649071753025055,-1.156182050704956,2.655839681625366
1772537114355202600,7.22720263671875,-0.13183584809303284,-0.8202191591262817,2.1629092693328857
1772537114365251800,7.237251953125,0.17398785054683685,-0.3225637674331665,1.506446123123169
1772537114375299600,7.247299560546875,0.48185911774635315,0.22651399672031403,0.7808666229248047
1772537114385347800,7.257347900390625,0.7325087189674377,0.6664366722106934,0.1994747817516327
1772537114395396600,7.267396728515625,0.8666106462478638,0.8998180031776428,-0.08342883735895157
1772537114405444600,7.277444580078125,0.8540988564491272,0.9027203321456909,-0.09354165196418762
1772537114415492900,7.287492919921875,0.7287641167640686,0.66937255859375,0.07928577810525894
1772537114425541600,7.297541748046875,0.50975501537323,0.33816957473754883,0.30234628915786743
1772537114435590000,7.30758984375,0.24105988442897797,0.07826771587133408,0.5166141390800476
1772537114445638700,7.317638671875,-0.007271758280694485,-0.06366098672151566,0.6706553101539612
1772537114455687000,7.32768701171875,-0.17694467306137085,-0.09814998507499695,0.7615535259246826
1772537114465734700,7.337734619140625,-0.25059497356414795,-0.020501742139458656,0.8019227385520935
1772537114475784000,7.347783935546875,-0.2853209972381592,0.04845202714204788,0.7777902483940125
1772537114485831700,7.357831787109375,-0.2627098262310028,0.1430150866508484,0.703230619430542
1772537114495879700,7.367879638671875,-0.16568341851234436,0.2149084508419037,0.5746851563453674
1772537114505928700,7.3779287109375,-0.0035090381279587746,0.17422649264335632,0.40045905113220215
1772537114515976700,7.387976806640625,0.17181432247161865,0.053557343780994415,0.18669536709785461
1772537114526024700,7.398024658203125,0.3354041874408722,-0.019942255690693855,0.03121538832783699
1772537114536073700,7.40807373046875,0.46760082244873047,-0.020664772018790245,-0.02294185757637024
1772537114546121700,7.418121826171875,0.5229873657226562,0.024376653134822845,-0.012437311001121998
1772537114556169700,7.428169677734375,0.4513850808143616,0.030133873224258423,0.04135747626423836
1772537114566218800,7.43821875,0.21263271570205688,-0.1240830272436142,0.02110898867249489
1772537114576266800,7.448266845703125,-0.0857667550444603,-0.374002605676651,-0.112395279109478
1772537114586314800,7.458314697265625,-0.3002144694328308,-0.5551007986068726,-0.2989138662815094
1772537114596363800,7.46836376953125,-0.3358861804008484,-0.5743756890296936,-0.44463804364204407
1772537114606411800,7.478411865234375,-0.20531438291072845,-0.5241718292236328,-0.6007822751998901
1772537114616459800,7.488459716796875,0.0017298776656389236,-0.4500930607318878,-0.833595335483551
1772537114626508800,7.4985087890625,0.18845808506011963,-0.3445504903793335,-1.1854668855667114
1772537114636556500,7.508556640625,0.2522522509098053,-0.20621922612190247,-1.6302813291549683
1772537114646604800,7.518604736328125,0.14351962506771088,-0.03457196056842804,-2.028104782104492
1772537114656653600,7.528653564453125,-0.09904640167951584,0.05350649729371071,-2.196234703063965
1772537114666701800,7.538701904296875,-0.2940026521682739,0.18914005160331726,-2.1772959232330322
1772537114676749800,7.548749755859375,-0.23951835930347443,0.33228737115859985,-2.1258742809295654
1772537114686798800,7.558798828125,-0.06279139220714569,0.4569835662841797,-2.134666919708252
1772537114696846800,7.568846923828125,0.06237824261188507,0.5505425333976746,-2.1804776191711426
1772537114706894600,7.57889453125,0.17082570493221283,0.5888020396232605,-2.1027705669403076
1772537114716943600,7.588943603515625,0.3563809096813202,0.4934723377227783,-1.8707771301269531
1772537114726991600,7.59899169921875,0.5077680945396423,0.2718358635902405,-1.5918246507644653
1772537114737040600,7.60904052734375,0.4523274898529053,0.10742641240358353,-1.3241678476333618
1772537114747088600,7.619088623046875,0.2701171934604645,0.06940659135580063,-1.029154658317566
1772537114757137000,7.629136962890625,0.14692096412181854,0.11092953383922577,-0.65473473072052
1772537114767185700,7.639185546875,0.10951792448759079,0.12352762371301651,-0.23964692652225494
1772537114777234000,7.64923388671875,0.10101152211427689,0.03849529102444649,0.14026764035224915
1772537114787281700,7.65928173828125,0.08295748382806778,-0.09452998638153076,0.47806206345558167
1772537114797330700,7.66933056640625,0.07352909445762634,-0.30685317516326904,0.7871695756912231
1772537114807378700,7.679378662109375,0.04100930690765381,-0.5033193230628967,1.0117605924606323
1772537114817426700,7.6894267578125,0.02307744137942791,-0.545741081237793,1.1785032749176025
1772537114827475700,7.699475830078125,0.07843782007694244,-0.4514501392841339,1.3126178979873657
1772537114837523700,7.709523681640625,0.16333088278770447,-0.27647271752357483,1.3803486824035645
1772537114847572000,7.719572021484375,0.19671127200126648,-0.05361071228981018,1.2463748455047607
1772537114857620700,7.729620849609375,0.14625714719295502,0.28241389989852905,0.7697505354881287
1772537114867668700,7.739668701171875,0.1412397027015686,0.4873564541339874,0.35302093625068665
1772537114877716700,7.749716796875,0.18035700917243958,0.5922791361808777,0.062005069106817245
1772537114887765800,7.759765869140625,0.2298595905303955,0.6181463003158569,-0.13847917318344116
1772537114897813800,7.769813720703125,0.24417807161808014,0.6325367093086243,-0.23213456571102142
1772537114907861800,7.77986181640625,0.20848238468170166,0.6948589086532593,-0.19564945995807648
1772537114917910800,7.789910888671875,0.1492651402950287,0.7210007905960083,-0.06561955064535141
1772537114927958800,7.799958740234375,0.0888250321149826,0.6496151685714722,0.07591243088245392
1772537114938006500,7.810006591796875,0.0966360792517662,0.5876958966255188,0.22616450488567352
1772537114948055800,7.820055908203125,0.1602376252412796,0.655310332775116,0.3897635042667389
1772537114958103600,7.830103515625,0.253472238779068,0.6375039219856262,0.5499329566955566
1772537114968151800,7.84015185546875,0.34192487597465515,0.45153483748435974,0.6625892519950867
1772537114978200600,7.85020068359375,0.3889988958835602,0.18224531412124634,0.6635687351226807
1772537114988248800,7.860248779296875,0.4059254825115204,-0.031193161383271217,0.546454906463623
1772537114998297600,7.870297607421875,0.3932837247848511,-0.037260375916957855,0.3662835657596588
1772537115008345900,7.880345947265625,0.350704550743103,0.18998394906520844,0.2104765921831131
1772537115018393900,7.890393798828125,0.30858293175697327,0.2557472288608551,0.13157379627227783
1772537115028442600,7.900442626953125,0.20429281890392303,0.12469726800918579,0.10799625515937805
1772537115038491000,7.910490966796875,0.02401892840862274,0.07082098722457886,0.10876563936471939
1772537115048537900,7.920537841796875,-0.1325630247592926,-0.00797016266733408,0.14745178818702698
1772537115058587100,7.930587158203125,-0.1746598780155182,-0.1664104014635086,0.1267039030790329
1772537115068635000,7.940634765625,-0.11111804842948914,-0.2860935926437378,0.05242549628019333
1772537115078683000,7.950682861328125,-0.09089799225330353,-0.2766662836074829,-0.21688292920589447
1772537115088732000,7.96073193359375,-0.15686310827732086,-0.12522169947624207,-0.5654135346412659
1772537115098780000,7.97077978515625,-0.2573409676551819,-0.038538992404937744,-0.8482422828674316
1772537115108828200,7.980828125,-0.25763097405433655,-0.003766504814848304,-1.0751205682754517
1772537115118877000,7.990876953125,-0.11315423995256424,-0.03307512402534485,-1.1458535194396973
1772537115128925200,8.00092529296875,0.003252007532864809,0.052981048822402954,-1.0883864164352417
1772537115138973000,8.010972900390625,0.027167992666363716,0.2658509612083435,-0.953757107257843
1772537115149022200,8.021022216796876,0.01855386421084404,0.2707359492778778,-0.9022521376609802
1772537115159070000,8.031070068359375,-0.00029625464230775833,0.04548178240656853,-0.9359834790229797
1772537115169118000,8.041117919921875,-0.06783156841993332,-0.11355947703123093,-1.0243664979934692
1772537115179167000,8.0511669921875,-0.12004310637712479,-0.0620022751390934,-1.0630906820297241
1772537115189215000,8.061215087890625,-0.09759046137332916,-0.021811818704009056,-0.9819861054420471
1772537115199263000,8.071262939453124,-0.030218608677387238,-0.20729060471057892,-0.7627853155136108
1772537115209312000,8.08131201171875,-0.042590733617544174,-0.23789997398853302,-0.5044842958450317
1772537115219360000,8.091360107421876,-0.1159200668334961,-0.18544341623783112,-0.2635345160961151
1772537115229408000,8.101407958984375,-0.1606750786304474,-0.05072919651865959,-0.06055687740445137
1772537115239456800,8.111456787109375,-0.13248737156391144,0.10881385952234268,0.003470042021945119
1772537115249505000,8.121505126953124,-0.05954713374376297,0.15435178577899933,-0.04722532629966736
1772537115259553000,8.131552978515625,0.025395981967449188,0.06693326681852341,-0.1431012600660324
1772537115269602000,8.14160205078125,0.08510319888591766,-0.06140066683292389,-0.2905615568161011
1772537115279650000,8.151650146484375,0.12538430094718933,-0.2362441122531891,-0.4718479812145233
1772537115289697800,8.16169775390625,0.17257657647132874,-0.33127155900001526,-0.6170315146446228
1772537115299747000,8.1717470703125,0.23664024472236633,-0.2765646278858185,-0.7183613181114197
1772537115309794800,8.181794921875,0.30509474873542786,-0.06742016971111298,-0.7936174869537354
1772537115319843000,8.191843017578124,0.3160371482372284,0.21291321516036987,-0.7850013375282288
1772537115329891800,8.201891845703125,0.3305285573005676,0.45152783393859863,-0.6580700874328613
1772537115339940000,8.211940185546876,0.3685861825942993,0.6371576189994812,-0.4734230041503906
1772537115349988000,8.221988037109375,0.37684187293052673,0.6023392081260681,-0.3402981460094452
1772537115360037000,8.232037109375,0.35292908549308777,0.40186813473701477,-0.3079015910625458
1772537115370085000,8.242085205078125,0.31716659665107727,0.20218338072299957,-0.3827986717224121
1772537115380134000,8.2521337890625,0.311326265335083,0.15249091386795044,-0.5081664323806763
1772537115390182100,8.26218212890625,0.3564050793647766,0.20974232256412506,-0.5316043496131897
1772537115400230000,8.27222998046875,0.3958798050880432,0.2962801456451416,-0.4406895935535431
1772537115410279000,8.28227880859375,0.4232926666736603,0.3854202330112457,-0.22421662509441376
1772537115420327000,8.292326904296875,0.413744181394577,0.40473562479019165,0.08625761419534683
1772537115430375200,8.302375244140626,0.35972318053245544,0.3516753911972046,0.41478580236434937
1772537115440424000,8.312423828125,0.2461545318365097,0.3148318827152252,0.6655336618423462
1772537115450472000,8.322471923828125,0.1337091475725174,0.3248802423477173,0.8375011086463928
1772537115460520000,8.33252001953125,0.06897063553333282,0.2692260146141052,0.9812992811203003
1772537115470569000,8.34256884765625,0.029957987368106842,0.19149620831012726,1.0740588903427124
1772537115480617000,8.352616943359376,0.005448383279144764,0.1602219045162201,1.101953148841858
1772537115490665000,8.3626650390625,-0.015973486006259918,0.17799189686775208,1.0522540807724
1772537115500714000,8.3727138671875,-0.010458611883223057,0.2093793749809265,0.9353052973747253
1772537115510762000,8.382761962890624,0.014423363842070103,0.2361404448747635,0.7548048496246338
1772537115520810000,8.39281005859375,-0.01674148067831993,0.2336927354335785,0.5408079028129578
1772537115530859000,8.40285888671875,-0.0849100723862648,0.14923274517059326,0.3748913109302521
1772537115540907000,8.412906982421875,-0.17181886732578278,0.0642549991607666,0.2406882345676422
1772537115550955000,8.422955078125,-0.2048501819372177,0.007399111520498991,0.2053786814212799
1772537115561004000,8.433004150390625,-0.15153849124908447,0.0011228402145206928,0.2894149720668793
1772537115571052000,8.443052001953125,-0.14157535135746002,0.07479599118232727,0.4071754217147827
1772537115581100000,8.45310009765625,-0.2761765718460083,0.1312400996685028,0.5328438878059387
1772537115591149000,8.463149169921875,-0.6015489101409912,-0.0013803238980472088,0.6249202489852905
1772537115601197000,8.473197021484374,-0.9692925810813904,-0.4381680190563202,0.5873838067054749
1772537115611244800,8.483244873046875,-1.2102707624435425,-0.8485633134841919,0.510822057723999
1772537115621294000,8.493294189453126,-1.1641578674316406,-0.9429678916931152,0.45389166474342346
1772537115631341800,8.503341796875,-0.9414919018745422,-0.7396226525306702,0.27400246262550354
1772537115641390000,8.51339013671875,-0.6095438003540039,-0.44450634717941284,-0.0460815392434597
1772537115651438800,8.52343896484375,-0.24131959676742554,-0.2081809788942337,-0.5036398768424988
1772537115661487000,8.533487060546875,0.03316362202167511,0.15559110045433044,-1.0792783498764038
1772537115671535000,8.54353515625,0.16009342670440674,0.5423004627227783,-1.5467345714569092
1772537115681583900,8.553583984375,0.053128354251384735,0.6741921901702881,-1.5212444067001343
1772537115691632000,8.563632080078126,-0.0668116956949234,0.38370680809020996,-1.1568100452423096
1772537115701679900,8.573679931640624,-0.1370975822210312,0.0224966648966074,-0.9583499431610107
1772537115711729200,8.583729248046875,-0.16776207089424133,-0.21166473627090454,-1.1466219425201416
1772537115721777000,8.59377685546875,-0.17244817316532135,-0.26163575053215027,-1.3243303298950195
1772537115731825000,8.603824951171875,-0.062384795397520065,-0.3650733232498169,-1.24760103225708
1772537115741874000,8.6138740234375,0.0702613964676857,-0.5868331789970398,-0.8461796045303345
1772537115751922000,8.623921875,0.06655634939670563,-0.6201175451278687,-0.26461169123649597
1772537115761970000,8.633969970703125,-0.018855225294828415,-0.412502259016037,0.2636452317237854
1772537115772019000,8.64401904296875,-0.09669070690870285,-0.22438056766986847,0.5909876823425293
1772537115782067000,8.65406689453125,-0.13466154038906097,-0.14840936660766602,0.7376314401626587
1772537115792115000,8.664114990234374,-0.1467045396566391,-0.13097763061523438,0.717414379119873
1772537115802164000,8.6741640625,-0.11950566619634628,-0.2774088680744171,0.6248947978019714
