time,seconds_elapsed,z,y,x
1772572698929569500,0.214569580078125,-0.029616355895996094,0.0181272029876709,0.014393001794815063
1772572698947408100,0.232408203125,-0.015494346618652344,0.0764702558517456,0.06248657777905464
1772572698965242400,0.250242431640625,-0.2521486282348633,0.07724308967590332,0.08729464560747147
1772572698983079000,0.268078857421875,-0.4203348159790039,0.1258946657180786,0.11410841345787048
1772572699000914700,0.285914794921875,-0.054459571838378906,0.11469781398773193,0.16468548774719238
1772572699018750500,0.30375048828125,0.3632535934448242,0.07335031032562256,0.1972307562828064
1772572699036586500,0.32158642578125,0.38539791107177734,-0.011483907699584961,0.11385215818881989
1772572699054422500,0.339422607421875,0.11209583282470703,-0.17874467372894287,-0.046012431383132935
1772572699072258300,0.35725830078125,-0.022106170654296875,-0.14434826374053955,-0.06771842390298843
1772572699090094300,0.37509423828125,0.03026294708251953,-0.0017056465148925781,0.029071703553199768
1772572699107930400,0.392930419921875,-0.06057453155517578,0.06690967082977295,0.06051647663116455
1772572699125766400,0.410766357421875,-0.2065868377685547,0.08088445663452148,0.08189503103494644
1772572699143602700,0.428602783203125,-0.1818075180053711,0.04631650447845459,0.08326081186532974
1772572699161438200,0.446438232421875,-0.07520198822021484,0.03146719932556152,0.08891379833221436
1772572699179274500,0.4642744140625,-0.046321868896484375,-0.033478736877441406,0.0560101643204689
1772572699197107500,0.482107421875,-0.17290592193603516,-0.05399596691131592,0.07413794100284576
1772572699214948400,0.4999482421875,-0.07785511016845703,0.026880264282226562,0.15108512341976166
1772572699232783400,0.517783447265625,0.02463531494140625,0.012028813362121582,0.17716476321220398
1772572699250618400,0.535618408203125,-0.07718849182128906,0.02258157730102539,0.16454462707042694
1772572699268454400,0.553454345703125,-0.11533164978027344,0.021141886711120605,0.15363004803657532
1772572699286290400,0.57129052734375,0.03908061981201172,0.040979623794555664,0.2636367082595825
1772572699304126500,0.58912646484375,0.024044036865234375,0.08716166019439697,0.27097639441490173
1772572699321962000,0.6069619140625,-0.22131061553955078,0.07041656970977783,0.16712021827697754
1772572699339798000,0.624798095703125,-0.32540035247802734,0.08944523334503174,0.1294216513633728
1772572699357634000,0.642634033203125,-0.1214284896850586,0.17819321155548096,0.19112737476825714
1772572699375470000,0.660469970703125,0.017787933349609375,0.14907217025756836,0.21485334634780884
1772572699393305900,0.678305908203125,0.008819580078125,0.010895252227783203,0.11260902881622314
1772572699411142400,0.696142333984375,0.014060020446777344,-0.11759865283966064,0.03825201466679573
1772572699428978200,0.713978271484375,0.09431171417236328,-0.09708225727081299,0.04679122567176819
1772572699446813700,0.731813720703125,0.04979705810546875,-0.0936729907989502,0.04370184987783432
1772572699464650200,0.749650146484375,-0.11063385009765625,-0.03526103496551514,0.05758944898843765
1772572699482470700,0.767470703125,-0.16428089141845703,0.01674175262451172,0.03023715317249298
1772572699500312000,0.78531201171875,0.03598213195800781,-0.000133514404296875,0.06057146191596985
1772572699518157800,0.80315771484375,0.11996078491210938,-0.046970367431640625,0.029519401490688324
1772572699535982600,0.820982666015625,-0.07634639739990234,-0.05227839946746826,-0.009029679000377655
1772572699553830000,0.838829833984375,-0.17520809173583984,-0.027980446815490723,-0.0010930076241493225
1772572699571666000,0.856666015625,-0.03388500213623047,0.010332584381103516,0.06553500890731812
1772572699589502000,0.874501953125,0.017049789428710938,0.006579399108886719,0.061481162905693054
1772572699607338000,0.892337890625,-0.009575843811035156,-0.019802093505859375,0.008084289729595184
1772572699625174000,0.910174072265625,-0.034305572509765625,-0.013054132461547852,0.032333239912986755
1772572699643009500,0.928009521484375,0.011888504028320312,0.014805197715759277,0.07902850955724716
1772572699660845600,0.945845458984375,-0.08106422424316406,0.03542137145996094,0.08518190681934357
1772572699678681900,0.963681884765625,-0.19636821746826172,0.03813326358795166,0.06143823638558388
1772572699696518000,0.981517822265625,-0.06020641326904297,0.07188129425048828,0.13125889003276825
1772572699714354000,0.99935400390625,0.04185009002685547,0.08258342742919922,0.14248064160346985
1772572699732189400,1.017189453125,0.007893562316894531,0.03494226932525635,0.10500622540712357
1772572699750025500,1.035025390625,-0.06504440307617188,0.04105377197265625,0.06225206330418587
1772572699767861800,1.05286181640625,-0.035388946533203125,0.05556333065032959,0.059876035898923874
1772572699785688600,1.0706884765625,0.0005664825439453125,0.08450734615325928,0.08807481825351715
1772572699803534300,1.088534423828125,0.014570236206054688,0.029850244522094727,0.045389268547296524
1772572699821365200,1.106365234375,-0.006571769714355469,-0.061953067779541016,-0.020986996591091156
1772572699839208400,1.12420849609375,-0.13800334930419922,-0.03248894214630127,-0.005711190402507782
1772572699857041400,1.14204150390625,-0.17575836181640625,0.06860053539276123,0.09101834893226624
1772572699874876400,1.15987646484375,-0.05836963653564453,-0.0015835762023925781,0.10237368196249008
1772572699892714200,1.17771435546875,0.008473396301269531,-0.12206339836120605,-0.0020877420902252197
1772572699910549500,1.195549560546875,-0.01593303680419922,-0.15593087673187256,-0.01499069482088089
1772572699928385500,1.213385498046875,0.018258094787597656,-0.08986258506774902,0.06654421240091324
1772572699946221600,1.2312216796875,0.10598945617675781,-0.05811798572540283,0.10720908641815186
1772572699964057300,1.249057373046875,0.05377388000488281,-0.069175124168396,0.08871421217918396
1772572699981893000,1.26689306640625,0.0032358169555664062,-0.0778510570526123,0.07570044696331024
1772572699999729400,1.2847294921875,-0.001270294189453125,-0.02115023136138916,0.08998289704322815
1772572700017565200,1.302565185546875,-0.10207557678222656,-0.01477515697479248,0.09559455513954163
1772572700035388700,1.320388671875,-0.06430625915527344,-0.04703712463378906,0.06631153076887131
1772572700053237500,1.338237548828125,-0.1096658706665039,0.001363992691040039,0.11473248153924942
1772572700071067400,1.3560673828125,-0.031099319458007812,0.05295729637145996,0.18574030697345734
1772572700088909800,1.373909912109375,-0.014678001403808594,0.045548081398010254,0.2132529616355896
1772572700106745000,1.3917451171875,0.001697540283203125,0.0006339550018310547,0.16663354635238647
1772572700124581000,1.4095810546875,-0.030335426330566406,0.017783641815185547,0.2059803456068039
1772572700142417200,1.427417236328125,-0.027014732360839844,0.05589902400970459,0.21405072510242462
1772572700160253200,1.445253173828125,-0.09646224975585938,0.02527332305908203,0.15602195262908936
1772572700178089200,1.463089111328125,-0.06978797912597656,-0.020150423049926758,0.10737686604261398
1772572700195922200,1.480922119140625,-0.010449409484863281,-0.02193617820739746,0.12331382930278778
1772572700213764400,1.498764404296875,-0.052379608154296875,-0.0002543926239013672,0.13926494121551514
1772572700231593200,1.51659326171875,-0.14520740509033203,0.031092524528503418,0.11164136230945587
1772572700249417200,1.534417236328125,-0.10570144653320312,0.006775975227355957,0.08207101374864578
1772572700267269000,1.55226904296875,0.05869770050048828,-0.04778480529785156,0.08736118674278259
1772572700285108200,1.570108154296875,0.1125020980834961,-0.10441005229949951,0.08517977595329285
1772572700302941000,1.58794091796875,0.023273468017578125,-0.03179013729095459,0.10842336714267731
1772572700320777000,1.60577685546875,-0.0705099105834961,0.040520668029785156,0.14228898286819458
1772572700338612700,1.62361279296875,-0.056082725524902344,-0.013491511344909668,0.1024339571595192
1772572700356448800,1.64144873046875,-0.05007171630859375,-0.07228100299835205,0.08499544858932495
1772572700374284800,1.659284912109375,0.0067615509033203125,-0.06727373600006104,0.11971420049667358
1772572700392120800,1.677120849609375,-0.08641719818115234,-0.014142394065856934,0.10357870161533356
1772572700409956600,1.69495654296875,-0.33150768280029297,0.030280709266662598,0.06896383315324783
1772572700427793000,1.71279296875,-0.4054594039916992,0.03344881534576416,0.04361821711063385
1772572700445628700,1.730628662109375,-0.2030801773071289,0.006389021873474121,0.02509702369570732
1772572700463465000,1.74846484375,-0.040726661682128906,-0.025215983390808105,0.050082478672266006
1772572700481300500,1.766300537109375,0.047420501708984375,0.011775851249694824,0.1253098100423813
1772572700499132000,1.7841318359375,-0.002780914306640625,0.06408953666687012,0.1497030109167099
1772572700516973000,1.80197314453125,-0.13048267364501953,0.0650550127029419,0.09463498741388321
1772572700534808600,1.81980859375,0.007151603698730469,-0.04068863391876221,-0.0011376850306987762
1772572700552644600,1.83764453125,0.1874866485595703,-0.07184433937072754,0.04391086474061012
1772572700570480600,1.855480712890625,0.25539112091064453,-0.0035265684127807617,0.11714757978916168
1772572700588317000,1.87331689453125,0.0956277847290039,-0.01916038990020752,0.0503409318625927
1772572700606153000,1.891153076171875,-0.0711812973022461,-0.011908650398254395,-0.0060911402106285095
1772572700623989000,1.908989013671875,-0.032677650451660156,-0.027837634086608887,-0.006387647241353989
1772572700641824500,1.926824462890625,-0.023593902587890625,-0.012299776077270508,0.051689475774765015
1772572700659660500,1.94466064453125,-0.09670352935791016,-0.00025260448455810547,0.06485269218683243
1772572700677493500,1.962493408203125,-0.11379337310791016,0.005174756050109863,0.0844150260090828
1772572700695332900,1.980332763671875,0.03928947448730469,-0.05315256118774414,0.0673585832118988
1772572700713172000,1.998171875,-0.012270927429199219,-0.05824780464172363,0.051792796701192856
1772572700731003400,2.01600341796875,-0.13895511627197266,-0.04477357864379883,0.07023222744464874
1772572700748841500,2.033841552734375,-0.1725177764892578,0.014002680778503418,0.12252484261989594
1772572700766677000,2.051677001953125,-0.07008743286132812,0.020149946212768555,0.16246068477630615
1772572700784512300,2.06951220703125,0.013200759887695312,-0.0781702995300293,0.13269153237342834
1772572700802336300,2.087336181640625,-0.055352210998535156,-0.12961864471435547,0.08375975489616394
1772572700820184600,2.1051845703125,-0.0834665298461914,-0.0431368350982666,0.1321229785680771
1772572700838020400,2.123020263671875,0.07074928283691406,0.06364655494689941,0.24769698083400726
1772572700855856000,2.140856201171875,0.07392311096191406,0.04720890522003174,0.21338950097560883
1772572700873692400,2.1586923828125,-0.12669849395751953,-0.005131125450134277,0.0884266197681427
1772572700891528400,2.176528564453125,-0.20140552520751953,-0.01249837875366211,0.03613106533885002
1772572700909360600,2.194360595703125,-0.11755561828613281,0.021248698234558105,0.06715855002403259
1772572700927200500,2.212200439453125,0.025646209716796875,0.024886131286621094,0.10835354775190353
1772572700945036500,2.23003662109375,0.037230491638183594,0.02694833278656006,0.13519243896007538
1772572700962872000,2.2478720703125,0.004337310791015625,0.07361507415771484,0.1645582616329193
1772572700980708000,2.2657080078125,0.07367801666259766,0.05814707279205322,0.18220776319503784
1772572700998544400,2.28354443359375,0.1186971664428711,-0.05031001567840576,0.0877741202712059
1772572701016380200,2.301380126953125,-0.1319904327392578,-0.04012799263000488,0.03729698807001114
1772572701034216400,2.319216552734375,-0.2169504165649414,0.03629016876220703,0.11176995187997818
1772572701052052200,2.33705224609375,0.06490421295166016,-0.0022661685943603516,0.12026463449001312
1772572701069888300,2.35488818359375,0.1077566146850586,-0.21891093254089355,-0.009638756513595581
1772572701087724300,2.372724365234375,-0.048221588134765625,-0.1998840570449829,-0.07030640542507172
1772572701105548000,2.390548095703125,-0.08896827697753906,-0.06119239330291748,0.04485610872507095
1772572701123396400,2.408396240234375,-0.09050750732421875,0.0523151159286499,0.13370810449123383
1772572701141230800,2.42623095703125,-0.17600536346435547,0.06299114227294922,0.1253127157688141
1772572701159069200,2.444069091796875,-0.21320343017578125,0.017877578735351562,0.05492377281188965
1772572701176904000,2.461904052734375,-0.16512489318847656,0.01718008518218994,0.05297606438398361
1772572701194740000,2.479739990234375,-0.0058269500732421875,0.03597712516784668,0.10276642441749573
1772572701212576300,2.497576171875,0.13331985473632812,0.011116743087768555,0.10831306129693985
1772572701230411800,2.515411865234375,0.045500755310058594,-0.0072678327560424805,0.08892129361629486
1772572701248248300,2.533248291015625,-0.009676933288574219,-0.0432438850402832,0.048838816583156586
1772572701266084000,2.551083984375,0.11765289306640625,-0.045892953872680664,0.04274123162031174
1772572701283920000,2.568919921875,0.07573223114013672,-0.030587077140808105,0.03821682184934616
1772572701301755600,2.586755615234375,-0.11639595031738281,-0.0065125226974487305,0.04244636371731758
1772572701319591700,2.604591796875,0.01854228973388672,0.022309064865112305,0.0913001149892807
1772572701337427700,2.622427734375,0.15886306762695312,-0.020229339599609375,0.09803073853254318
1772572701355263700,2.640263671875,0.025438308715820312,0.0016756057739257812,0.08181628584861755
1772572701373100000,2.65810009765625,-0.03634357452392578,0.023035764694213867,0.09243886917829514
1772572701390935800,2.675935791015625,0.057425498962402344,0.033641815185546875,0.15586936473846436
1772572701408760300,2.69376025390625,0.024311065673828125,0.0061397552490234375,0.1578005850315094
1772572701426607600,2.711607666015625,-0.08577442169189453,-0.0031883716583251953,0.15713684260845184
1772572701444444000,2.72944384765625,-0.18458938598632812,-0.005895256996154785,0.1349010467529297
1772572701462279700,2.74727978515625,-0.16945552825927734,-0.04630458354949951,0.1215503066778183
1772572701480100600,2.7651005859375,-0.14675617218017578,-0.08000445365905762,0.10627961903810501
1772572701497939700,2.782939697265625,-0.03973388671875,-0.017730116844177246,0.16264785826206207
1772572701515775700,2.800775634765625,0.04792213439941406,-0.05056202411651611,0.15116289258003235
1772572701533626400,2.81862646484375,-0.15566635131835938,-0.013428449630737305,0.13489171862602234
1772572701551459600,2.83645947265625,-0.2598600387573242,0.02232670783996582,0.14200538396835327
1772572701569300200,2.85430029296875,-0.12521076202392578,0.09644901752471924,0.21737566590309143
1772572701587131600,2.872131591796875,0.12928295135498047,0.03502845764160156,0.18507646024227142
1772572701604964600,2.889964599609375,0.017398834228515625,0.0035119056701660156,0.12422385811805725
1772572701622806300,2.90780615234375,-0.21247482299804688,0.03578507900238037,0.0786646381020546
1772572701640639200,2.92563916015625,-0.12355422973632812,0.11997437477111816,0.15004806220531464
1772572701658475500,2.9434755859375,0.05825042724609375,0.05219388008117676,0.1377348154783249
1772572701676311600,2.9613115234375,0.14023303985595703,-0.03103053569793701,0.06393767148256302
1772572701694147800,2.97914794921875,0.1048593521118164,-0.15105020999908447,-0.0014029815793037415
1772572701711983400,2.9969833984375,0.05131244659423828,-0.17377376556396484,-0.029552709311246872
1772572701729819400,3.0148193359375,-0.06957817077636719,-0.059760451316833496,0.06275245547294617
1772572701747655700,3.03265576171875,-0.19600772857666016,0.12248837947845459,0.1994917094707489
1772572701765491200,3.0504912109375,-0.2118673324584961,0.06573450565338135,0.1615346372127533
1772572701783327500,3.068327392578125,-0.07832908630371094,-0.09882020950317383,0.07410065829753876
1772572701801151000,3.08615087890625,-0.04455089569091797,-0.09954619407653809,0.09474769234657288
1772572701818999300,3.103999267578125,-0.08593368530273438,-0.0013670921325683594,0.16876637935638428
1772572701836823000,3.121822998046875,-0.1077413558959961,0.08272969722747803,0.20663446187973022
1772572701854671600,3.139671630859375,-0.04360198974609375,0.039600372314453125,0.15420293807983398
1772572701872503300,3.15750341796875,0.05925464630126953,-0.030806303024291992,0.12661752104759216
1772572701890343200,3.17534326171875,0.04707908630371094,-0.03977203369140625,0.09880541265010834
1772572701908179200,3.19317919921875,0.019384384155273438,-0.10259461402893066,0.027349984273314476
1772572701926015500,3.211015380859375,0.001949310302734375,-0.052800774574279785,0.040246717631816864
1772572701943851500,3.2288515625,0.02760791778564453,-0.027360081672668457,0.03769278898835182
1772572701961674800,3.2466748046875,-0.07799148559570312,-0.01863837242126465,0.08160914480686188
1772572701979523000,3.264523193359375,-0.06702709197998047,-0.0030823945999145508,0.06693609803915024
1772572701997359400,3.282359375,0.06119060516357422,-0.05183422565460205,0.11945410072803497
1772572702015195100,3.300195068359375,0.07291603088378906,-0.11324775218963623,0.0588054358959198
1772572702033017300,3.318017333984375,-0.14151382446289062,-0.08635056018829346,0.00982416607439518
1772572702050867200,3.3358671875,-0.16901683807373047,-0.023231983184814453,0.05378469452261925
1772572702068706600,3.35370654296875,-0.06625843048095703,0.017504096031188965,0.12934748828411102
1772572702086538500,3.37153857421875,-0.1487445831298828,-0.006478071212768555,0.09452706575393677
1772572702104375000,3.389375,-0.35631752014160156,-0.022439956665039062,0.044575631618499756
1772572702122210800,3.4072109375,-0.3656597137451172,0.023982763290405273,0.09296826273202896
1772572702140046600,3.425046630859375,-0.20803260803222656,0.020177364349365234,0.10276636481285095
1772572702157883000,3.4428828125,0.025970458984375,-0.11636853218078613,0.05695344880223274
1772572702175719000,3.460718994140625,0.1866903305053711,-0.12493360042572021,0.07443375885486603
1772572702193555200,3.47855517578125,0.15780067443847656,-0.07918667793273926,0.12221205979585648
1772572702211391000,3.496390869140625,0.1292715072631836,-0.014278769493103027,0.16275815665721893
1772572702229227000,3.51422705078125,0.012477874755859375,-0.044922471046447754,0.11265163868665695
1772572702247063000,3.53206298828125,0.003803253173828125,-0.07099723815917969,0.08015284687280655
1772572702264898000,3.54989794921875,0.07707500457763672,-0.004059910774230957,0.13008920848369598
1772572702282735600,3.567735595703125,0.04934120178222656,0.06652796268463135,0.1551527976989746
1772572702300557300,3.585557373046875,-0.04740333557128906,0.052179694175720215,0.11424556374549866
1772572702318407000,3.603406982421875,-0.12468719482421875,-0.04700827598571777,0.04738945513963699
1772572702336231700,3.621231689453125,-0.18039226531982422,-0.05702662467956543,0.04293272644281387
1772572702354078700,3.63907861328125,-0.28696155548095703,0.020808696746826172,0.09782740473747253
1772572702371902500,3.65690234375,-0.4187040328979492,0.1165781021118164,0.1686866283416748
1772572702389750500,3.67475048828125,-0.4014320373535156,0.15255439281463623,0.19892530143260956
1772572702407586600,3.692586669921875,-0.10663795471191406,0.03126025199890137,0.19852986931800842
1772572702425422600,3.710422607421875,0.24213218688964844,-0.05740845203399658,0.18864259123802185
1772572702443258400,3.72825830078125,0.25992774963378906,-0.03384387493133545,0.11999271810054779
1772572702461091000,3.746091064453125,0.025399208068847656,-0.02406442165374756,0.02498438209295273
1772572702478932700,3.7639326171875,-0.10772132873535156,0.0029261112213134766,-0.02991568297147751
1772572702496767200,3.781767333984375,-0.051265716552734375,-0.014177441596984863,-0.038612235337495804
1772572702514602800,3.799602783203125,0.04807758331298828,-0.015454769134521484,-0.04480453580617905
1772572702532437500,3.8174375,0.1187143325805664,-0.028657197952270508,-0.03266218304634094
1772572702550274800,3.83527490234375,0.2091236114501953,-0.037731289863586426,0.0106769148260355
1772572702568110300,3.8531103515625,0.2769136428833008,-0.10330331325531006,0.0014063399285078049
1772572702585946000,3.870946044921875,0.20015907287597656,-0.12428700923919678,-0.013458841480314732
1772572702603782100,3.8887822265625,0.036767005920410156,-0.07841622829437256,0.022375401109457016
1772572702621617700,3.90661767578125,-0.09854888916015625,-0.022089123725891113,0.09237903356552124
1772572702639441400,3.92444140625,-0.23605918884277344,-0.031110644340515137,0.09868286550045013
1772572702657290000,3.9422900390625,-0.3807344436645508,-0.050820231437683105,0.06719133257865906
1772572702675125800,3.960125732421875,-0.45267295837402344,-0.07358980178833008,0.04366384074091911
1772572702692962600,3.977962646484375,-0.2926979064941406,-0.030867695808410645,0.11409711837768555
1772572702710797800,3.9957978515625,0.007282257080078125,-0.02033054828643799,0.2338709831237793
1772572702728633900,4.0136337890625,0.038684844970703125,-0.04168581962585449,0.1818544864654541
1772572702746470000,4.031469970703125,-0.02068328857421875,-0.06870758533477783,0.08917362987995148
1772572702764305700,4.0493056640625,-0.016814231872558594,-0.07987546920776367,0.08477361500263214
1772572702782141400,4.067141357421875,0.117431640625,-0.01926398277282715,0.14563220739364624
1772572702799965200,4.084965087890625,0.1959218978881836,0.07616877555847168,0.2276521623134613
1772572702817813800,4.102813720703125,0.039646148681640625,0.06483256816864014,0.17263568937778473
1772572702835649800,4.12064990234375,-0.07945632934570312,0.022924304008483887,0.08805233240127563
1772572702853485800,4.13848583984375,-0.050670623779296875,0.002494215965270996,0.09946520626544952
1772572702871321300,4.1563212890625,0.058933258056640625,0.06324470043182373,0.18308693170547485
1772572702889157600,4.17415771484375,0.010251998901367188,0.07397747039794922,0.18475671112537384
1772572702906993400,4.191993408203125,-0.11485099792480469,-0.019162893295288086,0.09225250780582428
1772572702924829700,4.20982958984375,-0.23668384552001953,-0.05044245719909668,0.04264416545629501
1772572702942664700,4.227664794921875,-0.16581344604492188,-0.010754942893981934,0.08330186456441879
1772572702960501200,4.245501220703125,-0.05812263488769531,-0.019166111946105957,0.11256003379821777
1772572702978337000,4.2633369140625,-0.052684783935546875,0.006358504295349121,0.15811650454998016
1772572702996173600,4.281173583984375,-0.1371746063232422,-0.05083286762237549,0.08386709541082382
1772572703014009000,4.299009033203125,-0.13942527770996094,-0.05549287796020508,0.07281787693500519
1772572703031844900,4.316844970703125,0.07656669616699219,-0.06540858745574951,0.09361592680215836
1772572703049681000,4.334680908203125,0.02413654327392578,-0.019926905632019043,0.13009041547775269
1772572703067517000,4.352516845703125,-0.12707805633544922,0.005875945091247559,0.09639983624219894
1772572703085352700,4.370352783203125,-0.12134075164794922,0.005778074264526367,0.0945538729429245
1772572703103188700,4.388188720703125,0.050765037536621094,-0.059385061264038086,0.08036839216947556
1772572703121024500,4.4060244140625,0.018726348876953125,-0.04810953140258789,0.11510059237480164
1772572703138860300,4.4238603515625,-0.06537628173828125,-0.02365899085998535,0.10466650128364563
1772572703156696600,4.441696533203125,-0.09999752044677734,0.0240328311920166,0.12806436419487
1772572703174532600,4.45953271484375,-0.1454486846923828,0.04730665683746338,0.12762001156806946
1772572703192368400,4.477368408203125,-0.19446277618408203,0.03791844844818115,0.12061949074268341
1772572703210204200,4.4952041015625,-0.14589977264404297,0.016974806785583496,0.10583065450191498
1772572703228040400,4.51304052734375,-0.14275741577148438,0.01585209369659424,0.10520923137664795
1772572703245876000,4.5308759765625,-0.0016222000122070312,0.020116567611694336,0.10961870104074478
1772572703263712500,4.54871240234375,0.07874870300292969,0.06025409698486328,0.13500548899173737
1772572703281540400,4.566540283203125,0.10011768341064453,0.11124706268310547,0.17257174849510193
1772572703299380000,4.5843798828125,0.0981149673461914,0.12225818634033203,0.15530896186828613
1772572703317218800,4.60221875,0.16445159912109375,0.013903498649597168,0.09022553265094757
1772572703335058000,4.620057861328125,0.05358314514160156,-0.044840216636657715,0.028761960566043854
1772572703352892000,4.637891845703125,-0.1489419937133789,0.02570796012878418,0.03063049167394638
1772572703370728000,4.65572802734375,-0.34953975677490234,0.11677229404449463,0.0627809539437294
1772572703388563700,4.673563720703125,-0.30985355377197266,0.10538947582244873,0.11330088973045349
1772572703406399700,4.691399658203125,-0.073028564453125,-0.009264469146728516,0.1034020408987999
1772572703424235500,4.709235595703125,0.011566162109375,-0.1117393970489502,0.04193117469549179
1772572703442071300,4.7270712890625,-0.05634307861328125,-0.14612984657287598,0.012880563735961914
1772572703459907300,4.7449072265625,-0.09567642211914062,-0.05156600475311279,0.10783084481954575
1772572703477740300,4.762740234375,0.11993026733398438,0.04810667037963867,0.17550350725650787
1772572703495569400,4.7805693359375,0.20855236053466797,-0.007432818412780762,0.11750604957342148
1772572703513405400,4.798405517578125,0.06188392639160156,-0.13019442558288574,0.00019159913063049316
1772572703531254000,4.81625390625,-0.09720420837402344,-0.08034276962280273,0.013518109917640686
1772572703549087200,4.834087158203125,-0.0933685302734375,0.04802966117858887,0.08851666003465652
1772572703566923000,4.851923095703125,-0.12429332733154297,0.1405019760131836,0.14094585180282593
1772572703584759000,4.869759033203125,-0.21246337890625,0.09534060955047607,0.07651683688163757
1772572703602583600,4.88758349609375,-0.14204788208007812,-0.03288304805755615,-0.0014284849166870117
1772572703620430800,4.905430908203125,0.04569530487060547,-0.12232768535614014,0.011342622339725494
1772572703638267000,4.923266845703125,0.07315254211425781,-0.03150296211242676,0.11246379464864731
1772572703656090400,4.94109033203125,-0.13024044036865234,0.01972484588623047,0.12223492562770844
1772572703673930200,4.95893017578125,-0.2547483444213867,0.02084827423095703,0.09199658036231995
1772572703691774500,4.9767744140625,-0.14396381378173828,-0.026080012321472168,0.09114038944244385
1772572703709610200,4.9946103515625,0.0625,-0.05484318733215332,0.1309177428483963
1772572703727446500,5.012446533203125,0.15128517150878906,-0.029506444931030273,0.19565588235855103
1772572703745282300,5.0302822265625,0.053521156311035156,0.008541464805603027,0.20278817415237427
1772572703763118000,5.0481181640625,-0.05178260803222656,-0.014642000198364258,0.19126833975315094
1772572703780952300,5.065952392578125,0.03371715545654297,-0.05500924587249756,0.17406794428825378
1772572703798792000,5.0837919921875,0.0679779052734375,-0.07611775398254395,0.14692334830760956
1772572703816626200,5.101626220703125,-0.24863815307617188,0.0174177885055542,0.1346147060394287
1772572703834462000,5.1194619140625,-0.5227127075195312,0.11334192752838135,0.1221640482544899
1772572703852297700,5.137297607421875,-0.42876625061035156,0.06615686416625977,0.06988871842622757
1772572703870129400,5.15512939453125,-0.18910598754882812,0.011458873748779297,0.07294491678476334
1772572703887973600,5.1729736328125,-0.14332866668701172,0.05351459980010986,0.1425345540046692
1772572703905794600,5.190794677734375,-0.15485668182373047,0.08954918384552002,0.1721113622188568
1772572703923641300,5.208641357421875,0.0033521652221679688,0.02262425422668457,0.16264571249485016
1772572703941477000,5.22647705078125,0.1540851593017578,-0.05231583118438721,0.14574560523033142
1772572703959309000,5.24430908203125,0.2124309539794922,-0.08228671550750732,0.16187915205955505
1772572703977149000,5.26214892578125,0.0999288558959961,-0.012241840362548828,0.16863062977790833
1772572703994984000,5.27998388671875,0.0979766845703125,0.022969484329223633,0.19267821311950684
1772572704012822300,5.297822265625,0.08339405059814453,0.011385440826416016,0.16587314009666443
1772572704030656800,5.31565673828125,-0.013641357421875,-0.06820428371429443,0.08807727694511414
1772572704048493000,5.3334931640625,-0.09768867492675781,-0.026751041412353516,0.11341943591833115
1772572704066328800,5.351328857421875,-0.08489608764648438,0.003113269805908203,0.11029668897390366
1772572704084152300,5.36915234375,-0.04149818420410156,0.0006351470947265625,0.09118149429559708
1772572704101998800,5.386998779296875,-0.06409454345703125,-0.02597367763519287,0.05375055968761444
1772572704119836200,5.404836181640625,-0.13021564483642578,-0.01407158374786377,0.0410393550992012
1772572704137672200,5.422672119140625,-0.11267757415771484,-0.02375185489654541,0.030667327344417572
1772572704155508200,5.44050830078125,0.00522613525390625,-0.05156970024108887,0.04638823866844177
1772572704173343700,5.45834375,0.02457904815673828,-0.08468842506408691,0.022975843399763107
1772572704191180000,5.476179931640625,-0.03363800048828125,-0.03719353675842285,0.042546212673187256
1772572704209016000,5.49401611328125,-0.13286876678466797,0.032682180404663086,0.08512094616889954
1772572704226851800,5.511851806640625,-0.12978744506835938,0.03599750995635986,0.09819857776165009
1772572704244687600,5.5296875,-0.0464019775390625,-0.04014706611633301,0.10152404010295868
1772572704262523400,5.5475234375,0.07449626922607422,-0.10631287097930908,0.09856050461530685
1772572704280359400,5.565359375,0.008900642395019531,-0.07972776889801025,0.15122616291046143
1772572704298196500,5.583196533203125,-0.1565876007080078,0.00973045825958252,0.19938169419765472
1772572704316030700,5.60103076171875,-0.28795623779296875,0.07449162006378174,0.22537720203399658
1772572704333864200,5.6188642578125,-0.17596435546875,0.01122903823852539,0.19854208827018738
1772572704351706000,5.6367060546875,0.012525558471679688,-0.0071141719818115234,0.23121914267539978
1772572704369538800,5.654538818359375,0.055245399475097656,-0.03499734401702881,0.1921834945678711
1772572704387374800,5.672374755859375,0.02469635009765625,-0.05449116230010986,0.12266132235527039
1772572704405210600,5.690210693359375,-0.009968757629394531,-0.018388867378234863,0.09562750905752182
1772572704423046700,5.708046630859375,-0.07123279571533203,-0.00008594989776611328,0.08723466098308563
1772572704440882400,5.72588232421875,-0.14022541046142578,-0.01633584499359131,0.046018362045288086
1772572704458718500,5.743718505859375,-0.19324398040771484,-0.0011812448501586914,0.08159220218658447
1772572704476554200,5.76155419921875,-0.08473587036132812,-0.026797175407409668,0.07835188508033752
1772572704494390500,5.779390625,0.02886199951171875,-0.1439875364303589,0.0051600150763988495
1772572704512226600,5.7972265625,-0.0050201416015625,-0.19728446006774902,-0.02827238291501999
1772572704530062000,5.81506201171875,-0.09575176239013672,-0.11132609844207764,0.061197832226753235
1772572704547897900,5.83289794921875,-0.029485702514648438,-0.013958930969238281,0.14600662887096405
1772572704565734100,5.850734130859375,0.058640480041503906,-0.04846227169036865,0.15348368883132935
1772572704583570000,5.86856982421875,-0.040843963623046875,-0.07888674736022949,0.12720397114753723
1772572704601405400,5.886405517578125,-0.22077655792236328,-0.014434456825256348,0.12796735763549805
1772572704619242000,5.904241943359375,-0.2266092300415039,0.052477359771728516,0.16747677326202393
1772572704637079600,5.92207958984375,-0.14276123046875,0.010603070259094238,0.18043234944343567
1772572704654911500,5.939911376953125,-0.027266502380371094,-0.06213510036468506,0.14632856845855713
1772572704672750000,5.95775,-0.0027379989624023438,-0.07095742225646973,0.1520615965127945
1772572704690585000,5.975585205078125,0.04537010192871094,-0.06935107707977295,0.16311359405517578
1772572704708420900,5.9934208984375,0.017905235290527344,-0.08942568302154541,0.14644062519073486
1772572704726257000,6.0112568359375,-0.03074359893798828,-0.08460533618927002,0.08654817938804626
1772572704744093000,6.029093017578125,-0.0854330062866211,-0.0786581039428711,0.06116321682929993
1772572704761928200,6.04692822265625,-0.0945119857788086,-0.04715311527252197,0.023333460092544556
1772572704779764200,6.06476416015625,-0.028143882751464844,-0.049468398094177246,-0.011913750320672989
1772572704797597000,6.082596923828125,0.009001731872558594,-0.05850851535797119,-0.04312456026673317
1772572704815439600,6.100439697265625,-0.0787649154663086,-0.059092164039611816,-0.08450336754322052
1772572704833271300,6.118271240234375,-0.07947826385498047,0.00004172325134277344,-0.05350706726312637
1772572704851108900,6.13610888671875,-0.09974098205566406,0.0031042098999023438,-0.044516392052173615
1772572704868944000,6.15394384765625,-0.1303548812866211,-0.01710820198059082,-0.043266840279102325
1772572704886779600,6.171779541015625,-0.09501457214355469,-0.055005550384521484,-0.011624233797192574
1772572704904615700,6.18961572265625,0.03243255615234375,-0.023290276527404785,0.11782518029212952
1772572704922451200,6.207451171875,0.057051658630371094,0.003644108772277832,0.16095489263534546
1772572704940287200,6.225287353515625,-0.016295433044433594,-0.016357898712158203,0.11587309837341309
1772572704958122800,6.243122802734375,-0.054904937744140625,-0.004141807556152344,0.11686503142118454
1772572704975958800,6.260958740234375,-0.02234172821044922,0.08422982692718506,0.18321992456912994
1772572704993795000,6.278795166015625,0.042003631591796875,0.11903584003448486,0.2071465253829956
1772572705011630600,6.296630615234375,0.001483917236328125,0.04477858543395996,0.11477376520633698
1772572705029455000,6.314455078125,0.004622459411621094,-0.04378080368041992,0.05334512144327164
1772572705047302700,6.332302734375,0.009415626525878906,-0.05054628849029541,0.07071041315793991
1772572705065138400,6.350138427734375,0.006266593933105469,0.0374068021774292,0.07724449783563614
1772572705082974000,6.367973876953125,-0.10238170623779297,0.0592653751373291,0.05589458346366882
1772572705100810200,6.385810302734375,-0.19834613800048828,0.010214567184448242,0.023343300446867943
1772572705118646000,6.40364599609375,-0.09110164642333984,-0.07091295719146729,0.023649979382753372
1772572705136482000,6.42148193359375,0.07738685607910156,-0.07287299633026123,0.14166392385959625
1772572705154317800,6.43931787109375,0.01825237274169922,0.02164781093597412,0.25327298045158386
1772572705172153600,6.457153564453125,-0.13851356506347656,0.07558989524841309,0.3045497238636017
1772572705189989400,6.4749892578125,-0.08625984191894531,0.09125733375549316,0.3384084105491638
1772572705207813600,6.492813720703125,0.015024185180664062,0.05388367176055908,0.3066743314266205
1772572705225656600,6.510656494140625,-0.02545166015625,0.044774532318115234,0.22803935408592224
1772572705243497000,6.5284970703125,-0.0718393325805664,0.041968345642089844,0.19547796249389648
1772572705261328600,6.54632861328125,-0.06282997131347656,-0.009900212287902832,0.13917885720729828
1772572705279172400,6.56417236328125,0.0011987686157226562,-0.060544371604919434,0.05520712584257126
1772572705297004800,6.5820048828125,-0.022553443908691406,-0.09529221057891846,-0.002951614558696747
1772572705314840300,6.59984033203125,-0.07713890075683594,-0.05875682830810547,-0.008958032354712486
1772572705332676600,6.617676513671875,-0.057639122009277344,-0.02898240089416504,0.04243725538253784
1772572705350512000,6.63551220703125,0.002452850341796875,-0.04939079284667969,0.048047713935375214
1772572705368348200,6.65334814453125,0.03965950012207031,-0.12121725082397461,0.03331476077437401
1772572705386184000,6.671183837890625,0.06254100799560547,-0.12615585327148438,0.0528724268078804
1772572705404007700,6.689007568359375,0.012308120727539062,-0.07899856567382812,0.08482646942138672
1772572705421855500,6.70685546875,-0.08814525604248047,-0.047096848487854004,0.07238434255123138
1772572705439691300,6.724691162109375,-0.09914016723632812,0.027215123176574707,0.12319204956293106
1772572705457520000,6.74252001953125,-0.11854839324951172,0.10415279865264893,0.17566753923892975
1772572705475347700,6.76034765625,-0.11720561981201172,0.1556304693222046,0.21291980147361755
1772572705493187300,6.778187255859375,-0.13208484649658203,0.1300666332244873,0.17090469598770142
1772572705511025400,6.796025390625,-0.1628246307373047,0.06069505214691162,0.08755418658256531
1772572705528873200,6.813873291015625,-0.06915283203125,-0.0024933815002441406,0.015514868311583996
1772572705546706700,6.831706787109375,0.06508350372314453,-0.014203310012817383,0.011500712484121323
1772572705564542500,6.84954248046875,0.056110382080078125,0.01888120174407959,0.052898503839969635
1772572705582378200,6.867378173828125,0.02840423583984375,0.057965636253356934,0.0774972140789032
1772572705600214000,6.885214111328125,-0.04900932312011719,0.034444570541381836,0.06916359812021255
1772572705618050000,6.903050048828125,-0.06275653839111328,-0.04212212562561035,0.020612157881259918
1772572705635882800,6.9208828125,-0.022635459899902344,-0.0978626012802124,-0.005339110270142555
1772572705653725000,6.938724853515625,0.019193649291992188,-0.10379362106323242,0.01525375247001648
1772572705671556000,6.95655615234375,-0.029001235961914062,-0.0990443229675293,0.03175869584083557
1772572705689389000,6.97438916015625,-0.16371440887451172,-0.1475132703781128,0.011623715981841087
1772572705707229000,6.99222900390625,-0.32182788848876953,-0.1310204267501831,-0.013598285615444183
1772572705725064700,7.010064697265625,-0.39194488525390625,-0.05294656753540039,0.03944315016269684
1772572705742900700,7.027900634765625,-0.22844505310058594,0.019777894020080566,0.1331244707107544
1772572705760736300,7.045736328125,-0.041156768798828125,-0.03463125228881836,0.12039263546466827
1772572705778572300,7.063572265625,-0.044304847717285156,-0.05244636535644531,0.10285838693380356
1772572705796408600,7.08140869140625,-0.02201557159423828,-0.010686159133911133,0.12283652275800705
1772572705814244600,7.09924462890625,0.024590492248535156,0.0513836145401001,0.16356177628040314
1772572705832080000,7.117079833984375,0.12256050109863281,0.048354387283325195,0.15499095618724823
1772572705849915600,7.13491552734375,0.18304824829101562,0.0526432991027832,0.13246828317642212
1772572705867751700,7.152751708984375,0.09011459350585938,0.05729329586029053,0.13979129493236542
1772572705885587200,7.170587158203125,-0.05370807647705078,0.0905766487121582,0.16005508601665497
1772572705903408000,7.188408203125,-0.1432209014892578,0.05304431915283203,0.07414042949676514
1772572705921261800,7.20626171875,-0.1292095184326172,-0.026612043380737305,0.007408773526549339
1772572705939086800,7.2240869140625,-0.1449422836303711,-0.04272329807281494,0.02258295938372612
1772572705956930800,7.241930908203125,-0.10179424285888672,-0.025223135948181152,0.07088153809309006
1772572705974754000,7.259754150390625,-0.11986160278320312,-0.0540083646774292,0.0499744713306427
1772572705992602600,7.2776025390625,-0.18561935424804688,-0.05945563316345215,0.010201526805758476
1772572706010438100,7.295438232421875,-0.1962118148803711,-0.010795950889587402,0.025466376915574074
1772572706028274000,7.31327392578125,-0.07344818115234375,0.06875097751617432,0.09085119515657425
1772572706046110200,7.331110107421875,-0.016939163208007812,0.07267558574676514,0.07503809034824371
1772572706063946000,7.348946044921875,-0.1228017807006836,0.026819229125976562,-0.003498939797282219
1772572706081781200,7.36678125,-0.15943431854248047,0.03779101371765137,-0.029460042715072632
1772572706099617300,7.3846171875,0.045302391052246094,-0.008051633834838867,-0.054572053253650665
1772572706117453000,7.402453125,0.15976428985595703,-0.042313575744628906,-0.04781021922826767
1772572706135286000,7.4202861328125,0.17788982391357422,-0.0012794733047485352,-0.016717281192541122
1772572706153128000,7.4381279296875,0.1635913848876953,-0.01095879077911377,0.009878779761493206
1772572706170960100,7.455960205078125,0.16231632232666016,-0.06278765201568604,-0.0006875786930322647
1772572706188796200,7.473796142578125,0.1318817138671875,-0.0026155710220336914,0.0491994172334671
1772572706206632000,7.4916318359375,0.059271812438964844,0.032283782958984375,0.11357593536376953
1772572706224468000,7.509468017578125,-0.03907299041748047,0.030676841735839844,0.15569117665290833
1772572706242303700,7.5273037109375,-0.10259151458740234,0.021770954132080078,0.16505874693393707
1772572706260139500,7.545139404296875,-0.13064193725585938,-0.03358292579650879,0.14314967393875122
1772572706277975300,7.562975341796875,-0.1692790985107422,-0.016301512718200684,0.1844525933265686
1772572706295811300,7.580811279296875,-0.08907222747802734,-0.004316568374633789,0.24430635571479797
1772572706313647000,7.598647216796875,-0.038727760314941406,-0.07286965847015381,0.23496371507644653
1772572706331482600,7.616482666015625,-0.2368783950805664,-0.13155770301818848,0.14624406397342682
1772572706349314600,7.634314453125,-0.4363975524902344,-0.07582521438598633,0.14262709021568298
1772572706367154400,7.652154541015625,-0.3316221237182617,-0.031013965606689453,0.21182751655578613
1772572706384987600,7.669987548828125,-0.12262630462646484,-0.04664349555969238,0.2438656985759735
1772572706402829800,7.687829833984375,-0.06664562225341797,-0.09890687465667725,0.19780346751213074
1772572706420661800,7.705661865234375,-0.0766143798828125,-0.13260531425476074,0.13688436150550842
1772572706438497800,7.723497802734375,-0.03931903839111328,-0.0785067081451416,0.16236864030361176
1772572706456333600,7.74133349609375,-0.07263374328613281,-0.01773810386657715,0.19127999246120453
1772572706474169300,7.75916943359375,-0.09223079681396484,-0.03156840801239014,0.1835576891899109
1772572706492004900,7.7770048828125,0.0029001235961914062,-0.05921506881713867,0.14479690790176392
1772572706509840600,7.794840576171875,0.08228492736816406,-0.09601223468780518,0.16146843135356903
1772572706527677000,7.812677001953125,-0.023077011108398438,-0.044196367263793945,0.11352366954088211
1772572706545503500,7.83050341796875,-0.1759796142578125,-0.015093207359313965,0.10051565617322922
1772572706563348000,7.848347900390625,-0.15193653106689453,0.014073610305786133,0.13803493976593018
1772572706581181000,7.866180908203125,-0.05670356750488281,0.027585268020629883,0.15222422778606415
1772572706599022600,7.884022705078125,-0.0072193145751953125,-0.02190840244293213,0.1504310518503189
1772572706616855800,7.901855712890625,0.01620197296142578,-0.06153988838195801,0.13491366803646088
1772572706634691600,7.919691650390625,0.001277923583984375,-0.03313922882080078,0.1461094319820404
1772572706652527000,7.937527099609375,-0.11156272888183594,0.018430113792419434,0.16188348829746246
1772572706670363000,7.95536279296875,-0.14870071411132812,0.05569493770599365,0.1968010514974594
1772572706688198700,7.97319873046875,-0.05368995666503906,0.030384540557861328,0.22839456796646118
1772572706706034700,7.99103466796875,-0.004832267761230469,-0.022415757179260254,0.1663161814212799
1772572706723870200,8.0088701171875,-0.1095266342163086,-0.06579828262329102,0.10288512706756592
1772572706741706000,8.0267060546875,-0.1876506805419922,-0.02284717559814453,0.12290298193693161
1772572706759541500,8.04454150390625,-0.12270736694335938,0.02853250503540039,0.15927931666374207
1772572706777368800,8.062368896484376,-0.04972362518310547,-0.03210186958312988,0.1336878091096878
1772572706795213800,8.0802138671875,-0.05845832824707031,-0.05628025531768799,0.11024456471204758
1772572706813049300,8.09804931640625,0.011784553527832031,0.0002677440643310547,0.10964742302894592
1772572706830885000,8.115885009765625,0.11147499084472656,0.037621259689331055,0.1802026331424713
1772572706848721000,8.133720947265624,0.08751296997070312,0.1801522970199585,0.12293863296508789
1772572706866556700,8.151556640625,-0.0657644271850586,-0.10852432250976562,-0.09006083011627197
1772572706884392200,8.16939208984375,-0.0944509506225586,-0.237693190574646,-0.08214320242404938
1772572706902228200,8.187228271484376,-0.22093582153320312,-0.2267976999282837,-0.17628459632396698
1772572706920063700,8.205063720703125,-0.25650787353515625,-0.1660306453704834,-0.10800882428884506
1772572706937899800,8.222899658203126,-0.0905923843383789,0.059633731842041016,0.10304317623376846
1772572706955735600,8.240735595703125,0.05982017517089844,-0.04906332492828369,0.12589450180530548
