time,seconds_elapsed,z,y,x
1772572698840393700,0.125393798828125,9.56471061706543,1.5517455339431763,-0.15553347766399384
1772572698858227000,0.14322705078125,9.569496154785156,1.5326029062271118,-0.10289137065410614
1772572698876062700,0.161062744140625,9.688538551330566,1.609771490097046,-0.13160525262355804
1772572698893895000,0.17889501953125,9.688538551330566,1.6289139986038208,-0.12203395366668701
1772572698911739000,0.19673876953125,9.616754531860352,1.6139588356018066,-0.13160525262355804
1772572698929569500,0.214569580078125,9.650253295898438,1.662413477897644,-0.05503492057323456
1772572698947408100,0.232408203125,9.65503978729248,1.72941255569458,-0.01734796352684498
1772572698965242400,0.250242431640625,9.325428009033203,1.7132610082626343,-0.008374879136681557
1772572698983079000,0.268078857421875,9.230313301086426,1.7653049230575562,0.02512463741004467
1772572699000914700,0.285914794921875,9.769296646118164,1.7066807746887207,0.09810572862625122
1772572699018750500,0.30375048828125,10.156335830688477,1.6606189012527466,0.12263216078281403
1772572699036586500,0.32158642578125,10.032506942749023,1.5547364950180054,-0.01615155301988125
1772572699054422500,0.339422607421875,9.698110580444336,1.389631748199463,-0.18843477964401245
1772572699072258300,0.35725830078125,9.631111145019531,1.5092729330062866,-0.15074782073497772
1772572699090094300,0.37509423828125,9.722038269042969,1.672582983970642,-0.02632104977965355
1772572699107930400,0.392930419921875,9.56889820098877,1.7336000204086304,-0.026919255033135414
1772572699125766400,0.410766357421875,9.41635513305664,1.7377874851226807,0.006580262444913387
1772572699143602700,0.428602783203125,9.507282257080078,1.7048860788345337,0.001794616924598813
1772572699161438200,0.446438232421875,9.626325607299805,1.6959130764007568,0.01615155301988125
1772572699179274500,0.4642744140625,9.611968994140625,1.6145570278167725,-0.02632104977965355
1772572699197107500,0.482107421875,9.45464038848877,1.6133606433868408,0.01615155301988125
1772572699214948400,0.4999482421875,9.645467758178711,1.705484390258789,0.10229317098855972
1772572699232783400,0.517783447265625,9.707681655883789,1.6534404754638672,0.11186445504426956
1772572699250618400,0.535618408203125,9.55513858795166,1.6761722564697266,0.08793623000383377
1772572699268454400,0.553454345703125,9.550353050231934,1.6713865995407104,0.10229317098855972
1772572699286290400,0.57129052734375,9.77408218383789,1.716252088546753,0.25064817070961
1772572699304126500,0.58912646484375,9.645467758178711,1.7539390325546265,0.19800607860088348
1772572699321962000,0.6069619140625,9.373284339904785,1.7138592004776,0.058624155819416046
1772572699339798000,0.624798095703125,9.334999084472656,1.7467604875564575,0.04905286431312561
1772572699357634000,0.642634033203125,9.630513191223145,1.8394824266433716,0.13579268753528595
1772572699375470000,0.660469970703125,9.716654777526855,1.7539390325546265,0.13579268753528595
1772572699393305900,0.678305908203125,9.678967475891113,1.5858432054519653,-0.0023928226437419653
1772572699411142400,0.696142333984375,9.693324089050293,1.4763715267181396,-0.05024927482008934
1772572699428978200,0.713978271484375,9.798608779907227,1.5487544536590576,-0.01615155301988125
1772572699446813700,0.731813720703125,9.688538551330566,1.5337992906570435,-0.031106693670153618
1772572699464650200,0.749650146484375,9.516854286193848,1.6187444925308228,-0.01734796352684498
1772572699482470700,0.767470703125,9.506684303283691,1.6522440910339355,-0.06041877344250679
1772572699500312000,0.78531201171875,9.79801082611084,1.6151553392410278,-0.01196411345154047
1772572699518157800,0.80315771484375,9.784252166748047,1.5720844268798828,-0.0687936544418335
1772572699535982600,0.820982666015625,9.521639823913574,1.5900306701660156,-0.11246266216039658
1772572699553830000,0.838829833984375,9.483354568481445,1.6277176141738892,-0.07477571070194244
1772572699571666000,0.856666015625,9.68375301361084,1.662413477897644,0.0023928226437419653
1772572699589502000,0.874501953125,9.698110580444336,1.638485312461853,-0.031106693670153618
1772572699607338000,0.892337890625,9.645467758178711,1.6049858331680298,-0.08853443711996078
1772572699625174000,0.910174072265625,9.640682220458984,1.6193426847457886,-0.040677983313798904
1772572699643009500,0.928009521484375,9.693324089050293,1.643869161605835,0.007178467698395252
1772572699660845600,0.945845458984375,9.554540634155273,1.6522440910339355,-0.0077766734175384045
1772572699678681900,0.963681884765625,9.464211463928223,1.6564314365386963,-0.022133609279990196
1772572699696518000,0.981517822265625,9.674181938171387,1.6911274194717407,0.0687936544418335
1772572699714354000,0.99935400390625,9.741181373596191,1.6917256116867065,0.054436713457107544
1772572699732189400,1.017189453125,9.664610862731934,1.6241283416748047,-0.0023928226437419653
1772572699750025500,1.035025390625,9.597611427307129,1.6426727771759033,-0.04127619042992592
1772572699767861800,1.05286181640625,9.659825325012207,1.6576279401779175,-0.031106693670153618
1772572699785688600,1.0706884765625,9.68375301361084,1.6863417625427246,0.0023928226437419653
1772572699803534300,1.088534423828125,9.702896118164062,1.6002001762390137,-0.064606212079525
1772572699821365200,1.106365234375,9.650253295898438,1.5140584707260132,-0.13160525262355804
1772572699839208400,1.12420849609375,9.497711181640625,1.5996019840240479,-0.06999006122350693
1772572699857041400,1.14204150390625,9.506684303283691,1.7096717357635498,0.04486542567610741
1772572699874876400,1.15987646484375,9.664610862731934,1.571486234664917,0.016749758273363113
1772572699892714200,1.17771435546875,9.698110580444336,1.4470595121383667,-0.10707881301641464
1772572699910549500,1.195549560546875,9.655637741088867,1.4422738552093506,-0.07896314561367035
1772572699928385500,1.213385498046875,9.722038269042969,1.5290136337280273,0.031106693670153618
1772572699946221600,1.2312216796875,9.803394317626953,1.5439687967300415,0.05024927482008934
1772572699964057300,1.249057373046875,9.712467193603516,1.5194423198699951,0.016749758273363113
1772572699981893000,1.26689306640625,9.669994354248047,1.5236297845840454,0.016749758273363113
1772572699999729400,1.2847294921875,9.66939640045166,1.6002001762390137,0.02632104977965355
1772572700017565200,1.302565185546875,9.55513858795166,1.5900306701660156,0.03529413416981697
1772572700035388700,1.320388671875,9.626923561096191,1.547558069229126,-0.007178467698395252
1772572700053237500,1.338237548828125,9.550353050231934,1.633699655532837,0.08793623000383377
1772572700071067400,1.3560673828125,9.678967475891113,1.672582983970642,0.1453639715909958
1772572700088909800,1.373909912109375,9.659825325012207,1.648654818534851,0.16929219663143158
1772572700106745000,1.3917451171875,9.68375301361084,1.5960127115249634,0.0975075215101242
1772572700124581000,1.4095810546875,9.635896682739258,1.648654818534851,0.1788634955883026
1772572700142417200,1.427417236328125,9.645467758178711,1.6773686408996582,0.15972091257572174
1772572700160253200,1.445253173828125,9.56471061706543,1.6241283416748047,0.08315058797597885
1772572700178089200,1.463089111328125,9.621540069580078,1.5858432054519653,0.05024927482008934
1772572700195922200,1.480922119140625,9.68375301361084,1.5960127115249634,0.08374879509210587
1772572700213764400,1.498764404296875,9.597611427307129,1.633699655532837,0.0975075215101242
1772572700231593200,1.51659326171875,9.507282257080078,1.6618152856826782,0.054436713457107544
1772572700249417200,1.534417236328125,9.592825889587402,1.6289139986038208,0.03529413416981697
1772572700267269000,1.55226904296875,9.789037704467773,1.5583257675170898,0.05503492057323456
1772572700285108200,1.570108154296875,9.784252166748047,1.5104693174362183,0.04546362906694412
1772572700302941000,1.58794091796875,9.66939640045166,1.6295121908187866,0.0687936544418335
1772572700320777000,1.60577685546875,9.578469276428223,1.6863417625427246,0.0975075215101242
1772572700338612700,1.62361279296875,9.626325607299805,1.5906288623809814,0.035892341285943985
1772572700356448800,1.64144873046875,9.626923561096191,1.5571293830871582,0.04007977992296219
1772572700374284800,1.659284912109375,9.698110580444336,1.5912270545959473,0.08315058797597885
1772572700392120800,1.677120849609375,9.5264253616333,1.657029628753662,0.04007977992296219
1772572700409956600,1.69495654296875,9.263813018798828,1.6983058452606201,-0.008374879136681557
1772572700427793000,1.71279296875,9.268598556518555,1.669592022895813,-0.0323031060397625
1772572700445628700,1.730628662109375,9.54078197479248,1.628315806388855,-0.0364905446767807
1772572700463465000,1.74846484375,9.674181938171387,1.5954145193099976,-0.0023928226437419653
1772572700481300500,1.766300537109375,9.750752449035645,1.6534404754638672,0.08853443711996078
1772572700499132000,1.7841318359375,9.635896682739258,1.705484390258789,0.08793623000383377
1772572700516973000,1.80197314453125,9.516255378723145,1.6761722564697266,0.001794616924598813
1772572700534808600,1.81980859375,9.745966911315918,1.5433706045150757,-0.07836493849754333
1772572700552644600,1.83764453125,9.903294563293457,1.5445669889450073,0.01734796352684498
1772572700570480600,1.855480712890625,9.941579818725586,1.6354942321777344,0.07956135272979736
1772572700588317000,1.87331689453125,9.698110580444336,1.5960127115249634,-0.04546362906694412
1772572700606153000,1.891153076171875,9.573683738708496,1.6139588356018066,-0.08853443711996078
1772572700623989000,1.908989013671875,9.65503978729248,1.5954145193099976,-0.059820566326379776
1772572700641824500,1.926824462890625,9.650253295898438,1.6241283416748047,0.01196411345154047
1772572700659660500,1.94466064453125,9.54078197479248,1.6378871202468872,0.001794616924598813
1772572700677493500,1.962493408203125,9.573683738708496,1.633699655532837,0.025722842663526535
1772572700695332900,1.980332763671875,9.760323524475098,1.557727575302124,0.0023928226437419653
1772572700713172000,1.998171875,9.626325607299805,1.576271891593933,-0.007178467698395252
1772572700731003400,2.01600341796875,9.497711181640625,1.5996019840240479,0.025722842663526535
1772572700748841500,2.033841552734375,9.497711181640625,1.6761722564697266,0.0975075215101242
1772572700766677000,2.051677001953125,9.645467758178711,1.6528422832489014,0.13579268753528595
1772572700784512300,2.06951220703125,9.702896118164062,1.5242279767990112,0.08374879509210587
1772572700802336300,2.087336181640625,9.588638305664062,1.5044872760772705,0.040677983313798904
1772572700820184600,2.1051845703125,9.592825889587402,1.6289139986038208,0.13100704550743103
1772572700838020400,2.123020263671875,9.79801082611084,1.7306089401245117,0.25064817070961
1772572700855856000,2.140856201171875,9.722038269042969,1.6773686408996582,0.15972091257572174
1772572700873692400,2.1586923828125,9.478569030761719,1.6187444925308228,0.01136590726673603
1772572700891528400,2.176528564453125,9.464211463928223,1.6325032711029053,-0.0077766734175384045
1772572700909360600,2.194360595703125,9.592825889587402,1.662413477897644,0.05922235921025276
1772572700927200500,2.212200439453125,9.745966911315918,1.6534404754638672,0.09810572862625122
1772572700945036500,2.23003662109375,9.707681655883789,1.6582261323928833,0.12622138857841492
1772572700962872000,2.2478720703125,9.664610862731934,1.7156537771224976,0.15972091257572174
1772572700980708000,2.2657080078125,9.779465675354004,1.6636099815368652,0.15972091257572174
1772572700998544400,2.28354443359375,9.7938232421875,1.5391831398010254,0.031106693670153618
1772572701016380200,2.301380126953125,9.449854850769043,1.5990036725997925,0.006580262444913387
1772572701034216400,2.319216552734375,9.46899700164795,1.6857435703277588,0.11665010452270508
1772572701052052200,2.33705224609375,9.836296081542969,1.5966109037399292,0.08853443711996078
1772572701069888300,2.35488818359375,9.760323524475098,1.3423734903335571,-0.07357929646968842
1772572701087724300,2.372724365234375,9.569496154785156,1.456032633781433,-0.10289137065410614
1772572701105548000,2.390548095703125,9.588040351867676,1.6241283416748047,0.0687936544418335
1772572701123396400,2.408396240234375,9.573683738708496,1.72941255569458,0.13579268753528595
1772572701141230800,2.42623095703125,9.46899700164795,1.7001005411148071,0.08733802288770676
1772572701159069200,2.444069091796875,9.45464038848877,1.6468602418899536,0.01136590726673603
1772572701176904000,2.461904052734375,9.531210899353027,1.6522440910339355,0.04007977992296219
1772572701194740000,2.479739990234375,9.731609344482422,1.667797327041626,0.10229317098855972
1772572701212576300,2.497576171875,9.841081619262695,1.6253247261047363,0.0933200865983963
1772572701230411800,2.515411865234375,9.674181938171387,1.6103696823120117,0.05503492057323456
1772572701248248300,2.533248291015625,9.66939640045166,1.5667005777359009,0.016749758273363113
1772572701266084000,2.551083984375,9.832108497619629,1.567897081375122,0.02632104977965355
1772572701283920000,2.568919921875,9.722038269042969,1.6007983684539795,0.02153540402650833
1772572701301755600,2.586755615234375,9.502496719360352,1.6235301494598389,0.030508488416671753
1772572701319591700,2.604591796875,9.765109062194824,1.6582261323928833,0.10289137065410614
1772572701337427700,2.622427734375,9.845867156982422,1.591825246810913,0.08853443711996078
1772572701355263700,2.640263671875,9.650253295898438,1.638485312461853,0.05922235921025276
1772572701373100000,2.65810009765625,9.635896682739258,1.662413477897644,0.09272187948226929
1772572701390935800,2.675935791015625,9.760323524475098,1.6683956384658813,0.16450655460357666
1772572701408760300,2.69376025390625,9.66939640045166,1.643869161605835,0.14057832956314087
1772572701426607600,2.711607666015625,9.545567512512207,1.6480566263198853,0.14057832956314087
1772572701444444000,2.72944384765625,9.45464038848877,1.657029628753662,0.11186445504426956
1772572701462279700,2.74727978515625,9.516854286193848,1.5900306701660156,0.0975075215101242
1772572701480100600,2.7651005859375,9.516854286193848,1.5756736993789673,0.09272187948226929
1772572701497939700,2.782939697265625,9.688538551330566,1.6582261323928833,0.16450655460357666
1772572701515775700,2.800775634765625,9.712467193603516,1.6007983684539795,0.12622138857841492
1772572701533626400,2.81862646484375,9.44028377532959,1.6618152856826782,0.10648060590028763
1772572701551459600,2.83645947265625,9.382855415344238,1.6947166919708252,0.13040883839130402
1772572701569300200,2.85430029296875,9.621540069580078,1.7868403196334839,0.2309073805809021
1772572701587131600,2.872131591796875,9.850652694702148,1.6636099815368652,0.16031911969184875
1772572701604964600,2.889964599609375,9.626325607299805,1.662413477897644,0.08793623000383377
1772572701622806300,2.90780615234375,9.387641906738281,1.7186448574066162,0.05383851006627083
1772572701640639200,2.92563916015625,9.602396965026855,1.8011972904205322,0.15912270545959473
1772572701658475500,2.9434755859375,9.76989459991455,1.672582983970642,0.11665010452270508
1772572701676311600,2.9613115234375,9.832108497619629,1.591825246810913,0.02153540402650833
1772572701694147800,2.97914794921875,9.755537986755371,1.4620146751403809,-0.035892341285943985
1772572701711983400,2.9969833984375,9.712467193603516,1.4859428405761719,-0.059820566326379776
1772572701729819400,3.0148193359375,9.550353050231934,1.6474584341049194,0.08315058797597885
1772572701747655700,3.03265576171875,9.435498237609863,1.8388842344284058,0.21595224738121033
1772572701765491200,3.0504912109375,9.46899700164795,1.690529227256775,0.11605189740657806
1772572701783327500,3.068327392578125,9.626923561096191,1.5188441276550293,0.03529413416981697
1772572701801151000,3.08615087890625,9.626923561096191,1.576271891593933,0.08793623000383377
1772572701818999300,3.103999267578125,9.569496154785156,1.6959130764007568,0.1782652884721756
1772572701836823000,3.121822998046875,9.559326171875,1.7581263780593872,0.19740787148475647
1772572701854671600,3.139671630859375,9.65503978729248,1.6821542978286743,0.12622138857841492
1772572701872503300,3.15750341796875,9.755537986755371,1.6061822175979614,0.10289137065410614
1772572701890343200,3.17534326171875,9.702896118164062,1.6151553392410278,0.07417750358581543
1772572701908179200,3.19317919921875,9.68375301361084,1.5337992906570435,-0.02632104977965355
1772572701926015500,3.211015380859375,9.664610862731934,1.6289139986038208,0.020937198773026466
1772572701943851500,3.2288515625,9.707681655883789,1.6199408769607544,-0.0023928226437419653
1772572701961674800,3.2466748046875,9.550353050231934,1.6474584341049194,0.06400800496339798
1772572701979523000,3.264523193359375,9.621540069580078,1.6480566263198853,0.030508488416671753
1772572701997359400,3.282359375,9.779465675354004,1.5966109037399292,0.11246266216039658
1772572702015195100,3.300195068359375,9.712467193603516,1.5290136337280273,-0.0023928226437419653
1772572702033017300,3.318017333984375,9.464211463928223,1.594218134880066,-0.0364905446767807
1772572702050867200,3.3358671875,9.507282257080078,1.6618152856826782,0.04486542567610741
1772572702068706600,3.35370654296875,9.631111145019531,1.6911274194717407,0.11665010452270508
1772572702086538500,3.37153857421875,9.46899700164795,1.6612170934677124,0.04426721855998039
1772572702104375000,3.389375,9.249456405639648,1.6504493951797485,0.005982056725770235
1772572702122210800,3.4072109375,9.316454887390137,1.7132610082626343,0.09212367236614227
1772572702140046600,3.425046630859375,9.521639823913574,1.6666009426116943,0.08793623000383377
1772572702157883000,3.4428828125,9.774680137634277,1.49611234664917,0.05024927482008934
1772572702175719000,3.460718994140625,9.889535903930664,1.534995675086975,0.0933200865983963
1772572702193555200,3.47855517578125,9.812965393066406,1.591825246810913,0.15074782073497772
1772572702211391000,3.496390869140625,9.789037704467773,1.6636099815368652,0.18364913761615753
1772572702229227000,3.51422705078125,9.645467758178711,1.6002001762390137,0.10707881301641464
1772572702247063000,3.53206298828125,9.678967475891113,1.581655740737915,0.08793623000383377
1772572702264898000,3.54989794921875,9.76989459991455,1.6827524900436401,0.16929219663143158
1772572702282735600,3.567735595703125,9.698110580444336,1.7491533756256104,0.1788634955883026
1772572702300557300,3.585557373046875,9.588040351867676,1.705484390258789,0.11186445504426956
1772572702318407000,3.603406982421875,9.521639823913574,1.5948163270950317,0.049651071429252625
1772572702336231700,3.621231689453125,9.464211463928223,1.6139588356018066,0.06400800496339798
1772572702354078700,3.63907861328125,9.34457015991211,1.7234305143356323,0.13998012244701385
1772572702371902500,3.65690234375,9.206384658813477,1.8137595653533936,0.21595224738121033
1772572702389750500,3.67475048828125,9.2919282913208,1.8041882514953613,0.23030917346477509
1772572702407586600,3.692586669921875,9.688538551330566,1.6295121908187866,0.24107688665390015
1772572702425422600,3.710422607421875,10.003793716430664,1.5451651811599731,0.2225325107574463
1772572702443258400,3.72825830078125,9.908080101013184,1.6019947528839111,0.11724831163883209
1772572702461091000,3.746091064453125,9.616754531860352,1.6145570278167725,0.025722842663526535
1772572702478932700,3.7639326171875,9.54078197479248,1.6474584341049194,-0.01734796352684498
1772572702496767200,3.781767333984375,9.645467758178711,1.6193426847457886,-0.0029910283628851175
1772572702514602800,3.799602783203125,9.750752449035645,1.6199408769607544,-0.007178467698395252
1772572702532437500,3.8174375,9.80817985534668,1.591825246810913,0.0023928226437419653
1772572702550274800,3.83527490234375,9.927223205566406,1.5780665874481201,0.05024927482008934
1772572702568110300,3.8531103515625,9.960722923278809,1.4919248819351196,0.01734796352684498
1772572702585946000,3.870946044921875,9.846465110778809,1.500898003578186,-0.0023928226437419653
1772572702603782100,3.8887822265625,9.645467758178711,1.576271891593933,0.049651071429252625
1772572702621617700,3.90661767578125,9.535996437072754,1.6378871202468872,0.12143574655056
1772572702639441400,3.92444140625,9.387641906738281,1.618146300315857,0.10169496387243271
1772572702657290000,3.9422900390625,9.244669914245605,1.5936198234558105,0.058624155819416046
1772572702675125800,3.960125732421875,9.21117115020752,1.5690934658050537,0.04905286431312561
1772572702692962600,3.977962646484375,9.459425926208496,1.6187444925308228,0.15912270545959473
1772572702710797800,3.9957978515625,9.736394882202148,1.591825246810913,0.2745763957500458
1772572702728633900,4.0136337890625,9.726823806762695,1.576870083808899,0.15972091257572174
1772572702746470000,4.031469970703125,9.631709098815918,1.5332010984420776,0.07836493849754333
1772572702764305700,4.0493056640625,9.669994354248047,1.5433706045150757,0.11186445504426956
1772572702782141400,4.067141357421875,9.836894035339355,1.6348960399627686,0.20757736265659332
1772572702799965200,4.084965087890625,9.88415241241455,1.7407784461975098,0.28893333673477173
1772572702817813800,4.102813720703125,9.645467758178711,1.6869399547576904,0.1788634955883026
1772572702835649800,4.12064990234375,9.569496154785156,1.6432709693908691,0.10229317098855972
1772572702853485800,4.13848583984375,9.640682220458984,1.6432709693908691,0.1501496136188507
1772572702871321300,4.1563212890625,9.760323524475098,1.716252088546753,0.2554338276386261
1772572702889157600,4.17415771484375,9.650253295898438,1.7156537771224976,0.21655045449733734
1772572702906993400,4.191993408203125,9.512067794799805,1.5900306701660156,0.0975075215101242
1772572702924829700,4.20982958984375,9.402596473693848,1.6037893295288086,0.07776673883199692
1772572702942664700,4.227664794921875,9.545567512512207,1.6426727771759033,0.13519448041915894
1772572702960501200,4.245501220703125,9.631709098815918,1.6241283416748047,0.16929219663143158
1772572702978337000,4.2633369140625,9.617352485656738,1.662413477897644,0.2069791555404663
1772572702996173600,4.281173583984375,9.492925643920898,1.5756736993789673,0.09690931439399719
1772572703014009000,4.299009033203125,9.56471061706543,1.5906288623809814,0.12143574655056
1772572703031844900,4.316844970703125,9.798608779907227,1.5726827383041382,0.15493527054786682
1772572703049681000,4.334680908203125,9.664610862731934,1.643869161605835,0.18364913761615753
1772572703067517000,4.352516845703125,9.492925643920898,1.6522440910339355,0.13519448041915894
1772572703085352700,4.370352783203125,9.57906723022461,1.6480566263198853,0.15493527054786682
1772572703103188700,4.388188720703125,9.765109062194824,1.5583257675170898,0.14057832956314087
1772572703121024500,4.4060244140625,9.674181938171387,1.6055840253829956,0.18364913761615753
1772572703138860300,4.4238603515625,9.574281692504883,1.6193426847457886,0.1495514214038849
1772572703156696600,4.441696533203125,9.569496154785156,1.6911274194717407,0.19262222945690155
1772572703174532600,4.45953271484375,9.492925643920898,1.690529227256775,0.1782652884721756
1772572703192368400,4.477368408203125,9.478569030761719,1.695314884185791,0.1782652884721756
1772572703210204200,4.4952041015625,9.531210899353027,1.657029628753662,0.15912270545959473
1772572703228040400,4.51304052734375,9.54078197479248,1.662413477897644,0.16869398951530457
1772572703245876000,4.5308759765625,9.717252731323242,1.6582261323928833,0.1740778535604477
1772572703263712500,4.54871240234375,9.76989459991455,1.7066807746887207,0.21236300468444824
1772572703281540400,4.566540283203125,9.774680137634277,1.7688941955566406,0.2548356056213379
1772572703299380000,4.5843798828125,9.76989459991455,1.7641085386276245,0.22612173855304718
1772572703317218800,4.60221875,9.851250648498535,1.6253247261047363,0.14057832956314087
1772572703335058000,4.620057861328125,9.674779891967773,1.6049858331680298,0.08315058797597885
1772572703352892000,4.637891845703125,9.449854850769043,1.7138592004776,0.09690931439399719
1772572703370728000,4.65572802734375,9.263813018798828,1.8089739084243774,0.13938191533088684
1772572703388563700,4.673563720703125,9.392427444458008,1.7521443367004395,0.19680966436862946
1772572703406399700,4.691399658203125,9.66939640045166,1.6199408769607544,0.16929219663143158
1772572703424235500,4.709235595703125,9.684351921081543,1.5290136337280273,0.0975075215101242
1772572703442071300,4.7270712890625,9.584450721740723,1.5140584707260132,0.07776673883199692
1772572703459907300,4.7449072265625,9.574281692504883,1.6528422832489014,0.22133609652519226
1772572703477740300,4.762740234375,9.860821723937988,1.7258232831954956,0.26440688967704773
1772572703495569400,4.7805693359375,9.889535903930664,1.6402798891067505,0.1740778535604477
1772572703513405400,4.798405517578125,9.660423278808594,1.5188441276550293,0.04007977992296219
1772572703531254000,4.81625390625,9.531210899353027,1.6378871202468872,0.10648060590028763
1772572703549087200,4.834087158203125,9.56889820098877,1.7772690057754517,0.1782652884721756
1772572703566923000,4.851923095703125,9.53061294555664,1.8532410860061646,0.2111666053533554
1772572703584759000,4.869759033203125,9.425926208496094,1.7569299936294556,0.10588239878416061
1772572703602583600,4.88758349609375,9.56471061706543,1.6091731786727905,0.04007977992296219
1772572703620430800,4.905430908203125,9.760323524475098,1.557727575302124,0.0975075215101242
1772572703638267000,4.923266845703125,9.722038269042969,1.6965112686157227,0.2069791555404663
1772572703656090400,4.94109033203125,9.459425926208496,1.7431713342666626,0.17766708135604858
1772572703673930200,4.95893017578125,9.378668785095215,1.7138592004776,0.14416755735874176
1772572703691774500,4.9767744140625,9.574281692504883,1.6671991348266602,0.16869398951530457
1772572703709610200,4.9946103515625,9.779465675354004,1.6396816968917847,0.2315055876970291
1772572703727446500,5.012446533203125,9.827322959899902,1.6827524900436401,0.28893333673477173
1772572703745282300,5.0302822265625,9.66939640045166,1.7156537771224976,0.2883351147174835
1772572703763118000,5.0481181640625,9.583852767944336,1.6767704486846924,0.26919254660606384
1772572703780952300,5.065952392578125,9.736394882202148,1.6348960399627686,0.259621262550354
1772572703798792000,5.0837919921875,9.713065147399902,1.6295121908187866,0.22612173855304718
1772572703816626200,5.101626220703125,9.287740707397461,1.765903115272522,0.2111666053533554
1772572703834462000,5.1194619140625,9.077771186828613,1.841277003288269,0.19142581522464752
1772572703852297700,5.137297607421875,9.287740707397461,1.7467604875564575,0.13459627330303192
1772572703870129400,5.15512939453125,9.54078197479248,1.695314884185791,0.16390834748744965
1772572703887973600,5.1729736328125,9.521639823913574,1.7718851566314697,0.25423741340637207
1772572703905794600,5.190794677734375,9.507282257080078,1.781456470489502,0.2638086974620819
1772572703923641300,5.208641357421875,9.731609344482422,1.6773686408996582,0.24526432156562805
1772572703941477000,5.22647705078125,9.860821723937988,1.6067804098129272,0.2315055876970291
1772572703959309000,5.24430908203125,9.884750366210938,1.5828521251678467,0.25064817070961
1772572703977149000,5.26214892578125,9.722038269042969,1.6821542978286743,0.2548356056213379
1772572703994984000,5.27998388671875,9.774680137634277,1.7018951177597046,0.27397820353507996
1772572704012822300,5.297822265625,9.731609344482422,1.6821542978286743,0.2309073805809021
1772572704030656800,5.31565673828125,9.617352485656738,1.5906288623809814,0.14476576447486877
1772572704048493000,5.3334931640625,9.545567512512207,1.6809579133987427,0.20159530639648438
1772572704066328800,5.351328857421875,9.583852767944336,1.6959130764007568,0.17347964644432068
1772572704084152300,5.36915234375,9.641280174255371,1.6767704486846924,0.1495514214038849
1772572704101998800,5.386998779296875,9.57906723022461,1.6522440910339355,0.10648060590028763
1772572704119836200,5.404836181640625,9.516854286193848,1.6761722564697266,0.09690931439399719
1772572704137672200,5.422672119140625,9.56471061706543,1.657029628753662,0.09690931439399719
1772572704155508200,5.44050830078125,9.698708534240723,1.6247265338897705,0.11126625537872314
1772572704173343700,5.45834375,9.684351921081543,1.6002001762390137,0.07776673883199692
1772572704191180000,5.476179931640625,9.602995872497559,1.6767704486846924,0.11126625537872314
1772572704209016000,5.49401611328125,9.497711181640625,1.7431713342666626,0.14895321428775787
1772572704226851800,5.511851806640625,9.545567512512207,1.7240287065505981,0.1537388563156128
1772572704244687600,5.5296875,9.65085220336914,1.6241283416748047,0.16390834748744965
1772572704262523400,5.5475234375,9.765707015991211,1.576870083808899,0.15972091257572174
1772572704280359400,5.565359375,9.636494636535645,1.643869161605835,0.2309073805809021
1772572704298196500,5.583196533203125,9.44028377532959,1.7479569911956787,0.268594354391098
1772572704316030700,5.60103076171875,9.345169067382812,1.800000786781311,0.2871387302875519
1772572704333864200,5.6188642578125,9.531210899353027,1.6959130764007568,0.2638086974620819
1772572704351706000,5.6367060546875,9.726823806762695,1.7060825824737549,0.3074777126312256
1772572704369538800,5.654538818359375,9.717850685119629,1.6630117893218994,0.24047867953777313
1772572704387374800,5.672374755859375,9.674779891967773,1.643869161605835,0.15912270545959473
1772572704405210600,5.690210693359375,9.646066665649414,1.700698733329773,0.1543370634317398
1772572704423046700,5.708046630859375,9.56471061706543,1.7096717357635498,0.13998012244701385
1772572704440882400,5.72588232421875,9.497711181640625,1.6857435703277588,0.09690931439399719
1772572704458718500,5.743718505859375,9.459425926208496,1.7186448574066162,0.1585244983434677
1772572704476554200,5.76155419921875,9.622138023376465,1.6528422832489014,0.13040883839130402
1772572704494390500,5.779390625,9.717850685119629,1.5146567821502686,0.04007977992296219
1772572704512226600,5.7972265625,9.631709098815918,1.485344648361206,0.020937198773026466
1772572704530062000,5.81506201171875,9.545567512512207,1.6139588356018066,0.1495514214038849
1772572704547897900,5.83289794921875,9.66520881652832,1.7012969255447388,0.2309073805809021
1772572704565734100,5.850734130859375,9.736993789672852,1.6247265338897705,0.21176479756832123
1772572704583570000,5.86856982421875,9.574281692504883,1.6145570278167725,0.17347964644432068
1772572704601405400,5.886405517578125,9.388239860534668,1.7042878866195679,0.18723836541175842
1772572704619242000,5.904241943359375,9.449854850769043,1.7575281858444214,0.23988047242164612
1772572704637079600,5.92207958984375,9.550353050231934,1.6815561056137085,0.24945175647735596
1772572704654911500,5.939911376953125,9.669994354248047,1.5960127115249634,0.2021935135126114
1772572704672750000,5.95775,9.669994354248047,1.6055840253829956,0.22612173855304718
1772572704690585000,5.975585205078125,9.727422714233398,1.5960127115249634,0.2356930375099182
1772572704708420900,5.9934208984375,9.669994354248047,1.5720844268798828,0.2069791555404663
1772572704726257000,6.0112568359375,9.622138023376465,1.571486234664917,0.13040883839130402
1772572704744093000,6.029093017578125,9.565308570861816,1.5852450132369995,0.1256231814622879
1772572704761928200,6.04692822265625,9.574281692504883,1.6187444925308228,0.07776673883199692
1772572704779764200,6.06476416015625,9.669994354248047,1.5954145193099976,0.03469592705368996
1772572704797597000,6.082596923828125,9.674779891967773,1.5810575485229492,-0.0029910283628851175
1772572704815439600,6.100439697265625,9.57906723022461,1.5852450132369995,-0.061016976833343506
1772572704833271300,6.118271240234375,9.593423843383789,1.6522440910339355,-0.008374879136681557
1772572704851108900,6.13610888671875,9.56471061706543,1.628315806388855,-0.017946170642971992
1772572704868944000,6.15394384765625,9.53659439086914,1.604387640953064,-0.017946170642971992
1772572704886779600,6.171779541015625,9.598209381103516,1.561316728591919,0.03469592705368996
1772572704904615700,6.18961572265625,9.746564865112305,1.6199408769607544,0.18305093050003052
1772572704922451200,6.207451171875,9.722636222839355,1.6342978477478027,0.1782652884721756
1772572704940287200,6.225287353515625,9.636494636535645,1.5954145193099976,0.10648060590028763
1772572704958122800,6.243122802734375,9.612566947937012,1.6241283416748047,0.13519448041915894
1772572704975958800,6.260958740234375,9.669994354248047,1.72941255569458,0.2111666053533554
1772572704993795000,6.278795166015625,9.741181373596191,1.7395820617675781,0.2069791555404663
1772572705011630600,6.296630615234375,9.65085220336914,1.633699655532837,0.07776673883199692
1772572705029455000,6.314455078125,9.68913745880127,1.5571293830871582,0.03529413416981697
1772572705047302700,6.332302734375,9.684351921081543,1.5906288623809814,0.06819544732570648
1772572705065138400,6.350138427734375,9.669994354248047,1.6911274194717407,0.05383851006627083
1772572705082974000,6.367973876953125,9.531210899353027,1.695314884185791,0.02512463741004467
1772572705100810200,6.385810302734375,9.45045280456543,1.622931957244873,-0.013160524889826775
1772572705118646000,6.40364599609375,9.636494636535645,1.5427724123001099,0.015553346835076809
1772572705136482000,6.42148193359375,9.794421195983887,1.5774682760238647,0.17347964644432068
1772572705154317800,6.43931787109375,9.646066665649414,1.6911274194717407,0.2638086974620819
1772572705172153600,6.457153564453125,9.498309135437012,1.7336000204086304,0.30628129839897156
1772572705189989400,6.4749892578125,9.617352485656738,1.7341982126235962,0.3355933725833893
1772572705207813600,6.492813720703125,9.713065147399902,1.6821542978286743,0.27816563844680786
1772572705225656600,6.510656494140625,9.622138023376465,1.6815561056137085,0.18723836541175842
1772572705243497000,6.5284970703125,9.593423843383789,1.6815561056137085,0.17288143932819366
1772572705261328600,6.54632861328125,9.617352485656738,1.609771490097046,0.09690931439399719
1772572705279172400,6.56417236328125,9.693922996520996,1.5667005777359009,0.005982056725770235
1772572705297004800,6.5820048828125,9.631709098815918,1.537388563156128,-0.04187439754605293
1772572705314840300,6.59984033203125,9.579665184020996,1.5948163270950317,-0.037088751792907715
1772572705332676600,6.617676513671875,9.626923561096191,1.6193426847457886,0.03469592705368996
1772572705350512000,6.63551220703125,9.693922996520996,1.5810575485229492,0.020338991656899452
1772572705368348200,6.65334814453125,9.722636222839355,1.4997016191482544,0.006580262444913387
1772572705386184000,6.671183837890625,9.736993789672852,1.5290136337280273,0.03469592705368996
1772572705404007700,6.689007568359375,9.655637741088867,1.5906288623809814,0.058624155819416046
1772572705421855500,6.70685546875,9.550951957702637,1.6235301494598389,0.03469592705368996
1772572705439691300,6.724691162109375,9.569496154785156,1.719243049621582,0.11545369029045105
1772572705457520000,6.74252001953125,9.531210899353027,1.7958134412765503,0.16809579730033875
1772572705475347700,6.76034765625,9.55513858795166,1.848455548286438,0.19621145725250244
1772572705493187300,6.778187255859375,9.516854286193848,1.795215129852295,0.129810631275177
1772572705511025400,6.796025390625,9.498309135437012,1.7138592004776,0.029312077909708023
1772572705528873200,6.813873291015625,9.631709098815918,1.6618152856826782,-0.02751746028661728
1772572705546706700,6.831706787109375,9.765707015991211,1.662413477897644,-0.008374879136681557
1772572705564542500,6.84954248046875,9.708279609680176,1.72941255569458,0.04426721855998039
1772572705582378200,6.867378173828125,9.6795654296875,1.7724833488464355,0.06340979784727097
1772572705600214000,6.885214111328125,9.583852767944336,1.7336000204086304,0.03888336941599846
1772572705618050000,6.903050048828125,9.598209381103516,1.6378871202468872,-0.02751746028661728
1772572705635882800,6.9208828125,9.655637741088867,1.6091731786727905,-0.037088751792907715
1772572705653725000,6.938724853515625,9.6795654296875,1.609771490097046,-0.013160524889826775
1772572705671556000,6.95655615234375,9.612566947937012,1.628315806388855,0.0011964113218709826
1772572705689389000,6.97438916015625,9.440881729125977,1.5702898502349854,-0.04187439754605293
1772572705707229000,6.99222900390625,9.288339614868164,1.6265212297439575,-0.0568295381963253
1772572705725064700,7.010064697265625,9.250054359436035,1.7126628160476685,0.02392822690308094
1772572705742900700,7.027900634765625,9.503094673156738,1.771286964416504,0.12921242415905
1772572705760736300,7.045736328125,9.655637741088867,1.6671991348266602,0.08673982322216034
1772572705778572300,7.063572265625,9.603593826293945,1.6761722564697266,0.0771685317158699
1772572705796408600,7.08140869140625,9.646066665649414,1.7198412418365479,0.11066804826259613
1772572705814244600,7.09924462890625,9.698708534240723,1.7820546627044678,0.16331014037132263
1772572705832080000,7.117079833984375,9.817750930786133,1.7539390325546265,0.1495514214038849
1772572705849915600,7.13491552734375,9.851250648498535,1.7736797332763672,0.12083754688501358
1772572705867751700,7.152751708984375,9.717252731323242,1.7772690057754517,0.13459627330303192
1772572705885587200,7.170587158203125,9.54078197479248,1.805384635925293,0.13938191533088684
1772572705903408000,7.188408203125,9.507282257080078,1.7473586797714233,0.010169495828449726
1772572705921261800,7.20626171875,9.541379928588867,1.6612170934677124,-0.03290131315588951
1772572705939086800,7.2240869140625,9.507881164550781,1.6707884073257446,0.010169495828449726
1772572705956930800,7.241930908203125,9.57487964630127,1.690529227256775,0.053240302950143814
1772572705974754000,7.259754150390625,9.531808853149414,1.6468602418899536,0.005383851006627083
1772572705992602600,7.2776025390625,9.45045280456543,1.6414763927459717,-0.03768695518374443
1772572706010438100,7.295438232421875,9.474381446838379,1.709073543548584,0.010169495828449726
1772572706028274000,7.31327392578125,9.631709098815918,1.7910277843475342,0.08673982322216034
1772572706046110200,7.331110107421875,9.65085220336914,1.7670994997024536,0.03409772366285324
1772572706063946000,7.348946044921875,9.493523597717285,1.709073543548584,-0.052043892443180084
1772572706081781200,7.36678125,9.512666702270508,1.7425731420516968,-0.0568295381963253
1772572706099617300,7.3846171875,9.780064582824707,1.6576279401779175,-0.08015955984592438
1772572706117453000,7.402453125,9.842277526855469,1.643869161605835,-0.05623133108019829
1772572706135286000,7.4202861328125,9.846465110778809,1.710868239402771,-0.013160524889826775
1772572706153128000,7.4381279296875,9.822537422180176,1.6773686408996582,0.0011964113218709826
1772572706170960100,7.455960205078125,9.818349838256836,1.6342978477478027,-0.008374879136681557
1772572706188796200,7.473796142578125,9.779465675354004,1.7443677186965942,0.06819544732570648
1772572706206632000,7.4916318359375,9.68913745880127,1.7676976919174194,0.129810631275177
1772572706224468000,7.509468017578125,9.583852767944336,1.7766708135604858,0.16749759018421173
1772572706242303700,7.5273037109375,9.531808853149414,1.7623138427734375,0.1579262912273407
1772572706260139500,7.545139404296875,9.517452239990234,1.709073543548584,0.12921242415905
1772572706277975300,7.562975341796875,9.469595909118652,1.7521443367004395,0.19621145725250244
1772572706295811300,7.580811279296875,9.598209381103516,1.7581263780593872,0.25363919138908386
1772572706313647000,7.598647216796875,9.613164901733398,1.6719847917556763,0.2063809484243393
1772572706331482600,7.616482666015625,9.326624870300293,1.6319050788879395,0.10049854964017868
1772572706349314600,7.634314453125,9.16869831085205,1.726421594619751,0.12861421704292297
1772572706367154400,7.652154541015625,9.369096755981445,1.7563318014144897,0.22971096634864807
1772572706384987600,7.669987548828125,9.584450721740723,1.7150555849075317,0.24406790733337402
1772572706402829800,7.687829833984375,9.589237213134766,1.6474584341049194,0.16331014037132263
1772572706420661800,7.705661865234375,9.579665184020996,1.6187444925308228,0.11066804826259613
1772572706438497800,7.723497802734375,9.617950439453125,1.6959130764007568,0.16331014037132263
1772572706456333600,7.74133349609375,9.565308570861816,1.7527425289154053,0.19142581522464752
1772572706474169300,7.75916943359375,9.550951957702637,1.7048860788345337,0.17706887423992157
1772572706492004900,7.7770048828125,9.708279609680176,1.6863417625427246,0.13459627330303192
1772572706509840600,7.794840576171875,9.736993789672852,1.643869161605835,0.16809579730033875
1772572706527677000,7.812677001953125,9.593423843383789,1.7336000204086304,0.09152546525001526
1772572706545503500,7.83050341796875,9.43609619140625,1.7425731420516968,0.09571290761232376
1772572706563348000,7.848347900390625,9.527023315429688,1.7718851566314697,0.15314064919948578
1772572706581181000,7.866180908203125,9.622138023376465,1.7670994997024536,0.1585244983434677
1772572706599022600,7.884022705078125,9.66520881652832,1.705484390258789,0.14895321428775787
1772572706616855800,7.901855712890625,9.674779891967773,1.6719847917556763,0.13459627330303192
1772572706634691600,7.919691650390625,9.646066665649414,1.724626898765564,0.1537388563156128
1772572706652527000,7.937527099609375,9.503094673156738,1.7808582782745361,0.17706887423992157
1772572706670363000,7.95536279296875,9.503094673156738,1.8143577575683594,0.22492532432079315
1772572706688198700,7.97319873046875,9.626923561096191,1.7629120349884033,0.25363919138908386
1772572706706034700,7.99103466796875,9.656235694885254,1.705484390258789,0.1585244983434677
1772572706723870200,8.0088701171875,9.503094673156738,1.6660027503967285,0.10049854964017868
1772572706741706000,8.0267060546875,9.45045280456543,1.7330018281936646,0.15314064919948578
1772572706759541500,8.04454150390625,9.56052303314209,1.7718851566314697,0.1818545162677765
1772572706777368800,8.062368896484376,9.622735977172852,1.6719847917556763,0.13459627330303192
1772572706795213800,8.0802138671875,9.584450721740723,1.6618152856826782,0.11545369029045105
1772572706813049300,8.09804931640625,9.717850685119629,1.7341982126235962,0.12502498924732208
1772572706830885000,8.115885009765625,9.78963565826416,1.7682958841323853,0.2063809484243393
1772572706848721000,8.133720947265624,9.712467193603516,1.9878374338150024,0.07238288223743439
1772572706866556700,8.151556640625,9.570094108581543,1.532004714012146,-0.12801600992679596
1772572706884392200,8.16939208984375,9.531808853149414,1.5990036725997925,-0.06640082597732544
1772572706902228200,8.187228271484376,9.397810935974121,1.6265212297439575,-0.1860419660806656
1772572706920063700,8.205063720703125,9.369695663452148,1.7078771591186523,-0.03349951654672623
1772572706937899800,8.222899658203126,9.631709098815918,1.8867406845092773,0.17706887423992157
1772572706955735600,8.240735595703125,9.746564865112305,1.6002001762390137,0.08673982322216034
