time,seconds_elapsed,z,y,x
1772572030843178500,0.085178466796875,0.943049430847168,-2.7239785194396973,-0.6431174874305725
1772572030861014300,0.10301416015625,0.49976205825805664,-2.282811164855957,-0.30742883682250977
1772572030878862600,0.120862548828125,0.0959024429321289,-1.9689507484436035,-0.0026868581771850586
1772572030896697300,0.138697265625,0.36178112030029297,-1.9338164329528809,0.14295876026153564
1772572030914531300,0.15653125,0.7475590705871582,-1.9880328178405762,0.24746453762054443
1772572030932364500,0.174364501953125,1.1644906997680664,-1.955233097076416,0.5169560313224792
1772572030950203100,0.192203125,1.1508641242980957,-2.207500457763672,0.3523985743522644
1772572030968037000,0.210037109375,0.9622106552124023,-2.0766148567199707,-0.09099531173706055
1772572030985871000,0.22787109375,0.2439413070678711,-2.3662595748901367,-0.36612987518310547
1772572031003706000,0.2457060546875,-0.02575969696044922,-2.04868745803833,-0.29675841331481934
1772572031021541400,0.263541259765625,0.580409049987793,-1.6436004638671875,0.17570310831069946
1772572031039377200,0.281377197265625,1.4786710739135742,-1.418625831604004,0.5830218195915222
1772572031057211100,0.299211181640625,1.9093122482299805,-1.5426244735717773,0.49613821506500244
1772572031075046400,0.31704638671875,1.430251121520996,-1.6873681545257568,0.08534756302833557
1772572031092881400,0.33488134765625,0.8966035842895508,-1.877683162689209,-0.20477044582366943
1772572031110717700,0.3527177734375,0.9458446502685547,-2.1424500942230225,-0.561211884021759
1772572031128551000,0.370551025390625,1.2484664916992188,-1.9552326202392578,-0.5546286106109619
1772572031146386200,0.38838623046875,1.028512954711914,-1.5058584213256836,0.0440424382686615
1772572031164209200,0.406209228515625,0.5552535057067871,-1.3392443656921387,0.2500002980232239
1772572031182057200,0.42405712890625,0.729609489440918,-1.457533359527588,0.1544780135154724
1772572031199882500,0.441882568359375,1.201357364654541,-1.2186479568481445,0.047731876373291016
1772572031217726000,0.459725830078125,1.1787347793579102,-1.4308090209960938,-0.11657798290252686
1772572031235561000,0.47756103515625,1.3053650856018066,-1.7134065628051758,-0.1054646372795105
1772572031253397500,0.4953974609375,1.8435578346252441,-1.345226764678955,0.2877359390258789
1772572031271231500,0.5132314453125,1.8155078887939453,-1.517286777496338,0.921029806137085
1772572031289066200,0.531066162109375,2.351813316345215,-2.022961139678955,0.5585457682609558
1772572031306901200,0.5489013671875,3.185214042663574,-1.9456415176391602,-0.4554952085018158
1772572031324725000,0.56672509765625,2.221402645111084,-1.6732406616210938,-0.8175697326660156
1772572031342571300,0.5845712890625,1.4626994132995605,-1.2027888298034668,-0.9768550395965576
1772572031360405500,0.602405517578125,1.343754768371582,-1.6278810501098633,-0.7017500400543213
1772572031378242300,0.6202421875,2.0138163566589355,-2.289973735809326,0.1360687017440796
1772572031396075800,0.63807568359375,2.8869447708129883,-2.847269296646118,0.970449686050415
1772572031413912800,0.655912841796875,3.4946627616882324,-3.2335433959960938,1.3653128147125244
1772572031431745800,0.673745849609375,3.711935520172119,-3.1473870277404785,1.0545552968978882
1772572031449581600,0.69158154296875,2.579904079437256,-2.9159693717956543,0.6208441257476807
1772572031467416800,0.709416748046875,1.1319975852966309,-2.7322027683258057,0.6149145364761353
1772572031485251000,0.7272509765625,0.5605120658874512,-2.44681453704834,0.7486114501953125
1772572031503085800,0.7450859375,0.6747288703918457,-2.4783554077148438,0.43560993671417236
1772572031520921000,0.762921142578125,0.8568906784057617,-2.921881675720215,0.011905401945114136
1772572031538757000,0.780757080078125,0.6700687408447266,-3.241055727005005,-0.07978156208992004
1772572031556591000,0.798591064453125,0.27663707733154297,-3.1949522495269775,0.04225434362888336
1772572031574426000,0.816426025390625,-0.2660517692565918,-2.90244722366333,0.31421419978141785
1772572031592260900,0.8342607421875,-0.3876361846923828,-2.4268321990966797,0.6312312483787537
1772572031610097400,0.852097412109375,0.21662282943725586,-2.25424861907959,0.6417068243026733
1772572031627931000,0.869930908203125,0.3460574150085449,-2.4944193363189697,0.4317145049571991
1772572031645766000,0.887765869140625,0.5046238899230957,-2.7662136554718018,0.003677576780319214
1772572031663587800,0.905587890625,0.39797163009643555,-3.0091190338134766,-0.3270837366580963
1772572031681437200,0.923437255859375,0.18108034133911133,-2.801757335662842,-0.12100750207901001
1772572031699271000,0.94127099609375,-0.103668212890625,-2.322564125061035,0.39775902032852173
1772572031717106000,0.95910595703125,0.2807741165161133,-2.1101245880126953,0.7508562207221985
1772572031734941200,0.976941162109375,1.0837812423706055,-2.0916123390197754,0.9261032938957214
1772572031752777000,0.99477685546875,1.7738733291625977,-2.268521308898926,0.9917333126068115
1772572031770611200,1.012611083984375,1.9454045295715332,-2.396613597869873,0.8419268131256104
1772572031788445700,1.03044580078125,1.6624417304992676,-2.394367218017578,0.7855373620986938
1772572031806276000,1.048276123046875,1.21669340133667,-2.2924094200134277,0.7548481225967407
1772572031824115700,1.06611572265625,0.9465718269348145,-1.942403793334961,1.0041950941085815
1772572031841953000,1.083953125,0.8401875495910645,-1.7939276695251465,1.218263030052185
1772572031859785200,1.10178515625,1.0043692588806152,-1.9638957977294922,1.0187420845031738
1772572031877621200,1.119621337890625,0.7566452026367188,-1.996300220489502,0.962155282497406
1772572031895457000,1.13745703125,0.7463698387145996,-2.079117774963379,1.1259899139404297
1772572031913290800,1.155290771484375,1.031571388244629,-2.383370876312256,1.2586429119110107
1772572031931126000,1.1731259765625,1.543111801147461,-2.5281596183776855,1.4097926616668701
1772572031948961000,1.1909609375,2.994987964630127,-2.277698516845703,1.4686505794525146
1772572031966796300,1.20879638671875,4.327437877655029,-1.766648769378662,1.056942343711853
1772572031984630500,1.226630615234375,3.584064483642578,-1.4412164688110352,0.44205838441848755
1772572032002465500,1.244465576171875,2.268526554107666,-1.188331127166748,0.5870735049247742
1772572032020300500,1.262300537109375,0.8585314750671387,-1.3534903526306152,1.6848535537719727
1772572032038136300,1.28013623046875,0.37331628799438477,-1.9053573608398438,2.6946072578430176
1772572032055970600,1.297970458984375,1.3108301162719727,-2.6205332279205322,2.8949990272521973
1772572032073805800,1.315805908203125,3.465790271759033,-3.2454493045806885,2.13802433013916
1772572032091640600,1.333640625,3.905524253845215,-4.173224449157715,1.7361729145050049
1772572032109476600,1.3514765625,2.41408634185791,-4.083712577819824,1.241409420967102
1772572032127310600,1.369310546875,0.20549678802490234,-3.5501203536987305,0.7747516632080078
1772572032145145300,1.387145263671875,-1.1425361633300781,-3.1710546016693115,1.1105691194534302
1772572032162980400,1.40498046875,-1.3394441604614258,-2.709263324737549,1.9040148258209229
1772572032180816400,1.42281640625,-0.9432039260864258,-2.4494223594665527,2.3908634185791016
1772572032198650400,1.440650390625,-0.17130661010742188,-2.418771266937256,2.626413106918335
1772572032216485000,1.458485107421875,0.7724618911743164,-2.522991180419922,2.6525144577026367
1772572032234320400,1.4763203125,1.1336488723754883,-2.5351619720458984,2.561500310897827
1772572032252156400,1.494156494140625,0.9990329742431641,-2.355848789215088,2.424736738204956
1772572032269990400,1.511990478515625,0.9369630813598633,-2.1246790885925293,2.5864009857177734
1772572032287825000,1.529824951171875,1.0805492401123047,-1.9254932403564453,2.998901844024658
1772572032305660200,1.54766015625,0.984248161315918,-1.6843786239624023,3.164706230163574
1772572032323496000,1.565495849609375,0.9428634643554688,-1.462003469467163,3.1028850078582764
1772572032341330200,1.583330078125,0.7769088745117188,-1.2795865535736084,2.9845259189605713
1772572032359164200,1.6011640625,0.5521936416625977,-1.1773462295532227,2.9912853240966797
1772572032377001200,1.619001220703125,0.4440469741821289,-1.1058261394500732,3.0597381591796875
1772572032394836200,1.636836181640625,0.37612056732177734,-0.8623166084289551,3.0549163818359375
1772572032412670200,1.654670166015625,0.09622764587402344,-0.7195582389831543,2.9112932682037354
1772572032430505200,1.672505126953125,0.12659168243408203,-0.6700224876403809,2.804993152618408
1772572032448340000,1.690340087890625,0.3566617965698242,-0.7144641876220703,2.7076282501220703
1772572032466166800,1.708166748046875,0.6422967910766602,-0.9209475517272949,2.588798999786377
1772572032483997700,1.725997802734375,1.221456527709961,-1.4453330039978027,2.209841728210449
1772572032501835500,1.74383544921875,2.029852867126465,-1.8305885791778564,2.042731285095215
1772572032519679200,1.76167919921875,3.0994110107421875,-2.0324764251708984,2.4706077575683594
1772572032537515800,1.779515869140625,3.7992687225341797,-2.00991153717041,2.790658473968506
1772572032555349800,1.797349853515625,3.969676971435547,-1.552992582321167,2.3642940521240234
1772572032573185000,1.81518505859375,3.085940361022949,-1.2573163509368896,2.1641407012939453
1772572032591020000,1.83302001953125,2.331019401550293,-0.8432579040527344,2.0043838024139404
1772572032608856000,1.85085595703125,1.421609878540039,-1.008535385131836,2.2422966957092285
1772572032626689500,1.868689453125,1.0402889251708984,-1.7478604316711426,2.4918880462646484
1772572032644524500,1.886524658203125,1.6621675491333008,-2.675539016723633,2.368556499481201
1772572032662359600,1.904359619140625,2.2937612533569336,-3.2485084533691406,2.1427695751190186
1772572032680195800,1.92219580078125,1.9664077758789062,-3.406330108642578,1.9620953798294067
1772572032698029600,1.940029541015625,0.8575458526611328,-3.0715887546539307,1.950939655303955
1772572032715864600,1.957864501953125,-0.2735776901245117,-2.65999436378479,1.9800397157669067
1772572032733697500,1.975697509765625,-0.7905697822570801,-2.338277816772461,1.9371037483215332
1772572032751538000,1.993537841796875,-0.738215446472168,-2.1418497562408447,1.8864264488220215
1772572032769369300,2.011369384765625,-0.2765188217163086,-2.2002837657928467,1.8024237155914307
1772572032787204400,2.029204345703125,0.05514717102050781,-2.3592581748962402,1.894625186920166
1772572032805039000,2.0470390625,0.2200765609741211,-2.4503157138824463,1.9402899742126465
1772572032822875100,2.064875244140625,0.12075138092041016,-2.356506824493408,2.0033349990844727
1772572032840708900,2.082708984375,0.07886123657226562,-1.863633155822754,2.1160945892333984
1772572032858544600,2.100544677734375,0.1731891632080078,-1.5328092575073242,2.334182024002075
1772572032876379100,2.118379150390625,0.576298713684082,-1.575089693069458,2.358490228652954
1772572032894215200,2.136215087890625,0.7858963012695312,-1.638322353363037,2.1588945388793945
1772572032912049200,2.154049072265625,0.7509908676147461,-1.6513662338256836,2.0907223224639893
1772572032929884400,2.171884521484375,0.537083625793457,-1.473741054534912,2.238626003265381
1772572032947719000,2.189718994140625,0.317626953125,-1.133615493774414,2.353952169418335
1772572032965555000,2.207554931640625,0.039160728454589844,-0.9340729713439941,2.5761899948120117
1772572032983389000,2.225388916015625,-0.06660938262939453,-0.923863410949707,2.7398056983947754
1772572033001211600,2.243211669921875,0.2817497253417969,-0.8934164047241211,2.891214609146118
1772572033019059000,2.261058837890625,0.654998779296875,-0.8146307468414307,2.796445608139038
1772572033036892200,2.27889208984375,0.5817708969116211,-0.8483655452728271,2.5664494037628174
1772572033054729000,2.29672900390625,0.13399887084960938,-0.7897565364837646,2.3618340492248535
1772572033072564000,2.31456396484375,-0.13775253295898438,-0.7230851650238037,2.3398327827453613
1772572033090399000,2.33239892578125,-0.19249534606933594,-0.5992019176483154,2.4181926250457764
1772572033108235000,2.350235107421875,0.05657482147216797,-0.5375065803527832,2.559774875640869
1772572033126068700,2.36806884765625,0.4956235885620117,-0.5608580112457275,2.7475171089172363
1772572033143903700,2.38590380859375,1.420639991760254,-0.6992614269256592,2.9889814853668213
1772572033161738200,2.40373828125,2.2575693130493164,-0.9775292873382568,3.050053834915161
1772572033179575300,2.4215751953125,2.564448356628418,-1.1133720874786377,3.0506746768951416
1772572033197408500,2.439408447265625,2.8423776626586914,-1.0929927825927734,3.1971187591552734
1772572033215242000,2.457241943359375,2.829606056213379,-0.9740629196166992,3.3687551021575928
1772572033233079800,2.475079833984375,2.872537612915039,-0.28081774711608887,2.802389144897461
1772572033250914600,2.49291455078125,2.107023239135742,-0.1858201026916504,2.436840057373047
1772572033268735700,2.51073583984375,1.4908714294433594,-0.11165904998779297,1.9817588329315186
1772572033286583300,2.528583251953125,0.6050987243652344,-0.10554265975952148,1.8008270263671875
1772572033304416800,2.546416748046875,-0.26726341247558594,-0.6782195568084717,2.3520994186401367
1772572033322256000,2.564255859375,-0.47545814514160156,-1.3811120986938477,3.07255482673645
1772572033340088000,2.582088134765625,0.4126930236816406,-1.8115084171295166,3.4315733909606934
1772572033357923800,2.599923828125,1.272109031677246,-1.7425888776779175,3.4456605911254883
1772572033375758300,2.61775830078125,1.2148828506469727,-1.4359431266784668,3.2730164527893066
1772572033393594600,2.6355947265625,0.7294282913208008,-1.1459159851074219,3.338900566101074
1772572033411428000,2.653427978515625,0.2474355697631836,-0.7804300785064697,3.2757010459899902
1772572033429263000,2.67126318359375,-0.11228752136230469,-0.7534816265106201,2.9416697025299072
1772572033447096800,2.689096923828125,-0.3342781066894531,-0.9129722118377686,2.7325549125671387
1772572033464930600,2.7069306640625,-0.09088706970214844,-1.0233256816864014,2.9026730060577393
1772572033482768000,2.724767822265625,-0.1292400360107422,-0.994391679763794,2.9115102291107178
1772572033500603100,2.74260302734375,-0.12372112274169922,-0.8122930526733398,2.798173189163208
1772572033518438000,2.76043798828125,-0.3095560073852539,-0.6456694602966309,2.6357226371765137
1772572033536261400,2.778261474609375,-0.6939382553100586,-0.495983362197876,2.756812572479248
1772572033554108200,2.796108154296875,-0.6286840438842773,-0.1956324577331543,3.0522618293762207
1772572033571943200,2.813943115234375,-0.21643924713134766,-0.059949636459350586,3.0528616905212402
1772572033589778200,2.831778076171875,-0.06367301940917969,-0.21774983406066895,2.9567489624023438
1772572033607614000,2.849614013671875,-0.03679943084716797,-0.1652679443359375,3.0349161624908447
1772572033625448000,2.867447998046875,0.15697002410888672,-0.05469965934753418,3.1371030807495117
1772572033643283000,2.885282958984375,0.04609394073486328,0.010251760482788086,3.1963050365448
1772572033661118000,2.903117919921875,-0.1148519515991211,0.1605982780456543,3.1970391273498535
1772572033678952000,2.920951904296875,-0.18279647827148438,0.2565789222717285,3.1366264820098877
1772572033696787700,2.93878759765625,-0.12079048156738281,0.2009117603302002,2.9088118076324463
1772572033714623700,2.956623779296875,0.039986610412597656,0.13193821907043457,2.528846025466919
1772572033732457000,2.97445703125,0.06496524810791016,0.18190336227416992,2.269906997680664
1772572033750294800,2.992294677734375,-0.024573326110839844,0.37825465202331543,2.29060697555542
1772572033768127500,3.01012744140625,0.28168678283691406,0.6346292495727539,2.455693006515503
1772572033785962500,3.02796240234375,0.5167560577392578,0.6787869930267334,2.5860204696655273
1772572033803797200,3.04579736328125,1.3813800811767578,0.48921775817871094,2.6008872985839844
1772572033821633300,3.06363330078125,2.297365188598633,0.5074291229248047,2.1364455223083496
1772572033839467300,3.08146728515625,2.383920669555664,0.4023001194000244,1.5808446407318115
1772572033857302300,3.09930224609375,1.7774524688720703,0.21368074417114258,1.3351218700408936
1772572033875137500,3.117137451171875,1.4136075973510742,0.48709678649902344,1.3003013134002686
1772572033892973300,3.134973388671875,1.3843183517456055,0.558013916015625,1.9596366882324219
1772572033910807300,3.152807373046875,2.0405139923095703,0.16219234466552734,2.606308698654175
1772572033928642000,3.17064208984375,2.925326347351074,-0.5372822284698486,2.763690710067749
1772572033946477000,3.18847705078125,2.9727401733398438,-1.1097878217697144,2.5803732872009277
1772572033964312800,3.206312744140625,2.339519500732422,-1.342451572418213,2.244843006134033
1772572033982147000,3.22414697265625,1.348623275756836,-1.1657721996307373,1.9244401454925537
1772572033999982000,3.241982177734375,0.2608966827392578,-0.7714495658874512,1.7967736721038818
1772572034017816800,3.25981689453125,-0.5647506713867188,-0.35313940048217773,1.8503432273864746
1772572034035653400,3.2776533203125,-0.869379997253418,0.07694745063781738,1.9999849796295166
1772572034053487400,3.2954873046875,-1.0870380401611328,0.18684148788452148,2.0724496841430664
1772572034071327000,3.313326904296875,-1.5149950981140137,0.017673015594482422,1.9984900951385498
1772572034089145300,3.331145263671875,-1.7618780136108398,-0.2542598247528076,2.043837070465088
1772572034106980600,3.348980712890625,-1.2737464904785156,-0.5044765472412109,2.2114806175231934
1772572034124828200,3.366828125,-0.813270092010498,-0.5072653293609619,2.269888401031494
1772572034142661600,3.38466162109375,-0.8549051284790039,-0.5096588134765625,2.258575201034546
1772572034160496000,3.40249609375,-0.9017519950866699,-0.5524320602416992,2.2562403678894043
1772572034178333400,3.42033349609375,-0.6502780914306641,-0.357236385345459,2.2516777515411377
1772572034196169700,3.438169677734375,-0.6107234954833984,-0.296680212020874,2.070093870162964
1772572034214001700,3.456001708984375,-0.5158405303955078,-0.5310854911804199,1.7930737733840942
1772572034231836200,3.473836181640625,-0.027740478515625,-0.7163734436035156,1.734683632850647
1772572034249673000,3.4916728515625,0.43193912506103516,-0.5533299446105957,1.9428191184997559
1772572034267506400,3.50950634765625,0.21365642547607422,-0.3798949718475342,2.1809239387512207
1772572034285341400,3.527341552734375,0.16300392150878906,-0.42091941833496094,2.358088970184326
1772572034303176200,3.54517626953125,0.4421682357788086,-0.3995692729949951,2.4818265438079834
1772572034321012200,3.56301220703125,0.8376350402832031,-0.44553613662719727,2.3605096340179443
1772572034338846200,3.58084619140625,0.7683010101318359,-0.3177468776702881,2.431668758392334
1772572034356681200,3.59868115234375,0.7191123962402344,-0.11756348609924316,2.6532058715820312
1772572034374516200,3.61651611328125,1.0474920272827148,0.0024971961975097656,2.6344494819641113
1772572034392352300,3.634352294921875,1.023972511291504,0.07947158813476562,2.691549777984619
1772572034410186200,3.652186279296875,0.754425048828125,0.07476234436035156,2.8221757411956787
1772572034428021000,3.67002099609375,0.7852096557617188,-0.2103433609008789,2.944101572036743
1772572034445856000,3.68785595703125,1.1510343551635742,-0.5191166400909424,2.767205238342285
1772572034463680800,3.7056806640625,1.5439033508300781,-0.09528803825378418,2.2636260986328125
1772572034481516800,3.723516845703125,1.4158353805541992,0.4863090515136719,1.828338384628296
1772572034499351800,3.741351806640625,0.9080562591552734,0.8173568248748779,1.9808509349822998
1772572034517195800,3.75919580078125,0.5665712356567383,1.1472382545471191,1.7671988010406494
1772572034535032300,3.7770322265625,0.01055908203125,0.8289742469787598,1.8651676177978516
1772572034552866000,3.794865966796875,-0.5486612319946289,0.15459609031677246,2.525796413421631
1772572034570700800,3.81270068359375,0.19467926025390625,-0.6856369972229004,3.0642054080963135
1772572034588535600,3.83053564453125,1.4774456024169922,-1.239945650100708,3.252906322479248
1772572034606371600,3.84837158203125,2.638975143432617,-1.326656699180603,3.130811929702759
1772572034648727300,3.890727294921875,1.155034065246582,-1.0981264114379883,2.9794459342956543
1772572034666562300,3.908562255859375,0.3472156524658203,-0.9623451232910156,2.8904542922973633
1772572034684399600,3.926399658203125,-0.11323833465576172,-0.6579430103302002,3.0157110691070557
1772572034702231600,3.9442314453125,-0.6599130630493164,-0.3979003429412842,3.2142720222473145
1772572034720067300,3.9620673828125,-1.1861538887023926,-0.2688882350921631,3.385793924331665
1772572034737902600,3.979902587890625,-1.3001093864440918,-0.16369891166687012,3.509209156036377
1772572034755737300,3.9977373046875,-0.9275269508361816,0.17059850692749023,3.598703384399414
1772572034773572600,4.015572509765625,-0.8160943984985352,0.325606107711792,3.560567855834961
1772572034791407400,4.033407470703125,-0.8650646209716797,0.2488572597503662,3.438474178314209
1772572034809242000,4.0512421875,-0.7271051406860352,0.062470197677612305,3.28259539604187
1772572034827077400,4.069077392578125,-0.2774229049682617,-0.08107614517211914,3.0758652687072754
1772572034844911900,4.086911865234375,0.06911087036132812,-0.016243934631347656,2.8658411502838135
1772572034862742800,4.10474267578125,-0.14632606506347656,0.10621523857116699,2.7902472019195557
1772572034880586500,4.12258642578125,-0.7978916168212891,0.2575085163116455,2.8173773288726807
1772572034898409700,4.14040966796875,-1.0569124221801758,0.35334181785583496,2.879472494125366
1772572034916255200,4.158255126953125,-0.74578857421875,0.44503307342529297,2.932082176208496
1772572034934084900,4.1760849609375,-0.3971853256225586,0.6216137409210205,3.1190268993377686
1772572034951924500,4.193924560546875,-0.36541748046875,0.6933040618896484,2.9535160064697266
1772572034969756700,4.211756591796875,-0.5383968353271484,0.726226806640625,2.584810256958008
1772572034987591700,4.229591796875,-0.5422592163085938,0.9046268463134766,2.334853410720825
1772572035005426400,4.247426513671875,-0.5762624740600586,1.0360054969787598,2.376626968383789
1772572035023261700,4.26526171875,-0.09863471984863281,1.183032751083374,2.4760851860046387
1772572035041096400,4.283096435546875,0.6631956100463867,0.9983711242675781,2.400320053100586
1772572035058931200,4.30093115234375,1.591827392578125,0.5660088062286377,2.078339099884033
1772572035076766500,4.318766357421875,2.250171661376953,0.3134174346923828,1.143383502960205
1772572035094601500,4.3366015625,1.5442590713500977,0.21628785133361816,0.6610455513000488
1772572035112436500,4.3544365234375,0.4847526550292969,0.6460442543029785,0.7203450202941895
1772572035130271200,4.372271240234375,-0.1519031524658203,1.203577995300293,1.4407786130905151
1772572035148106200,4.390106201171875,0.8319196701049805,0.7699310779571533,2.0245275497436523
1772572035165941200,4.407941162109375,2.088831901550293,-0.07874298095703125,2.238875389099121
1772572035183776300,4.4257763671875,3.1310291290283203,-0.7340319156646729,2.367220640182495
1772572035201611000,4.443611083984375,3.070357322692871,-1.2944440841674805,2.0695743560791016
1772572035219446000,4.461446044921875,2.00974178314209,-1.403020977973938,1.616415023803711
1772572035237280800,4.47928076171875,0.8173437118530273,-1.2167034149169922,1.456357717514038
1772572035255116000,4.497115966796875,-0.06681251525878906,-0.8467903137207031,1.5855894088745117
1772572035272950800,4.51495068359375,-0.26746368408203125,-0.5646958351135254,1.7574130296707153
1772572035290785500,4.53278564453125,-0.01674365997314453,-0.5323367118835449,1.7664999961853027
1772572035308620300,4.550620361328125,0.5057878494262695,-0.8798105716705322,1.5276646614074707
1772572035326455300,4.568455322265625,0.8733596801757812,-1.3132879734039307,1.3710501194000244
1772572035344290300,4.586290283203125,0.9098758697509766,-1.6690119504928589,1.3952043056488037
1772572035362125300,4.604125244140625,0.5451145172119141,-1.7347495555877686,1.55121648311615
1772572035379960300,4.621960205078125,0.007534027099609375,-1.5069677829742432,1.7194019556045532
1772572035397795300,4.63979541015625,-0.4456329345703125,-1.24080491065979,1.7654553651809692
1772572035415630600,4.657630615234375,-0.7336540222167969,-0.9921588897705078,1.7471013069152832
1772572035433465000,4.675465087890625,-0.8434181213378906,-0.8757591247558594,1.640228271484375
1772572035451300000,4.693300048828125,-0.7057886123657227,-0.8655707836151123,1.5108935832977295
1772572035469134800,4.711134765625,-0.5526084899902344,-0.7711606025695801,1.5682542324066162
1772572035486957300,4.728957275390625,-0.5402841567993164,-0.6453690528869629,1.7172528505325317
1772572035504804900,4.746804931640625,-0.6375246047973633,-0.6847217082977295,1.7961342334747314
1772572035522639600,4.7646396484375,-0.5020761489868164,-0.7092995643615723,1.8610188961029053
1772572035540463400,4.78246337890625,-0.37514591217041016,-0.6881060600280762,1.967249870300293
1772572035558310000,4.800309814453125,-0.2748403549194336,-0.5357763767242432,1.8956066370010376
1772572035576144600,4.81814453125,-0.3219118118286133,-0.2720646858215332,1.778425693511963
1772572035593978600,4.835978515625,-0.9183807373046875,-0.15695667266845703,1.8823895454406738
1772572035611815700,4.853815673828125,-1.1665267944335938,0.06397080421447754,2.1859142780303955
1772572035629649200,4.871649169921875,-0.9942502975463867,0.43688225746154785,2.5826544761657715
1772572035647484200,4.889484130859375,-0.5483036041259766,0.8429670333862305,3.0573267936706543
1772572035665319700,4.907319580078125,0.19836902618408203,0.859368085861206,3.259565830230713
1772572035683154200,4.925154296875,1.2246952056884766,0.47193050384521484,3.118251323699951
1772572035700985900,4.94298583984375,1.9749622344970703,0.15576648712158203,2.8411784172058105
1772572035718827300,4.9608271484375,2.7830801010131836,0.1790449619293213,2.189697504043579
1772572035736655400,4.9786552734375,2.9455509185791016,0.14381957054138184,1.8031342029571533
1772572035754497300,4.996497314453125,2.840150833129883,0.44189453125,1.8658417463302612
1772572035772328700,5.01432861328125,2.7430763244628906,0.887869119644165,2.1656646728515625
1772572035790163500,5.03216357421875,2.3994359970092773,0.7801675796508789,2.77105975151062
1772572035807998500,5.04999853515625,2.2657251358032227,0.054643869400024414,3.1292080879211426
1772572035825833200,5.067833251953125,2.8394203186035156,-1.0038645267486572,2.975067615509033
1772572035843668500,5.08566845703125,3.3530750274658203,-1.8068742752075195,2.508424997329712
1772572035861503500,5.10350341796875,2.831477165222168,-2.2519495487213135,1.9391329288482666
1772572035879338200,5.121338134765625,1.4817638397216797,-2.0585713386535645,1.8005893230438232
1772572035897173200,5.13917333984375,0.25646018981933594,-1.6149060726165771,1.8914647102355957
1772572035915008300,5.15700830078125,-0.49498653411865234,-1.2348577976226807,1.900395393371582
1772572035932843300,5.17484326171875,-0.9668140411376953,-0.9221463203430176,1.9638826847076416
1772572035950673000,5.1926728515625,-1.3627018928527832,-0.7887747287750244,2.024784564971924
1772572035968514300,5.210514404296875,-1.5906286239624023,-0.5376441478729248,2.1423044204711914
1772572035986345000,5.228344970703125,-1.8497109413146973,-0.3583226203918457,2.2121481895446777
1772572036004182800,5.246182861328125,-1.7977981567382812,-0.3009955883026123,2.049426555633545
1772572036022017500,5.264017578125,-1.492279052734375,-0.19324469566345215,2.031181573867798
1772572036039852300,5.281852294921875,-1.0473566055297852,0.03195619583129883,2.137515068054199
1772572036057687600,5.2996875,-0.9574699401855469,0.14851140975952148,2.181472063064575
1772572036075522300,5.317522216796875,-0.8025131225585938,0.07241034507751465,2.028146743774414
1772572036093357600,5.335357666015625,-0.6051044464111328,-0.07068562507629395,1.8693567514419556
1772572036111179500,5.353179443359375,-0.27200889587402344,-0.04982614517211914,1.8346023559570312
1772572036129026600,5.371026611328125,0.47260189056396484,0.028024673461914062,1.9404850006103516
1772572036146859300,5.388859375,0.9364604949951172,-0.06164741516113281,2.019458770751953
1772572036164700200,5.4067001953125,0.9716148376464844,-0.1875770092010498,2.0928053855895996
1772572036182528800,5.42452880859375,0.27655792236328125,-0.051549434661865234,2.047384738922119
1772572036200366600,5.44236669921875,-0.43385982513427734,0.21217775344848633,1.9366016387939453
1772572036218205000,5.460204833984375,-0.8068675994873047,0.45055413246154785,1.8825494050979614
1772572036236034300,5.478034423828125,-0.904998779296875,0.6810722351074219,1.8028100728988647
1772572036253873400,5.495873291015625,-1.0390300750732422,0.906376838684082,1.8099727630615234
1772572036271706400,5.513706298828125,-0.8953638076782227,1.1646068096160889,1.9289788007736206
1772572036289540900,5.531540771484375,-0.2994413375854492,0.9882621765136719,1.8894307613372803
1772572036307376000,5.549376220703125,0.1720876693725586,0.648240327835083,1.790588140487671
1772572036325210600,5.567210693359375,0.9491567611694336,0.3985257148742676,1.8711539506912231
1772572036343046000,5.5850458984375,2.6004819869995117,0.41692614555358887,1.7276641130447388
1772572036360880600,5.602880615234375,3.055478096008301,0.6878750324249268,1.4061932563781738
1772572036378715600,5.620715576171875,1.9067964553833008,0.8178176879882812,1.6484434604644775
1772572036396550400,5.63855029296875,1.5185794830322266,1.2859554290771484,1.5929986238479614
1772572036414385700,5.6563857421875,1.2076349258422852,1.3504281044006348,1.7971211671829224
1772572036432220700,5.674220703125,1.431589126586914,1.067711353302002,2.1030120849609375
1772572036450055000,5.692054931640625,1.7750892639160156,0.5220470428466797,2.2726516723632812
1772572036467875300,5.709875244140625,1.8453779220581055,-0.05414295196533203,2.3898870944976807
1772572036485717800,5.7277177734375,1.7018585205078125,-0.5222861766815186,2.2897515296936035
1772572036503561700,5.745561767578125,1.2563180923461914,-0.6036267280578613,2.069436550140381
1772572036521395000,5.76339501953125,0.6514320373535156,-0.5565361976623535,1.8793357610702515
1772572036539229400,5.7812294921875,0.07009315490722656,-0.5793368816375732,1.6335642337799072
1772572036557064700,5.799064697265625,-0.21542835235595703,-0.5853281021118164,1.4445797204971313
1772572036574899700,5.816899658203125,-0.41472721099853516,-0.7295923233032227,1.387615442276001
1772572036592734500,5.834734375,-0.9109296798706055,-0.8605127334594727,1.408247709274292
1772572036610569500,5.852569580078125,-1.3356008529663086,-0.9115352630615234,1.5826077461242676
1772572036628399900,5.87039990234375,-1.5226593017578125,-0.9114861488342285,1.8454115390777588
1772572036646239200,5.8882392578125,-1.1786670684814453,-0.837439775466919,1.996143102645874
1772572036664070100,5.906070068359375,-0.7700042724609375,-0.7272286415100098,2.1482083797454834
1772572036681913000,5.9239130859375,-0.3744335174560547,-0.6810646057128906,2.173846483230591
1772572036699743700,5.94174365234375,-0.2630138397216797,-0.7623012065887451,2.0423171520233154
1772572036717579000,5.9595791015625,-0.5181822776794434,-0.7510788440704346,1.9144971370697021
1772572036735413500,5.97741357421875,-0.8325715065002441,-0.6584422588348389,1.9523298740386963
1772572036753248300,5.995248291015625,-0.733088493347168,-0.543320894241333,2.02152943611145
1772572036771083000,6.0130830078125,-0.4846930503845215,-0.5015065670013428,2.079672336578369
1772572036788918000,6.03091796875,-0.2950019836425781,-0.48346638679504395,2.076068639755249
1772572036806753000,6.0487529296875,-0.11166954040527344,-0.2759404182434082,2.1477692127227783
1772572036824588000,6.066588134765625,0.3668327331542969,0.014056682586669922,2.43180775642395
1772572036842422800,6.0844228515625,0.6594438552856445,0.1770486831665039,2.481956720352173
1772572036860257800,6.1022578125,0.5143671035766602,0.17681646347045898,2.311408042907715
1772572036878092500,6.120092529296875,0.3439302444458008,0.283416748046875,2.26664137840271
1772572036895927600,6.137927490234375,0.6650753021240234,0.3717007637023926,2.3145525455474854
1772572036913762300,6.15576220703125,1.037358283996582,0.23672008514404297,2.2214837074279785
1772572036931597300,6.173597412109375,1.5116806030273438,-0.03771400451660156,2.172189712524414
1772572036949431800,6.191431884765625,1.824997901916504,-0.34651899337768555,2.261523723602295
1772572036967267000,6.20926708984375,1.8516168594360352,-0.39849352836608887,2.4609508514404297
1772572036985101800,6.227101806640625,2.3114709854125977,-0.0497584342956543,2.2856357097625732
1772572037002936800,6.244936767578125,1.986372947692871,0.5209569931030273,1.9362436532974243
1772572037020771300,6.262771240234375,1.179804801940918,0.7646222114562988,2.006932497024536
1772572037038606300,6.2806064453125,0.5737705230712891,1.0902986526489258,2.000870943069458
1772572037056441300,6.29844140625,-0.321685791015625,0.9938497543334961,2.3275961875915527
1772572037074276400,6.3162763671875,-0.36254024505615234,0.39594173431396484,2.6661672592163086
1772572037092110800,6.33411083984375,0.11985969543457031,-0.5022692680358887,2.963986396789551
1772572037109946400,6.3519462890625,1.084782600402832,-1.0482511520385742,3.1987662315368652
1772572037127780600,6.369780517578125,1.9509687423706055,-1.2863314151763916,3.142587900161743
1772572037145615600,6.38761572265625,1.8077630996704102,-1.4022345542907715,2.805063247680664
1772572037163450600,6.40545068359375,0.958892822265625,-1.2405586242675781,2.5404281616210938
1772572037181285600,6.42328564453125,-0.15683937072753906,-1.1700928211212158,2.2273690700531006
1772572037199120100,6.4411201171875,-0.9413995742797852,-1.1084918975830078,1.7280791997909546
1772572037216955400,6.458955322265625,-1.2565736770629883,-0.9388942718505859,1.488474726676941
1772572037234790100,6.4767900390625,-1.4559516906738281,-0.6338529586791992,1.5828090906143188
1772572037252625000,6.494625,-1.5148801803588867,-0.33533763885498047,1.9183905124664307
1772572037270459600,6.512459716796875,-1.2659072875976562,-0.13406634330749512,2.093003988265991
1772572037288294700,6.530294677734375,-0.8751158714294434,-0.15561819076538086,2.0823781490325928
1772572037306114300,6.5481142578125,-0.3621082305908203,-0.05820035934448242,2.1314241886138916
1772572037323953700,6.56595361328125,-0.09438419342041016,0.06267070770263672,2.1825215816497803
1772572037341804000,6.583803955078125,-0.24083232879638672,0.05658221244812012,2.1343564987182617
1772572037359634200,6.60163427734375,-0.36062049865722656,0.005383729934692383,1.967054843902588
1772572037377469200,6.61946923828125,-0.1525440216064453,-0.17688250541687012,1.7620391845703125
1772572037395304000,6.637303955078125,-0.004010200500488281,-0.29640865325927734,1.501349925994873
1772572037413139000,6.655138916015625,0.03110027313232422,-0.20667195320129395,1.3927417993545532
1772572037430961700,6.672961669921875,-0.3089113235473633,0.06817436218261719,1.4990490674972534
1772572037448808200,6.69080810546875,-0.5120859146118164,0.35511016845703125,1.646553635597229
1772572037466640400,6.708640380859375,-0.2462453842163086,0.6497843265533447,1.7908756732940674
1772572037484481000,6.72648095703125,-0.12036514282226562,0.6992831230163574,1.7057693004608154
1772572037502313200,6.744313232421875,-0.3651905059814453,0.8169286251068115,1.6028223037719727
1772572037520147700,6.762147705078125,-0.29779052734375,1.1106925010681152,1.5914578437805176
1772572037537980000,6.77997998046875,-0.09975910186767578,1.1773090362548828,1.4525994062423706
1772572037555820500,6.797820556640625,0.41207027435302734,1.1355395317077637,1.4828057289123535
1772572037573652200,6.81565234375,1.2010507583618164,1.1777162551879883,1.7899457216262817
1772572037591487500,6.833487548828125,2.089920997619629,1.053877830505371,2.122950553894043
1772572037609322500,6.851322509765625,2.6422548294067383,0.8867216110229492,1.893944263458252
1772572037627157200,6.8691572265625,2.3612060546875,0.9974217414855957,1.2297413349151611
1772572037644991700,6.88699169921875,1.3675508499145508,1.0285205841064453,1.0759704113006592
1772572037662826800,6.90482666015625,0.9794979095458984,1.3463940620422363,0.8632799386978149
1772572037680661500,6.92266162109375,1.1535539627075195,1.190176010131836,0.9369688034057617
1772572037698492000,6.940491943359375,1.5303516387939453,0.680445671081543,1.3059879541397095
1772572037716331300,6.958331298828125,1.9072551727294922,0.08250284194946289,1.584179162979126
1772572037734166300,6.976166259765625,1.8959894180297852,-0.521388053894043,1.7519807815551758
1772572037752000800,6.994000732421875,1.661667823791504,-0.97049880027771,1.7060391902923584
1772572037769835800,7.011835693359375,1.1292047500610352,-1.017167568206787,1.5769035816192627
1772572037787670800,7.0296708984375,0.2947702407836914,-0.9257457256317139,1.5531268119812012
1772572037805500700,7.047500732421875,-0.28987932205200195,-0.7801411151885986,1.5165941715240479
1772572037823340500,7.065340576171875,-0.5591988563537598,-0.7584197521209717,1.37124502658844
1772572037841169400,7.08316943359375,-0.8635377883911133,-0.8428430557250977,1.16560697555542
1772572037859009800,7.101009765625,-1.2528810501098633,-1.0081541538238525,1.009495496749878
1772572037876844800,7.1188447265625,-1.5789709091186523,-1.1641132831573486,1.0760388374328613
1772572037894679800,7.1366796875,-1.441197395324707,-1.1364736557006836,1.429335355758667
1772572037912514800,7.154514892578125,-1.0011711120605469,-0.8807010650634766,1.791769027709961
1772572037930349000,7.17234912109375,-0.6876897811889648,-0.6973352432250977,2.0837109088897705
1772572037948184300,7.190184326171875,-0.3401374816894531,-0.5955867767333984,2.1656134128570557
1772572037966019000,7.20801904296875,-0.18922901153564453,-0.7195515632629395,1.9176304340362549
1772572037983851000,7.22585107421875,-0.6370143890380859,-0.7948079109191895,1.593829870223999
1772572038001688800,7.243688720703125,-0.9127564430236816,-0.7001314163208008,1.5376429557800293
1772572038019527200,7.261527099609375,-0.710291862487793,-0.641028881072998,1.6309276819229126
1772572038037355800,7.279355712890625,-0.31746625900268555,-0.6954383850097656,1.742795467376709
1772572038055195100,7.297195068359375,0.1992330551147461,-0.7561049461364746,1.7153671979904175
1772572038073027800,7.31502783203125,0.3037528991699219,-0.8666515350341797,1.6296814680099487
1772572038090862600,7.332862548828125,0.08838844299316406,-0.6743264198303223,1.5998647212982178
1772572038108694500,7.350694580078125,-0.22416114807128906,-0.4410433769226074,1.517608642578125
1772572038126532600,7.36853271484375,-0.1684398651123047,-0.2044811248779297,1.4805934429168701
1772572038144367000,7.3863671875,-0.00267791748046875,0.1591496467590332,1.7452994585037231
1772572038162202400,7.404202392578125,0.35741233825683594,0.44712257385253906,2.0679097175598145
1772572038180036900,7.422036865234375,0.7811212539672852,0.5306410789489746,2.247063159942627
1772572038197872000,7.4398720703125,1.3170995712280273,0.48731327056884766,2.247253656387329
1772572038215707000,7.457706787109375,1.4086675643920898,0.4209756851196289,2.2785491943359375
1772572038233541600,7.475541748046875,1.3948774337768555,0.42519712448120117,2.5049381256103516
1772572038251376400,7.49337646484375,1.913374900817871,0.49793148040771484,2.5153820514678955
1772572038269205000,7.511205078125,2.3651132583618164,0.703819751739502,1.9580870866775513
1772572038287046000,7.5290458984375,2.0549001693725586,0.5595788955688477,1.6759319305419922
1772572038304875500,7.54687548828125,1.4737281799316406,0.6399827003479004,1.3007069826126099
1772572038322716000,7.5647158203125,0.5026206970214844,0.34656429290771484,1.3866629600524902
1772572038340550400,7.58255029296875,0.2910604476928711,-0.4161100387573242,1.8254297971725464
1772572038358386200,7.60038623046875,0.800379753112793,-1.0862970352172852,2.1466567516326904
1772572038376220200,7.61822021484375,1.4112062454223633,-1.3932054042816162,2.2539501190185547
1772572038394054000,7.636053955078125,1.5537452697753906,-1.4341702461242676,2.0879197120666504
1772572038411891200,7.65389111328125,0.7262649536132812,-1.0272111892700195,1.9604146480560303
1772572038429724700,7.671724609375,-0.13346576690673828,-0.6614089012145996,1.895467758178711
1772572038447556400,7.689556396484375,-0.7116985321044922,-0.329831600189209,1.8555517196655273
1772572038465382100,7.707382080078125,-1.053417682647705,-0.1354231834411621,1.8042811155319214
1772572038483219200,7.72521923828125,-1.189600944519043,-0.13905048370361328,1.6483054161071777
1772572038501066800,7.743066650390625,-1.3215065002441406,-0.17548370361328125,1.5369255542755127
1772572038518898700,7.760898681640625,-1.293105125427246,-0.20260095596313477,1.5156655311584473
1772572038536732000,7.77873193359375,-1.089254379272461,-0.10296392440795898,1.5704607963562012
1772572038554570000,7.796570068359375,-0.9571566581726074,0.003620147705078125,1.6047048568725586
1772572038572403200,7.8144033203125,-0.7355546951293945,0.034035682678222656,1.5081939697265625
1772572038590238000,7.832238037109375,-0.4166078567504883,0.038837432861328125,1.3879650831222534
1772572038608073000,7.850072998046875,-0.2639617919921875,0.047978878021240234,1.4123643636703491
1772572038625907500,7.867907470703125,0.055606842041015625,0.18334436416625977,1.4733144044876099
1772572038643742200,7.8857421875,0.07963848114013672,0.16236257553100586,1.3849530220031738
1772572038661577200,7.9035771484375,-0.3025321960449219,0.13070964813232422,1.3304719924926758
1772572038679412200,7.921412109375,-0.6808748245239258,0.29327964782714844,1.4345605373382568
1772572038697246700,7.939246826171875,-0.6765074729919434,0.4464445114135742,1.65549898147583
1772572038715081700,7.957081787109375,-0.48090028762817383,0.629218578338623,1.737054705619812
1772572038732917000,7.9749169921875,-0.35666561126708984,0.8097786903381348,1.6355880498886108
1772572038750751200,7.992751220703125,-0.5052657127380371,0.9284820556640625,1.4842314720153809
1772572038768586000,8.0105859375,-1.1612138748168945,0.8840265274047852,1.359819769859314
1772572038786420000,8.028419921875,-1.4052982330322266,0.9130535125732422,1.2274389266967773
1772572038804254200,8.046254150390626,-0.9209761619567871,0.8245410919189453,1.3712598085403442
1772572038822093800,8.06409375,0.21286964416503906,0.666773796081543,1.5838932991027832
1772572038839925500,8.081925537109376,1.137648582458496,0.4170374870300293,1.8055826425552368
1772572038857760300,8.09976025390625,1.8828554153442383,0.2657198905944824,1.7541730403900146
1772572038875595000,8.117594970703125,2.3337888717651367,0.4379730224609375,1.0512001514434814
1772572038893430000,8.135429931640624,1.3434085845947266,0.3746013641357422,0.9611485004425049
1772572038911264800,8.1532646484375,0.7036600112915039,0.6121573448181152,1.0957084894180298
1772572038929099300,8.171099365234374,0.8145685195922852,0.7926716804504395,1.206031322479248
1772572038946931000,8.188930908203124,1.3069028854370117,0.43874549865722656,1.2930524349212646
1772572038964769300,8.206769287109376,1.591170310974121,-0.06097602844238281,1.3586080074310303
1772572038982607000,8.224607177734375,1.339055061340332,-0.5245208740234375,1.3898295164108276
1772572039000438500,8.2424384765625,0.9520072937011719,-0.7764167785644531,1.2966032028198242
1772572039018273500,8.2602734375,0.6158428192138672,-0.8140506744384766,0.96135014295578
1772572039036108300,8.2781083984375,0.1352672576904297,-0.7571849822998047,0.7127534747123718
1772572039053942000,8.29594189453125,-0.22617721557617188,-0.6317086219787598,0.6052405834197998
1772572039071779000,8.313779052734375,-0.43181896209716797,-0.5322346687316895,0.47788822650909424
1772572039089612500,8.331612548828126,-0.7935900688171387,-0.6337847709655762,0.28709185123443604
1772572039107447300,8.349447265625,-1.2030835151672363,-0.9162826538085938,0.36153972148895264
1772572039125282000,8.367281982421876,-1.266709327697754,-1.1933822631835938,0.7905485033988953
1772572039143117000,8.385116943359375,-0.7896661758422852,-1.2872638702392578,1.232720136642456
1772572039160951800,8.402951904296875,-0.17156219482421875,-1.1654624938964844,1.4656370878219604
1772572039178786600,8.42078662109375,0.3732290267944336,-1.0100102424621582,1.5732311010360718
1772572039196621600,8.43862158203125,0.44587135314941406,-0.9990191459655762,1.496265172958374
1772572039214456300,8.456456298828124,0.2727670669555664,-0.9529299736022949,1.2405564785003662
1772572039232291300,8.474291259765625,0.09273338317871094,-0.8326988220214844,1.03658127784729
1772572039250125800,8.492125732421876,0.0060520172119140625,-0.6844978332519531,0.9942498803138733
1772572039267961000,8.509961181640625,0.04029655456542969,-0.6660370826721191,0.9871615767478943
1772572039285795300,8.52779541015625,0.038112640380859375,-0.5948190689086914,1.0364198684692383
1772572039303630600,8.545630615234375,0.001819610595703125,-0.3446011543273926,1.1892445087432861
1772572039321464800,8.56346484375,-0.1069498062133789,-0.2871417999267578,1.2855522632598877
1772572039339299800,8.5812998046875,-0.28491687774658203,-0.3593897819519043,1.1292855739593506
1772572039357134600,8.599134521484375,-0.3291292190551758,-0.17342281341552734,1.020721197128296
1772572039374969300,8.61696923828125,-0.24729442596435547,-0.057464599609375,1.1794757843017578
1772572039392804400,8.634804443359375,-0.02988147735595703,0.016911983489990234,1.3334804773330688
1772572039410639400,8.652639404296876,0.3849782943725586,0.029529094696044922,1.3284058570861816
1772572039428470000,8.670469970703126,0.8166933059692383,-0.003005504608154297,1.4380093812942505
1772572039446308400,8.688308349609375,1.4837684631347656,-0.18943166732788086,1.5466800928115845
1772572039464143600,8.7061435546875,1.1212778091430664,-0.37116050720214844,1.500891089439392
1772572039481978000,8.72397802734375,0.920292854309082,-0.689795970916748,1.4734519720077515
1772572039499812900,8.741812744140624,1.7581357955932617,0.05260133743286133,1.360689401626587
1772572039517648000,8.75964794921875,1.4392814636230469,0.8349485397338867,1.437657356262207
1772572039535482600,8.777482666015626,0.7442140579223633,1.3446478843688965,1.6427110433578491
1772572039553317400,8.7953173828125,0.0014562606811523438,1.5982928276062012,1.694463849067688
1772572039571152000,8.81315185546875,-0.2236919403076172,1.3242120742797852,2.124398946762085
