time,seconds_elapsed,z,y,x
1772572030845408000,0.087407958984375,-0.40912699699401855,0.4764748811721802,-0.3338378667831421
1772572030863243500,0.105243408203125,-0.3295617997646332,0.3243694305419922,-0.2997821271419525
1772572030881093400,0.12309326171875,-0.35033121705055237,-0.04535674303770065,-0.26572638750076294
1772572030898926600,0.140926513671875,-0.39477166533470154,-0.36300668120384216,-0.26542094349861145
1772572030916760600,0.158760498046875,-0.39965859055519104,-0.5109887719154358,-0.26282477378845215
1772572030934592500,0.176592529296875,-0.44165557622909546,-0.5079344511032104,-0.23548854887485504
1772572030952434000,0.194433837890625,-0.4512766897678375,-0.4053090810775757,-0.19608774781227112
1772572030970266400,0.212266357421875,-0.31749722361564636,-0.35964691638946533,-0.16523905098438263
1772572030988100400,0.230100341796875,-0.15974126756191254,-0.42088615894317627,-0.17776179313659668
1772572031005935400,0.247935302734375,-0.01160643994808197,-0.6728680729866028,-0.18417587876319885
1772572031023770600,0.2657705078125,0.00015271631127689034,-0.884227454662323,-0.12140946835279465
1772572031041606700,0.283606689453125,-0.07177666574716568,-0.7985535860061646,-0.018325956538319588
1772572031059440600,0.301440673828125,-0.11698069423437119,-0.46639561653137207,0.0734565481543541
1772572031077275600,0.319275634765625,-0.08521570265293121,-0.21563543379306793,0.15332718193531036
1772572031095110700,0.337110595703125,-0.04245513305068016,-0.14966198801994324,0.16982053220272064
1772572031112947000,0.354947021484375,0.08918632566928864,-0.10461067408323288,0.16249015927314758
1772572031130780400,0.372780517578125,0.2768746614456177,0.09376781433820724,0.1492038369178772
1772572031148615700,0.39061572265625,0.2721404731273651,0.2548835277557373,0.1333213448524475
1772572031166438700,0.408438720703125,0.17791450023651123,0.15164729952812195,0.1281289905309677
1772572031184286700,0.42628662109375,0.14584407210350037,0.04001167416572571,0.08445212244987488
1772572031202112000,0.444112060546875,0.08048149943351746,0.03588833287358284,0.1290452778339386
1772572031219955500,0.46195556640625,0.006872233934700489,-0.0806342139840126,0.23121249675750732
1772572031237790500,0.47979052734375,0.004886921960860491,-0.18845193088054657,0.20723603665828705
1772572031255626800,0.497626708984375,0.011759156361222267,-0.05849034711718559,0.18814650177955627
1772572031273460700,0.515460693359375,-0.16661348938941956,0.04352414980530739,0.07452555745840073
1772572031291295700,0.533295654296875,-0.27519479393959045,0.002138028386980295,0.07406741380691528
1772572031309130800,0.551130859375,-0.17150041460990906,0.21670444309711456,0.2816088795661926
1772572031326954200,0.568954345703125,-0.02168571576476097,0.20631973445415497,0.48838675022125244
1772572031344800500,0.586800537109375,0.04046982154250145,-0.12003502249717712,0.4625777006149292
1772572031362633500,0.604633544921875,0.11194105446338654,-0.4277583956718445,0.2626720666885376
1772572031380472800,0.622472900390625,0.18967366218566895,-0.556345522403717,-0.056352317333221436
1772572031398303500,0.640303466796875,0.22663100063800812,-0.33047810196876526,-0.3220787048339844
1772572031416144000,0.658143798828125,0.2249511331319809,0.052228979766368866,-0.427452951669693
1772572031433974500,0.675974609375,0.23136521875858307,0.4147774875164032,-0.18555031716823578
1772572031451811600,0.6938115234375,0.25045475363731384,0.4541783034801483,0.2874121069908142
1772572031469646300,0.711646240234375,0.194713294506073,0.12950342893600464,0.6482807397842407
1772572031487480300,0.729480224609375,0.013591751456260681,-0.2483167201280594,0.7739662528038025
1772572031505315300,0.7473154296875,-0.16661348938941956,-0.413097620010376,0.7394523620605469
1772572031523150300,0.765150390625,-0.18570303916931152,-0.26282477378845215,0.5910121202468872
1772572031540986400,0.782986328125,-0.10002918541431427,-0.014508049935102463,0.36789360642433167
1772572031558820400,0.8008203125,-0.02977968007326126,0.12980885803699493,0.1736384481191635
1772572031576655600,0.818655517578125,-0.04245513305068016,0.0555887371301651,0.05345070734620094
1772572031594490400,0.836490478515625,-0.1774563491344452,-0.1316414624452591,-0.035124752670526505
1772572031612327000,0.854326904296875,-0.3523165285587311,-0.22418753802776337,-0.020922135561704636
1772572031630160400,0.872160400390625,-0.451582133769989,-0.3039054572582245,0.07131851464509964
1772572031647995100,0.8899951171875,-0.4378376603126526,-0.33276882767677307,0.17256943881511688
1772572031665817300,0.9078173828125,-0.3094032406806946,-0.31871894001960754,0.2197587788105011
1772572031683666700,0.925666748046875,-0.17440202832221985,-0.3052799105644226,0.1615738570690155
1772572031701500200,0.943500244140625,-0.16844609379768372,-0.33719760179519653,-0.005039638374000788
1772572031719335200,0.961335205078125,-0.252287358045578,-0.36682456731796265,-0.22663100063800812
1772572031737170400,0.97917041015625,-0.318566232919693,-0.1869247704744339,-0.4349360466003418
1772572031755006200,0.997006103515625,-0.3634648323059082,0.12782354652881622,-0.5377141237258911
1772572031772840400,1.01484033203125,-0.3827070891857147,0.2889392673969269,-0.43157628178596497
1772572031790675200,1.03267529296875,-0.3975205719470978,0.17608191072940826,-0.14645494520664215
1772572031808505600,1.050505615234375,-0.4144720733165741,-0.06872233748435974,0.14187344908714294
1772572031826343400,1.068343505859375,-0.48288896679878235,-0.2545780837535858,0.28527405858039856
1772572031844184600,1.0861845703125,-0.5797111392021179,-0.3197879493236542,0.2554943859577179
1772572031862013400,1.104013427734375,-0.6088799238204956,-0.17150041460990906,0.13377949595451355
1772572031879851000,1.12185107421875,-0.6261368989944458,-0.04795292019844055,-0.06902777403593063
1772572031897686300,1.139686279296875,-0.6846272349357605,0.001527163083665073,-0.36392298340797424
1772572031915520000,1.15752001953125,-0.7110471725463867,0.005803219974040985,-0.6327036619186401
1772572031933355300,1.175355224609375,-0.7015787363052368,-0.2073887437582016,-0.7287622094154358
1772572031951190300,1.193190185546875,-0.7185302376747131,-0.4155410826206207,-0.5371032953262329
1772572031969025800,1.21102587890625,-0.7458664774894714,-0.24556782841682434,-0.10842858254909515
1772572031986860000,1.228860107421875,-0.6950119137763977,-0.04917465150356293,0.24877487123012543
1772572032004695000,1.246695068359375,-0.6246097087860107,-0.04230241850018501,0.3407101035118103
1772572032022530000,1.264530029296875,-0.7722864151000977,-0.4080579876899719,0.09544769674539566
1772572032040365800,1.28236572265625,-1.1308642625808716,-0.9511171579360962,-0.40393465757369995
1772572032058200000,1.300199951171875,-1.4587461948394775,-1.2779301404953003,-0.8634580373764038
1772572032076035000,1.31803515625,-1.4741705656051636,-0.8495608568191528,-0.9892962574958801
1772572032093870000,1.3358701171875,-1.2948815822601318,0.03848451003432274,-0.7961101531982422
1772572032111705900,1.353705810546875,-1.0946705341339111,0.6466008424758911,-0.48090365529060364
1772572032129539800,1.371539794921875,-0.9002626538276672,0.5751296281814575,-0.23426681756973267
1772572032147374800,1.389374755859375,-0.7834346890449524,0.009468411095440388,-0.12110403180122375
1772572032165209900,1.4072099609375,-0.8683449625968933,-0.6409503817558289,-0.08597928285598755
1772572032183045600,1.425045654296875,-1.0396926403045654,-1.1507173776626587,-0.08827003091573715
1772572032200879600,1.442879638671875,-1.162629246711731,-1.4340062141418457,-0.1537853181362152
1772572032218714400,1.46071435546875,-1.1850786209106445,-1.2565498352050781,-0.2845104932785034
1772572032236549600,1.478549560546875,-1.092837929725647,-0.8057312369346619,-0.46761733293533325
1772572032254386000,1.496385986328125,-0.9712757468223572,-0.41202861070632935,-0.6299547553062439
1772572032272220000,1.514219970703125,-0.8947648406028748,-0.2883284091949463,-0.660803496837616
1772572032290054400,1.532054443359375,-0.878576934337616,-0.260992169380188,-0.5458080768585205
1772572032307889400,1.549889404296875,-0.9075930118560791,-0.27809640765190125,-0.3692680299282074
1772572032325725400,1.567725341796875,-0.9343183636665344,-0.3165809214115143,-0.16920967400074005
1772572032343559400,1.585559326171875,-0.965319812297821,-0.34315356612205505,0.018936822190880775
1772572032361392000,1.60339208984375,-0.9685268402099609,-0.3631593883037567,0.14614951610565186
1772572032379232000,1.62123193359375,-0.9491318464279175,-0.27611109614372253,0.15057829022407532
1772572032397065700,1.639065673828125,-0.9349292516708374,-0.08475755155086517,0.06704246252775192
1772572032414899500,1.6568994140625,-0.9737191796302795,-0.05421429127454758,0.004581489134579897
1772572032432734500,1.674734375,-1.010829210281372,-0.14569136500358582,0.003054326167330146
1772572032450569200,1.6925693359375,-1.026253581047058,-0.19547687470912933,-0.023060163483023643
1772572032468394800,1.710394775390625,-1.0490083694458008,-0.3159700334072113,-0.022907447069883347
1772572032486227200,1.728227294921875,-0.9976956844329834,-0.5175555944442749,0.02687807008624077
1772572032504066800,1.74606689453125,-0.8239045143127441,-0.6294966340065002,0.06001751124858856
1772572032521908000,1.763907958984375,-0.6609562039375305,-0.46639561653137207,0.06811147183179855
1772572032539745300,1.781745361328125,-0.5593998432159424,-0.14217889308929443,0.15134187042713165
1772572032557579000,1.7995791015625,-0.4813618063926697,0.15515977144241333,0.40714168548583984
1772572032575414300,1.817414306640625,-0.44837507605552673,0.1394299864768982,0.7244861721992493
1772572032593249500,1.83524951171875,-0.5094616413116455,-0.025961773470044136,0.884227454662323
1772572032611085300,1.853085205078125,-0.6531676650047302,-0.3107776939868927,0.8639161586761475
1772572032628918800,1.870918701171875,-0.8313875794410706,-0.6499606370925903,0.6736316680908203
1772572032646754000,1.888754150390625,-0.8636107444763184,-0.6243042945861816,0.44944411516189575
1772572032664589000,1.906589111328125,-0.7478517889976501,-0.18081611394882202,0.31581732630729675
1772572032682425000,1.924425048828125,-0.5351179838180542,0.413097620010376,0.27611109614372253
1772572032700258800,1.9422587890625,-0.40301835536956787,0.7470881938934326,0.2713768780231476
1772572032718094000,1.960093994140625,-0.37751471996307373,0.6577491760253906,0.2643519341945648
1772572032735924500,1.977924560546875,-0.42562034726142883,0.3510948121547699,0.23548854887485504
1772572032753769700,1.995769775390625,-0.4787656366825104,0.030085112899541855,0.16920967400074005
1772572032771598800,2.013598876953125,-0.48029279708862305,-0.08674286305904388,0.06612616032361984
1772572032789433600,2.03143359375,-0.4308127164840698,-0.029626963660120964,-0.07895433157682419
1772572032807268400,2.049268310546875,-0.37858372926712036,0.08735372871160507,-0.2151772826910019
1772572032825104400,2.0671044921875,-0.290313720703125,0.1508837193250656,-0.3338378667831421
1772572032842938400,2.0849384765625,-0.2675589919090271,0.12782354652881622,-0.4080579876899719
1772572032860774100,2.102774169921875,-0.3703370690345764,0.028405234217643738,-0.4482223689556122
1772572032878608400,2.1206083984375,-0.4749477207660675,-0.028557950630784035,-0.42699480056762695
1772572032896444700,2.138444580078125,-0.4867068827152252,0.022907447069883347,-0.3787364661693573
1772572032914278400,2.1562783203125,-0.4447098970413208,0.06612616032361984,-0.275347501039505
1772572032932113700,2.17411376953125,-0.4124867618083954,0.020005837082862854,-0.12431107461452484
1772572032949948400,2.191948486328125,-0.4300491213798523,-0.058184914290905,0.01710422709584236
1772572032967784200,2.2097841796875,-0.4902193546295166,-0.15042556822299957,0.060475658625364304
1772572032985618200,2.2276181640625,-0.5639813542366028,-0.21899518370628357,0.033597588539123535
1772572033003441000,2.24544091796875,-0.6062837839126587,-0.19654589891433716,-0.02275473065674305
1772572033021288200,2.2632880859375,-0.6522513628005981,-0.052381694316864014,-0.030237829312682152
1772572033039121400,2.281121337890625,-0.6591235995292664,0.06750060617923737,0.009926560334861279
1772572033056958500,2.29895849609375,-0.651029646396637,0.041691552847623825,0.04749477282166481
1772572033074793200,2.316793212890625,-0.637132465839386,-0.07528914511203766,0.027488935738801956
1772572033092628200,2.334628173828125,-0.6577491760253906,-0.2620611786842346,-0.08170322328805923
1772572033110464500,2.352464599609375,-0.697149932384491,-0.4662429094314575,-0.23289237916469574
1772572033128298000,2.370298095703125,-0.759305477142334,-0.6157521605491638,-0.4260784983634949
1772572033146133000,2.388133056640625,-0.7877107262611389,-0.6346889734268188,-0.58062744140625
1772572033163967200,2.40596728515625,-0.7785477638244629,-0.541532039642334,-0.5534439086914062
1772572033181805300,2.423805419921875,-0.7221954464912415,-0.479834645986557,-0.43936482071876526
1772572033199637800,2.4416376953125,-0.6669121384620667,-0.44058656692504883,-0.21960605680942535
1772572033217470000,2.459469970703125,-0.6604980230331421,-0.43050727248191833,0.11041389405727386
1772572033235310800,2.477310791015625,-0.7154759168624878,-0.4108068645000458,0.47342056035995483
1772572033253144000,2.49514404296875,-0.7712173461914062,-0.4072943925857544,0.7093672752380371
1772572033270965200,2.51296533203125,-0.7996225953102112,-0.41004329919815063,0.7823656797409058
1772572033288812500,2.5308125,-0.8077165484428406,-0.48655417561531067,0.6698137521743774
1772572033306644700,2.548644775390625,-0.8440630435943604,-0.6910412907600403,0.4040873646736145
1772572033324487000,2.56648681640625,-0.899040937423706,-0.8944594264030457,0.015577063895761967
1772572033342317600,2.584317626953125,-0.8976664543151855,-0.7808384895324707,-0.35552358627319336
1772572033360153300,2.6021533203125,-0.8480336666107178,-0.3378084897994995,-0.5584835410118103
1772572033377987600,2.619987548828125,-0.7863363027572632,0.04917465150356293,-0.5694791078567505
1772572033395824000,2.63782421875,-0.7409795522689819,0.1563815027475357,-0.4167627990245819
1772572033413657600,2.65565771484375,-0.7910705208778381,0.07864890247583389,-0.23411411046981812
1772572033431492600,2.67349267578125,-0.8518515825271606,-0.1362229436635971,-0.02321287989616394
1772572033449326300,2.691326416015625,-0.8335255980491638,-0.41111230850219727,0.18585574626922607
1772572033467159800,2.709159912109375,-0.7922922372817993,-0.49357911944389343,0.2652682363986969
1772572033484997400,2.726997314453125,-0.7400632500648499,-0.43737950921058655,0.2503020465373993
1772572033502832400,2.744832275390625,-0.6876815557479858,-0.32009339332580566,0.19058994948863983
1772572033520667400,2.76266748046875,-0.6230825781822205,-0.17318029701709747,0.10033461451530457
1772572033538491000,2.780490966796875,-0.5644394755363464,-0.10537425428628922,-0.029474247246980667
1772572033556337400,2.79833740234375,-0.5798638463020325,-0.11927144229412079,-0.16768251359462738
1772572033574172400,2.81617236328125,-0.6342308521270752,-0.09483683109283447,-0.21624629199504852
1772572033592007400,2.83400732421875,-0.6201809644699097,-0.051770828664302826,-0.18249599635601044
1772572033609843200,2.85184326171875,-0.593913733959198,-0.02733621932566166,-0.12782354652881622
1772572033627677400,2.869677490234375,-0.5789475440979004,0.048716504126787186,-0.07131851464509964
1772572033645512200,2.88751220703125,-0.5763513445854187,0.06582073122262955,0.025656340643763542
1772572033663347500,2.905347412109375,-0.5955936312675476,-0.029474247246980667,0.15531249344348907
1772572033681180000,2.923179931640625,-0.6285803318023682,-0.13729196786880493,0.2649627923965454
1772572033699017500,2.941017578125,-0.6177374720573425,-0.16203200817108154,0.28756481409072876
1772572033716854500,2.9588544921875,-0.5056437253952026,-0.030237829312682152,0.2194533348083496
1772572033734685700,2.976685791015625,-0.3194825351238251,0.1837177276611328,0.08964447677135468
1772572033752525000,2.994525146484375,-0.16432274878025055,0.27641651034355164,-0.039706241339445114
1772572033770356700,3.012356689453125,-0.11530081182718277,0.19746218621730804,-0.10659598559141159
1772572033788191700,3.030191650390625,-0.14523321390151978,-0.022143865004181862,-0.14065171778202057
1772572033806026800,3.04802685546875,-0.15393804013729095,-0.16264286637306213,-0.15622878074645996
1772572033823862800,3.06586279296875,-0.09560041129589081,-0.01160643994808197,-0.12461651116609573
1772572033841696500,3.083696533203125,0.07269296050071716,0.16890424489974976,0.00015271631127689034
1772572033859531500,3.101531494140625,0.265573650598526,0.13179416954517365,0.11407908797264099
1772572033877366800,3.11936669921875,0.4210388660430908,-0.06780604273080826,0.11972958594560623
1772572033895202600,3.13720263671875,0.40301835536956787,-0.2860376536846161,0.008246680721640587
1772572033913036800,3.155036865234375,0.2583959996700287,-0.33276882767677307,-0.15851953625679016
1772572033930871600,3.17287158203125,0.19394971430301666,-0.04535674303770065,-0.2324342280626297
1772572033948706300,3.190706298828125,0.2515237629413605,0.3439171314239502,-0.11362093687057495
1772572033966542300,3.208542236328125,0.39675697684288025,0.5908594131469727,0.1846340149641037
1772572033984376600,3.22637646484375,0.546571671962738,0.7015787363052368,0.5342016816139221
1772572034002211600,3.244211669921875,0.6195700764656067,0.6317873597145081,0.8008443117141724
1772572034020046300,3.26204638671875,0.6055201888084412,0.43218716979026794,0.903164267539978
1772572034037882600,3.279882568359375,0.5032002329826355,0.2912299931049347,0.8358163833618164
1772572034055716600,3.297716552734375,0.35216382145881653,0.25106561183929443,0.6495024561882019
1772572034073555500,3.315555419921875,0.23915374279022217,0.17027868330478668,0.4008803069591522
1772572034091374000,3.3333740234375,0.15302173793315887,-0.08002334833145142,0.16325373947620392
1772572034109210000,3.351210205078125,0.09315694868564606,-0.244804248213768,0.005955935921519995
1772572034127059000,3.369058837890625,0.013133603148162365,-0.2900082767009735,-0.0887281745672226
1772572034144891000,3.386890869140625,-0.07406741380691528,-0.280539870262146,-0.16493362188339233
1772572034162724900,3.404724853515625,-0.11255192011594772,-0.2811507284641266,-0.2617557644844055
1772572034180563500,3.4225634765625,-0.11820242553949356,-0.17287486791610718,-0.3572034537792206
1772572034198399000,3.44039892578125,-0.15256360173225403,-0.13011430203914642,-0.3790418803691864
1772572034216231200,3.458231201171875,-0.17562375962734222,-0.3199406862258911,-0.2477058619260788
1772572034234065000,3.47606494140625,-0.08292495459318161,-0.45142942667007446,-0.040164388716220856
1772572034251902700,3.49390283203125,0.008399397134780884,-0.3675881624221802,0.12965615093708038
1772572034269735700,3.511735595703125,0.016035212203860283,-0.2538145184516907,0.1667662113904953
1772572034287570700,3.52957080078125,-0.020616702735424042,-0.21334469318389893,0.10781771689653397
1772572034305405700,3.54740576171875,-0.07696902006864548,-0.17348572611808777,0.03298672288656235
1772572034323241500,3.565241455078125,-0.051312681287527084,-0.03787364438176155,0.009468411095440388
1772572034341075700,3.58307568359375,0.01863138936460018,0.05192354694008827,0.032528575509786606
1772572034358910500,3.600910400390625,-0.01664607785642147,-0.036651913076639175,0.06627888232469559
1772572034376745700,3.618745849609375,-0.058184914290905,-0.0734565481543541,0.12370020896196365
1772572034394581800,3.636581787109375,-0.08155050873756409,-0.03680463135242462,0.13988813757896423
1772572034412415700,3.654415771484375,-0.11133018881082535,-0.0006108652451075613,0.08414668589830399
1772572034430250200,3.672250244140625,-0.14569136500358582,-0.001832595793530345,-0.00015271631127689034
1772572034448085200,3.690085205078125,-0.0907134860754013,0.027183502912521362,-0.007941247895359993
1772572034465908700,3.70790869140625,0.0029016099870204926,0.16294831037521362,0.05451972410082817
1772572034483746800,3.725746826171875,0.11545353382825851,0.3669773042201996,0.14309518039226532
1772572034501582000,3.74358203125,0.10995574295520782,0.39614611864089966,0.17577648162841797
1772572034519425300,3.76142529296875,0.010231993161141872,0.32421672344207764,0.09651670604944229
1772572034537261600,3.779261474609375,-0.050854530185461044,0.17791450023651123,-0.08979719132184982
1772572034555095300,3.79709521484375,-0.13011430203914642,-0.12980885803699493,-0.4014911949634552
1772572034572930000,3.814929931640625,-0.21823160350322723,-0.41431936621665955,-0.6575964093208313
1772572034590765000,3.83276513671875,-0.24144448339939117,-0.48380526900291443,-0.660192608833313
1772572034608600800,3.850600830078125,-0.16737708449363708,-0.19364428520202637,-0.39385536313056946
1772572034635266800,3.877266845703125,-0.022143865004181862,0.22510384023189545,0.23151792585849762
1772572034653186300,3.895186279296875,0.0025961773935705423,0.1713477075099945,0.55069500207901
1772572034671021000,3.91302099609375,0.03955352306365967,-0.01664607785642147,0.7964155673980713
1772572034688861700,3.93086181640625,0.03420845419168472,-0.11789698898792267,0.865290641784668
1772572034706692600,3.948692626953125,-0.013744467869400978,-0.11621711403131485,0.7215845584869385
1772572034724526800,3.96652685546875,-0.08689557760953903,-0.11194105446338654,0.4245513379573822
1772572034742362600,3.984362548828125,-0.1420261710882187,-0.0858265683054924,0.08781187981367111
1772572034760196900,4.00219677734375,-0.230448916554451,0.043218716979026794,-0.15531249344348907
1772572034778032400,4.020032470703125,-0.33628132939338684,0.11759155988693237,-0.28298333287239075
1772572034795867000,4.037866943359375,-0.4337143301963806,0.07284568250179291,-0.3488040566444397
1772572034813702400,4.055702392578125,-0.49067750573158264,-0.03848451003432274,-0.34086281061172485
1772572034831537000,4.073536865234375,-0.46593746542930603,-0.06475171446800232,-0.22327125072479248
1772572034849372000,4.091371826171875,-0.3851505517959595,0.004581489134579897,-0.041691552847623825
1772572034867188000,4.10918798828125,-0.3147483170032501,0.04963280260562897,0.12751811742782593
1772572034885042000,4.1270419921875,-0.2788599729537964,-0.03588833287358284,0.19043724238872528
1772572034902864000,4.14486376953125,-0.26450464129447937,-0.15561792254447937,0.15821409225463867
1772572034920711700,4.162711669921875,-0.20463985204696655,-0.11713340878486633,0.0835358202457428
1772572034938537000,4.180536865234375,-0.18707747757434845,0.07757988572120667,0.00015271631127689034
1772572034956382000,4.1983818359375,-0.16432274878025055,0.23090706765651703,-0.03130684420466423
1772572034974216400,4.216216552734375,-0.10354165732860565,0.23579397797584534,-0.007024950347840786
1772572034992052000,4.234052001953125,-0.056352317333221436,0.13057245314121246,0.05497787147760391
1772572035009886200,4.25188623046875,-0.048716504126787186,-0.06322455406188965,0.01878410577774048
1772572035027722000,4.269721923828125,-0.12217304855585098,-0.23167064785957336,-0.07131851464509964
1772572035045553000,4.287552978515625,-0.17272214591503143,-0.32559117674827576,-0.08414668589830399
1772572035063391700,4.305391845703125,-0.12660181522369385,-0.22510384023189545,-0.02015855349600315
1772572035081228800,4.323228759765625,0.13209961354732513,0.1443169116973877,0.08307767659425735
1772572035099061000,4.34106103515625,0.47907108068466187,0.39843684434890747,0.07971791177988052
1772572035116895700,4.358895751953125,0.7031059265136719,0.351400226354599,-0.1062905490398407
1772572035134731500,4.3767314453125,0.6012440919876099,-0.12797626852989197,-0.4625777006149292
1772572035152566000,4.39456591796875,0.4034765064716339,-0.4607451260089874,-0.7298312783241272
1772572035170401300,4.4124013671875,0.34345898032188416,-0.44028112292289734,-0.8112290501594543
1772572035188235300,4.4302353515625,0.36224308609962463,-0.10674870014190674,-0.6366742849349976
1772572035206070800,4.44807080078125,0.45036038756370544,0.16951510310173035,-0.23747386038303375
1772572035223905500,4.465905517578125,0.570853590965271,0.17470745742321014,0.17806722223758698
1772572035241740800,4.48374072265625,0.6392704844474792,-0.018020525574684143,0.46899178624153137
1772572035259575300,4.5015751953125,0.5815436840057373,-0.2909245789051056,0.5442809462547302
1772572035277410800,4.519410888671875,0.42378777265548706,-0.4395175576210022,0.39538252353668213
1772572035295245300,4.537245361328125,0.2632829248905182,-0.4108068645000458,0.13973543047904968
1772572035313081000,4.5550810546875,0.19425514340400696,-0.33826664090156555,-0.0074830991216003895
1772572035330914800,4.572914794921875,0.2073887437582016,-0.2496911734342575,0.00427605677396059
1772572035348750300,4.590750244140625,0.266184538602829,-0.14813482761383057,0.09987647086381912
1772572035366585000,4.608585205078125,0.3107776939868927,-0.0529925599694252,0.19807305932044983
1772572035384420900,4.6264208984375,0.3010038435459137,0.019547687843441963,0.2145664244890213
1772572035402254800,4.6442548828125,0.26542094349861145,0.08597928285598755,0.14416420459747314
1772572035420090000,4.662090087890625,0.20830504596233368,0.1339322030544281,0.017562376335263252
1772572035437924600,4.679924560546875,0.14477506279945374,0.18906278908252716,-0.12064588814973831
1772572035455760400,4.697760498046875,0.1466076523065567,0.27519479393959045,-0.24083362519741058
1772572035473595000,4.715594970703125,0.15363261103630066,0.3663664162158966,-0.2834414839744568
1772572035491430100,4.73343017578125,0.10995574295520782,0.3407101035118103,-0.2539672255516052
1772572035509264400,4.751264404296875,0.0659734457731247,0.197004035115242,-0.16829337179660797
1772572035527099600,4.769099609375,0.04703662544488907,0.10262536257505417,-0.09162978827953339
1772572035544934100,4.78693408203125,0.057879481464624405,0.13820825517177582,-0.08384125679731369
1772572035562770000,4.80477001953125,0.09193521738052368,0.290313720703125,-0.12293662875890732
1772572035580604200,4.822604248046875,0.14294247329235077,0.4709770977497101,-0.1388191282749176
1772572035598435600,4.840435546875,0.19074267148971558,0.4109596014022827,-0.1241583600640297
1772572035616274200,4.858274169921875,0.17959438264369965,0.22846360504627228,-0.12018773704767227
1772572035634111000,4.876111083984375,0.11270463466644287,0.10048733651638031,-0.1944078654050827
1772572035651942400,4.8939423828125,-0.06444628536701202,0.05513058975338936,-0.3455969989299774
1772572035669779200,4.911779296875,-0.2845104932785034,-0.04260785132646561,-0.47051894664764404
1772572035687613700,4.92961376953125,-0.4222606122493744,-0.09453139454126358,-0.4677700698375702
1772572035705436700,4.947436767578125,-0.4554000496864319,-0.09987647086381912,-0.3805690407752991
1772572035723283500,4.965283447265625,-0.3666718602180481,0.09514226019382477,-0.27870726585388184
1772572035741104600,4.983104736328125,-0.21059578657150269,0.2223549485206604,-0.17531833052635193
1772572035758953200,5.000953125,-0.16081027686595917,0.13866640627384186,-0.06979135423898697
1772572035776788700,5.018788818359375,-0.27870726585388184,-0.017562376335263252,-0.04734205827116966
1772572035794623500,5.03662353515625,-0.5742133259773254,-0.26679539680480957,-0.12140946835279465
1772572035812458800,5.054458740234375,-0.8765916228294373,-0.5103778839111328,-0.19914206862449646
1772572035830292700,5.072292724609375,-0.988379955291748,-0.45402559638023376,-0.1443169116973877
1772572035848128500,5.09012841796875,-0.8713992834091187,-0.03985895588994026,0.06948592513799667
1772572035865963000,5.107962890625,-0.5592471361160278,0.394618958234787,0.37980547547340393
1772572035883798800,5.125798828125,-0.29504790902137756,0.5326744914054871,0.6508769392967224
1772572035901632500,5.143632568359375,-0.19822576642036438,0.4311181604862213,0.8475755453109741
1772572035919468300,5.16146826171875,-0.17027868330478668,0.2532036304473877,0.9807441234588623
1772572035937302500,5.179302490234375,-0.1950187236070633,0.09896016865968704,1.0025825500488281
1772572035955137800,5.1971376953125,-0.22739458084106445,-0.00427605677396059,0.9239336848258972
1772572035972972300,5.21497216796875,-0.2935207486152649,-0.0705549344420433,0.7492262125015259
1772572035990795300,5.232795166015625,-0.40194934606552124,-0.13118331134319305,0.4812090992927551
1772572036008641800,5.250641845703125,-0.43386703729629517,-0.14217889308929443,0.1598939746618271
1772572036026475000,5.26847509765625,-0.41202861070632935,-0.07696902006864548,-0.1359175145626068
1772572036044314400,5.286314453125,-0.43539419770240784,0.044135015457868576,-0.342695415019989
1772572036062147300,5.304147216796875,-0.5117523670196533,-0.010690141469240189,-0.4311181604862213
1772572036079981800,5.32198193359375,-0.551305890083313,-0.17333301901817322,-0.3959933817386627
1772572036097817600,5.339817626953125,-0.5135849714279175,-0.3068070709705353,-0.3006984293460846
1772572036115651800,5.35765185546875,-0.4389066696166992,-0.3488040566444397,-0.19303341209888458
1772572036133487000,5.375487060546875,-0.38209620118141174,-0.17867808043956757,-0.04566217586398125
1772572036151309800,5.393309814453125,-0.2747366428375244,0.07009678333997726,0.144622340798378
1772572036169156600,5.411156494140625,-0.12370020896196365,0.3591887652873993,0.3400992155075073
1772572036186978800,5.428978759765625,0.0025961773935705423,0.461355984210968,0.4925101101398468
1772572036204814300,5.446814453125,0.08827003091573715,0.3700316250324249,0.5968153476715088
1772572036222661000,5.4646611328125,0.13240504264831543,0.21441370248794556,0.6585127115249634
1772572036240488400,5.482488525390625,0.16172657907009125,0.10613783448934555,0.6580545902252197
1772572036258331000,5.500330810546875,0.16325373947620392,0.0025961773935705423,0.5377141237258911
1772572036276166400,5.51816650390625,0.07192938029766083,-0.16203200817108154,0.342237263917923
1772572036293999900,5.535999755859375,0.013133603148162365,-0.2808452844619751,0.20754146575927734
1772572036311837200,5.553837158203125,0.036651913076639175,-0.4173736870288849,0.10797043144702911
1772572036329670100,5.571670166015625,0.10644327104091644,-0.40775254368782043,0.062460970133543015
1772572036347506000,5.589505859375,0.23228150606155396,-0.0019853119738399982,0.1820378452539444
1772572036365337300,5.60733740234375,0.4170682430267334,0.42577308416366577,0.4303545653820038
1772572036383179000,5.625178955078125,0.4691445231437683,0.3280346393585205,0.5062545537948608
1772572036401006800,5.6430068359375,0.4375322461128235,0.13790282607078552,0.4593706727027893
1772572036418848500,5.6608486328125,0.33292156457901,-0.1342376321554184,0.32391130924224854
1772572036436675800,5.67867578125,0.20586158335208893,-0.28588494658470154,0.20234911143779755
1772572036454516700,5.696516845703125,0.154396191239357,-0.2503020465373993,0.15241087973117828
1772572036472341000,5.714341064453125,0.14324790239334106,-0.12553280591964722,0.1514945775270462
1772572036490177800,5.732177734375,0.19593502581119537,0.06902777403593063,0.19914206862449646
1772572036508022300,5.750022216796875,0.25671613216400146,0.2246456891298294,0.24602597951889038
1772572036525854700,5.767854736328125,0.27580565214157104,0.289244681596756,0.2828305959701538
1772572036543689200,5.785689208984375,0.2938261926174164,0.256868839263916,0.3165809214115143
1772572036561524500,5.8035244140625,0.3116939961910248,0.2203696370124817,0.33399057388305664
1772572036579359000,5.82135888671875,0.3576616048812866,0.25763240456581116,0.33139440417289734
1772572036597194800,5.83919482421875,0.4196644127368927,0.22647829353809357,0.2721404731273651
1772572036615028700,5.85702880859375,0.4518875777721405,0.10781771689653397,0.1518000066280365
1772572036632864500,5.874864501953125,0.4332561790943146,-0.07742717117071152,0.003359758760780096
1772572036650698500,5.892698486328125,0.385303258895874,-0.1615738570690155,-0.1310305893421173
1772572036668518000,5.910517822265625,0.3196352422237396,-0.10705413669347763,-0.23900102078914642
1772572036686368500,5.928368408203125,0.24358251690864563,0.04642575979232788,-0.29168814420700073
1772572036704203800,5.946203857421875,0.2298380434513092,0.20891591906547546,-0.28848111629486084
1772572036722038300,5.964038330078125,0.2477058619260788,0.24938572943210602,-0.27870726585388184
1772572036739873300,5.981873291015625,0.242513507604599,0.13377949595451355,-0.2860376536846161
1772572036757708300,5.999708251953125,0.2093740701675415,-0.007941247895359993,-0.2779437005519867
1772572036775543300,6.017543212890625,0.18677204847335815,-0.11194105446338654,-0.22220222651958466
1772572036793378000,6.0353779296875,0.18814650177955627,-0.15729780495166779,-0.14737124741077423
1772572036811213300,6.05321337890625,0.2002110779285431,-0.1996002197265625,-0.08567385375499725
1772572036829047300,6.07104736328125,0.13820825517177582,-0.10766500234603882,-0.02886338345706463
1772572036846882800,6.0888828125,0.033597588539123535,0.03527746722102165,0.029626963660120964
1772572036864713200,6.106713134765625,-0.03145955875515938,0.07788532227277756,0.06414084881544113
1772572036882557200,6.12455712890625,-0.11178833991289139,-0.02367102913558483,0.039706241339445114
1772572036900385800,6.1423857421875,-0.2301434874534607,-0.12568552792072296,0.012522737495601177
1772572036918223600,6.1602236328125,-0.30802878737449646,-0.20311269164085388,0.026114489883184433
1772572036936055800,6.178055908203125,-0.31871894001960754,-0.21914790570735931,0.05665775015950203
1772572036953893000,6.19589306640625,-0.27320948243141174,-0.15012013912200928,0.10384709388017654
1772572036971726300,6.213726318359375,-0.2376265823841095,-0.12950342893600464,0.14217889308929443
1772572036989561600,6.2315615234375,-0.2070833146572113,0.03298672288656235,0.24816401302814484
1772572037007396000,6.24939599609375,-0.17104226350784302,0.1869247704744339,0.32818734645843506
1772572037025231600,6.267231689453125,-0.20631973445415497,0.2096794992685318,0.23747386038303375
1772572037043065900,6.28506591796875,-0.28038713335990906,0.21349740028381348,-0.0065668015740811825
1772572037060901400,6.3029013671875,-0.4297437071800232,-0.021991148591041565,-0.3851505517959595
1772572037078735600,6.320735595703125,-0.569631814956665,-0.2993239760398865,-0.7562511563301086
1772572037096571000,6.33857080078125,-0.6294966340065002,-0.4259257912635803,-0.9633345007896423
1772572037114405600,6.356405517578125,-0.6540839672088623,-0.2906191349029541,-0.9271407127380371
1772572037132241000,6.374240966796875,-0.6201809644699097,0.13316862285137177,-0.6418666839599609
1772572037150075100,6.3920751953125,-0.5042692422866821,0.43799036741256714,-0.19517144560813904
1772572037167910400,6.409910400390625,-0.44318273663520813,0.4714352488517761,0.21212296187877655
1772572037185745200,6.4277451171875,-0.42791110277175903,0.26969701051712036,0.47510045766830444
1772572037203580700,6.44558056640625,-0.3452915847301483,-0.07895433157682419,0.6320928335189819
1772572037221414700,6.46341455078125,-0.24236078560352325,-0.3344487249851227,0.6728680729866028
1772572037239250200,6.481250244140625,-0.1915062516927719,-0.4795292317867279,0.5508477091789246
1772572037257084700,6.499084716796875,-0.2249511331319809,-0.5714644193649292,0.32971450686454773
1772572037274920000,6.516919921875,-0.31230485439300537,-0.5975789427757263,0.12049316614866257
1772572037292756500,6.534756591796875,-0.3459024429321289,-0.5635231733322144,-0.039095375686883926
1772572037310572500,6.552572509765625,-0.35521814227104187,-0.37110063433647156,-0.17959438264369965
1772572037328422700,6.570422607421875,-0.37888917326927185,-0.128434419631958,-0.2845104932785034
1772572037346259200,6.58825927734375,-0.408363401889801,-0.008399397134780884,-0.3312416672706604
1772572037364091000,6.6060908203125,-0.4317290186882019,-0.046273041516542435,-0.3245221674442291
1772572037381931800,6.623931884765625,-0.3784310221672058,-0.05360342562198639,-0.26221391558647156
1772572037399764200,6.64176416015625,-0.23884831368923187,-0.020005837082862854,-0.1459967941045761
1772572037417597700,6.65959765625,-0.07208210229873657,0.039706241339445114,-0.011301007121801376
1772572037435433200,6.67743310546875,0.026114489883184433,0.036651913076639175,0.0757472887635231
1772572037453268500,6.6952685546875,0.08185594528913498,-0.014966198243200779,0.12095131725072861
1772572037471090400,6.71309033203125,0.08032877743244171,-0.003359758760780096,0.18677204847335815
1772572037488938000,6.73093798828125,0.10705413669347763,0.06017022579908371,0.252287358045578
1772572037506772500,6.7487724609375,0.16035212576389313,0.048258353024721146,0.24068090319633484
1772572037524607700,6.766607666015625,0.15454891324043274,0.03298672288656235,0.18524488806724548
1772572037542430000,6.784429931640625,0.15302173793315887,-0.04184427112340927,0.1469130963087082
1772572037560277500,6.802277587890625,0.17730364203453064,-0.07712173461914062,0.11575896292924881
1772572037578111700,6.82011181640625,0.1414152979850769,-0.048258353024721146,0.0988074541091919
1772572037595947300,6.837947265625,0.07070764899253845,0.1469130963087082,0.14798210561275482
1772572037613782000,6.855781982421875,0.0757472887635231,0.49877145886421204,0.21807889640331268
1772572037631617300,6.8736171875,0.18677204847335815,0.7338019013404846,0.3159700334072113
1772572037649451000,6.891450927734375,0.21930062770843506,0.5193881988525391,0.3828597962856293
1772572037667286800,6.909286865234375,0.17501288652420044,0.16004669666290283,0.389426589012146
1772572037685121000,6.92712109375,0.1414152979850769,-0.05543602257966995,0.28848111629486084
1772572037702956800,6.944956787109375,0.13225232064723969,-0.06582073122262955,0.14294247329235077
1772572037720790500,6.96279052734375,0.16172657907009125,0.13637566566467285,0.04581489413976669
1772572037738626000,6.9806259765625,0.23105977475643158,0.33857205510139465,0.04596760869026184
1772572037756460500,6.99846044921875,0.33918291330337524,0.47907108068466187,0.15836681425571442
1772572037774295800,7.0162958984375,0.4308127164840698,0.5169447064399719,0.32879820466041565
1772572037792130300,7.03413037109375,0.4583016633987427,0.4050036668777466,0.4541783034801483
1772572037809965600,7.051965576171875,0.4303545653820038,0.2695443034172058,0.48517972230911255
1772572037827799600,7.069799560546875,0.3900374472141266,0.19944749772548676,0.45723262429237366
1772572037845635000,7.087635009765625,0.395077109336853,0.14217889308929443,0.3836233615875244
1772572037863469800,7.1054697265625,0.4437935948371887,0.022907447069883347,0.2929098904132843
1772572037881304800,7.123304931640625,0.5213735103607178,-0.1722639948129654,0.1693623960018158
1772572037899138800,7.141138916015625,0.5670356750488281,-0.22403483092784882,-0.003512475173920393
1772572037916974600,7.158974609375,0.5459607839584351,-0.16432274878025055,-0.12721268832683563
1772572037934808800,7.176808837890625,0.45036038756370544,-0.08567385375499725,-0.16844609379768372
1772572037952644000,7.19464404296875,0.32559117674827576,0.02382374368607998,-0.17379115521907806
1772572037970478600,7.212478515625,0.27000242471694946,0.1615738570690155,-0.13530665636062622
1772572037988301300,7.23030126953125,0.2782491147518158,0.12431107461452484,-0.11316278576850891
1772572038006135800,7.2481357421875,0.26710084080696106,-0.043676864355802536,-0.13072516024112701
1772572038023985200,7.265985107421875,0.23884831368923187,-0.17211128771305084,-0.152105450630188
1772572038041810700,7.283810791015625,0.21212296187877655,-0.21853704750537872,-0.14813482761383057
1772572038059653400,7.3016533203125,0.20570887625217438,-0.06872233748435974,-0.13301590085029602
1772572038077487600,7.319487548828125,0.27290403842926025,0.10384709388017654,-0.11682797968387604
1772572038095318500,7.337318603515625,0.3006984293460846,0.13790282607078552,-0.05726861581206322
1772572038113161700,7.35516162109375,0.2970332205295563,-0.03527746722102165,0.02535090781748295
1772572038130992600,7.37299267578125,0.3136793076992035,-0.21090123057365417,0.09666942805051804
1772572038148826600,7.39082666015625,0.26511552929878235,-0.34116822481155396,0.11041389405727386
1772572038166662400,7.408662353515625,0.13698652386665344,-0.3926336467266083,0.07483099400997162
1772572038184496600,7.42649658203125,-0.0039706239476799965,-0.408363401889801,0.02367102913558483
1772572038202332000,7.444331787109375,-0.10399980843067169,-0.3381139039993286,0.032070424407720566
1772572038220166400,7.46216650390625,-0.1514945775270462,-0.3245221674442291,0.04459316283464432
1772572038238001700,7.480001708984375,-0.22876903414726257,-0.3831652104854584,0.01114829070866108
1772572038255835600,7.497835693359375,-0.3349068760871887,-0.2961169183254242,0.008246680721640587
1772572038273671400,7.51567138671875,-0.3510948121547699,-0.09483683109283447,0.08506298810243607
1772572038291505400,7.53350537109375,-0.3556762933731079,0.020616702735424042,0.13668109476566315
1772572038309341000,7.5513408203125,-0.3680463135242462,0.09712757170200348,0.08689557760953903
1772572038327175000,7.5691748046875,-0.41172316670417786,-0.08109235763549805,-0.05604688450694084
1772572038345010400,7.587010498046875,-0.45463645458221436,-0.3312416672706604,-0.18555031716823578
1772572038362845000,7.604844970703125,-0.43188172578811646,-0.418748140335083,-0.17867808043956757
1772572038380680200,7.62268017578125,-0.3488040566444397,-0.26511552929878235,-0.009621127508580685
1772572038398509800,7.640509765625,-0.19624045491218567,0.015882495790719986,0.28955012559890747
1772572038416350000,7.658349853515625,-0.10522153973579407,0.15073099732398987,0.47021353244781494
1772572038434184400,7.676184326171875,-0.06704246252775192,0.18157969415187836,0.4680754840373993
1772572038452007200,7.694007080078125,-0.08949175477027893,0.16065755486488342,0.35262197256088257
1772572038469838600,7.711838623046875,-0.1488984078168869,0.08032877743244171,0.19318613409996033
1772572038487677400,7.729677490234375,-0.18127426505088806,0.019853120669722557,0.041691552847623825
1772572038505526500,7.747526611328125,-0.19120082259178162,-0.031612277030944824,-0.1088867336511612
1772572038523359000,7.76535888671875,-0.19593502581119537,-0.07712173461914062,-0.2301434874534607
1772572038541186000,7.78318603515625,-0.21471913158893585,-0.09834930300712585,-0.29886582493782043
1772572038559028500,7.801028564453125,-0.25305092334747314,-0.12431107461452484,-0.3263547718524933
1772572038576862700,7.81886279296875,-0.2765692472457886,-0.1241583600640297,-0.3205515444278717
1772572038594698000,7.836697998046875,-0.2548835277557373,-0.05314527451992035,-0.2883284091949463
1772572038612532700,7.85453271484375,-0.21349740028381348,0.00733038317412138,-0.24663683772087097
1772572038630367500,7.872367431640625,-0.21059578657150269,0.08155050873756409,-0.13759739696979523
1772572038648202000,7.890201904296875,-0.1693623960018158,0.13377949595451355,0.02672535367310047
1772572038666036700,7.90803662109375,-0.07696902006864548,0.08903361111879349,0.14798210561275482
1772572038683871000,7.92587109375,-0.008704829961061478,-0.01160643994808197,0.20311269164085388
1772572038701705500,7.94370556640625,0.018936822190880775,-0.05757404863834381,0.2370157092809677
1772572038719544000,7.9615439453125,0.013286318629980087,0.0010690141934901476,0.2926044464111328
1772572038737377000,7.979376953125,0.01237002108246088,0.15577064454555511,0.34025195240974426
1772572038755210500,7.99721044921875,0.02733621932566166,0.30711251497268677,0.3550654351711273
1772572038773046000,8.0150458984375,0.04841107130050659,0.21319197118282318,0.2762638032436371
1772572038790875100,8.032875244140625,0.06001751124858856,-0.047189339995384216,0.12858712673187256
1772572038808703500,8.050703369140624,0.06383541971445084,-0.30085113644599915,-0.014202617108821869
1772572038826549200,8.06854931640625,0.05513058975338936,-0.3323107063770294,-0.09697485715150833
1772572038844385800,8.0863857421875,0.06200282275676727,-0.18967366218566895,-0.11728613078594208
1772572038862219800,8.1042197265625,0.07819075137376785,0.07040221989154816,-0.04092797264456749
1772572038880055000,8.122054931640625,0.20631973445415497,0.34208452701568604,0.17287486791610718
1772572038897889500,8.1398896484375,0.30802878737449646,0.2269364446401596,0.3066543638706207
1772572038915724800,8.157724853515624,0.3225368559360504,0.005803219974040985,0.2330450862646103
1772572038933559300,8.175559326171875,0.2958115041255951,-0.09254608303308487,0.05955936014652252
1772572038951381800,8.1933818359375,0.2984076738357544,-0.02672535367310047,-0.05665775015950203
1772572038969216000,8.211216064453126,0.33017265796661377,0.14446963369846344,-0.09315694868564606
1772572038987064000,8.22906396484375,0.37751471996307373,0.2684752643108368,-0.0806342139840126
1772572039004898300,8.246898193359375,0.4121813178062439,0.3173444867134094,-0.007788531947880983
1772572039022733800,8.26473388671875,0.4421137273311615,0.3147483170032501,0.12247848510742188
1772572039040567600,8.282567626953124,0.4573853611946106,0.2041817009449005,0.2583959996700287
1772572039058399200,8.300399169921874,0.4271475374698639,0.0754418596625328,0.32070425152778625
1772572039076237600,8.318237548828124,0.38209620118141174,0.021838432177901268,0.29138273000717163
1772572039094068500,8.336068359375,0.3784310221672058,-0.022602014243602753,0.18157969415187836
1772572039111911400,8.353911376953125,0.42928555607795715,-0.13530665636062622,0.00366519158706069
1772572039129742000,8.3717421875,0.447000652551651,-0.2606867551803589,-0.21868975460529327
1772572039147576600,8.38957666015625,0.43676865100860596,-0.2793181240558624,-0.39064833521842957
1772572039165410800,8.407410888671874,0.3978259861469269,-0.15317445993423462,-0.47448956966400146
1772572039183248000,8.425247802734376,0.3400992155075073,0.13439035415649414,-0.5167919993400574
1772572039201081300,8.443081298828124,0.3000875413417816,0.40103304386138916,-0.5395467281341553
1772572039218915600,8.46091552734375,0.29886582493782043,0.5377141237258911,-0.5348125100135803
1772572039236751000,8.478751220703124,0.2981022298336029,0.5207626223564148,-0.49006664752960205
1772572039254585300,8.49658544921875,0.27259862422943115,0.43646320700645447,-0.41233405470848083
1772572039272420600,8.514420654296876,0.26801711320877075,0.3908010423183441,-0.33628132939338684
1772572039290254600,8.532254638671875,0.27779096364974976,0.3549126982688904,-0.23396138846874237
1772572039308090000,8.550090087890625,0.22846360504627228,0.3043636083602905,-0.11316278576850891
1772572039325924400,8.56792431640625,0.1408044397830963,0.2451096773147583,0.001679879380390048
1772572039343760000,8.585759765625,0.12079860270023346,0.1615738570690155,0.08338310569524765
1772572039361594000,8.603593994140626,0.12003502249717712,0.11560624837875366,0.09728029370307922
1772572039379429600,8.6214296875,0.10399980843067169,0.10216721147298813,0.03420845419168472
1772572039397263600,8.639263671875,0.05925392732024193,0.08261952549219131,-0.038026362657547
1772572039415099100,8.65709912109375,0.036041051149368286,0.05711590126156807,-0.05100724846124649
1772572039432933600,8.67493359375,0.009773843921720982,0.048258353024721146,-0.024129176512360573
1772572039450768100,8.69276806640625,-0.005497787147760391,0.16951510310173035,0.08888089656829834
1772572039468602600,8.7106025390625,-0.02367102913558483,0.02428189292550087,0.34544429183006287
1772572039486438400,8.7284384765625,0.08109235763549805,-0.22617286443710327,0.4538728892803192
1772572039504268500,8.7462685546875,0.14034628868103027,-0.050243668258190155,0.5079344511032104
1772572039522111700,8.76411181640625,0.12965615093708038,0.15195272862911224,0.4115704596042633
1772572039539942000,8.78194189453125,0.017562376335263252,0.24174992740154266,0.16264286637306213
1772572039557778000,8.79977783203125,-0.1635591685771942,0.11743884533643723,-0.18096883594989777
