time,seconds_elapsed,z,y,x
1772572988260023000,0.10602294921875,-0.6264858245849609,-1.3233375549316406,-1.7483861446380615
1772572988278222000,0.12422216796875,-1.0920391082763672,-0.768991231918335,-1.2748674154281616
1772572988296414200,0.142414306640625,-0.9941978454589844,-0.40831589698791504,-0.8201519250869751
1772572988314605600,0.16060546875,-0.6838064193725586,-0.21884799003601074,-0.6129390001296997
1772572988332798000,0.1787978515625,0.1867694854736328,-0.3571927547454834,-0.18431246280670166
1772572988350988300,0.19698828125,-0.45117759704589844,-0.70603346824646,-0.26412105560302734
1772572988369180700,0.2151806640625,1.201533317565918,-1.958850622177124,-0.5969375371932983
1772572988387372000,0.2333720703125,1.4930105209350586,-2.124943494796753,-0.4001011252403259
1772572988405563600,0.251563720703125,1.1246137619018555,-1.2995193004608154,-0.08141672611236572
1772572988423755300,0.26975537109375,0.8502969741821289,-0.8042213916778564,0.21681618690490723
1772572988441943300,0.287943359375,0.6383028030395508,-1.2242708206176758,-0.20301443338394165
1772572988460137700,0.3061376953125,0.043593406677246094,-1.4763621091842651,-1.2103581428527832
1772572988478329300,0.324329345703125,-0.2844991683959961,-1.2235480546951294,-1.682356357574463
1772572988496521000,0.34252099609375,-0.004920005798339844,-1.3941794633865356,-1.4153077602386475
1772572988514709000,0.360708984375,0.3962583541870117,-1.2953702211380005,-1.521634578704834
1772572988532903400,0.3789033203125,0.19606494903564453,-1.2408292293548584,-1.6207120418548584
1772572988551095000,0.397094970703125,-0.5807037353515625,-1.233433723449707,-1.9008026123046875
1772572988569286700,0.41528662109375,-0.7520723342895508,-1.3709173202514648,-2.0136468410491943
1772572988587477800,0.433477783203125,0.3571195602416992,-1.5835232734680176,-1.4231270551681519
1772572988605669400,0.45166943359375,-1.549417495727539,-1.5784482955932617,-0.9580373167991638
1772572988623860700,0.46986083984375,-2.74466609954834,-1.3328168392181396,-1.2077934741973877
1772572988642052600,0.488052490234375,-3.567924976348877,-1.6181015968322754,-1.1369332075119019
1772572988660243500,0.506243408203125,-4.565042972564697,-2.683964252471924,-0.7662398815155029
1772572988678109200,0.524109130859375,-4.759666442871094,-2.384159803390503,0.30443012714385986
1772572988695948000,0.541947998046875,-4.374095916748047,-1.231898307800293,1.3039679527282715
1772572988713783000,0.559782958984375,-3.948967933654785,-2.3233773708343506,0.7892974615097046
1772572988731616500,0.577616455078125,-3.949310302734375,-3.194577217102051,0.8734233379364014
1772572988749452000,0.5954521484375,-3.1685423851013184,-2.933213949203491,0.8297185897827148
1772572988767286800,0.613286865234375,-1.368330955505371,-2.9116501808166504,-0.43200939893722534
1772572988785121800,0.631121826171875,0.30602550506591797,-3.5478551387786865,-0.855037271976471
1772572988802956300,0.648956298828125,0.5781984329223633,-3.1275644302368164,-1.4822299480438232
1772572988820790800,0.666790771484375,-1.7716922760009766,-0.9882669448852539,-2.3103084564208984
1772572988838611700,0.68461181640625,-0.9372129440307617,2.241203784942627,-2.418036460876465
1772572988856461800,0.7024619140625,5.656645774841309,2.827359676361084,-1.658796787261963
1772572988874295000,0.720294921875,13.876402854919434,0.3205881118774414,0.39029788970947266
1772572988892129800,0.7381298828125,19.894489288330078,-0.6214413642883301,1.9778887033462524
1772572988909964500,0.755964599609375,19.84209442138672,-0.9027347564697266,1.3529890775680542
1772572988927799600,0.773799560546875,15.978812217712402,-0.8202214241027832,0.3955536484718323
1772572988945634300,0.79163427734375,11.457841873168945,1.5573930740356445,-0.8162976503372192
1772572988963469000,0.809468994140625,5.822153568267822,5.343350410461426,-0.18923619389533997
1772572988981303300,0.82730322265625,4.147048473358154,6.682185173034668,-0.06609556078910828
1772572988999138000,0.845137939453125,4.867650032043457,5.355376720428467,-1.8582110404968262
1772572989016973300,0.862973388671875,3.975709915161133,3.3003950119018555,-1.4863264560699463
1772572989034794200,0.880794189453125,0.2653813362121582,3.5355238914489746,-0.9703515768051147
1772572989052644000,0.89864404296875,-2.950592041015625,3.8202099800109863,-0.36234647035598755
1772572989070477000,0.91647705078125,-4.895085334777832,2.361205577850342,-0.781152069568634
1772572989088312000,0.93431201171875,-5.588700294494629,-0.3619246482849121,-2.14155650138855
1772572989106146800,0.952146728515625,-7.870438575744629,-1.2276196479797363,-2.1899917125701904
1772572989123981600,0.969981689453125,-6.02851676940918,-3.635347604751587,-0.8091965913772583
1772572989141816000,0.987816162109375,-4.980091571807861,-5.8535237312316895,-0.9605388641357422
1772572989159650800,1.00565087890625,-5.813897132873535,-5.305458068847656,0.8814812898635864
1772572989177485800,1.02348583984375,-3.518691062927246,-4.543001174926758,2.1796364784240723
1772572989195320300,1.0413203125,-1.498978614807129,-4.0882368087768555,1.4113551378250122
1772572989213155000,1.059155029296875,-2.5934085845947266,-4.5532331466674805,0.12079763412475586
1772572989230978000,1.07697802734375,-5.782796382904053,-3.700545310974121,-0.8462063074111938
1772572989248824300,1.09482421875,-6.7542619705200195,-2.935178756713867,-1.3007726669311523
1772572989266659600,1.11265966796875,-6.461641311645508,-2.41544246673584,-1.377953290939331
1772572989284494300,1.130494384765625,-5.1487274169921875,-3.0515546798706055,-1.4219776391983032
1772572989302328800,1.148328857421875,-4.605404853820801,-2.8329389095306396,-1.9087024927139282
1772572989320163600,1.16616357421875,-4.857336521148682,-2.347668170928955,-1.7060641050338745
1772572989337986000,1.183986083984375,-5.211121559143066,-2.0182909965515137,-1.208274245262146
1772572989355832800,1.201832763671875,-5.1018218994140625,-1.9412477016448975,-0.9259907007217407
1772572989373655300,1.2196552734375,-4.676298141479492,-1.9094771146774292,-0.8678194880485535
1772572989391490800,1.23749072265625,-4.2527618408203125,-2.1141409873962402,-0.746928870677948
1772572989409331500,1.25533154296875,-3.916184425354004,-2.207798719406128,-0.4413730502128601
1772572989427172400,1.27317236328125,-3.890995502471924,-2.5308496952056885,-0.7486625909805298
1772572989444994300,1.290994384765625,-3.1631832122802734,-2.8841142654418945,-2.0317649841308594
1772572989462841300,1.30884130859375,-3.2398648262023926,-2.761781930923462,-3.044260263442993
1772572989480662500,1.32666259765625,-5.457859039306641,-1.5618259906768799,-2.7215240001678467
1772572989498501400,1.34450146484375,-5.361728668212891,-0.617835283279419,-0.7176204919815063
1772572989516333800,1.362333740234375,0.6574907302856445,-0.22663235664367676,-0.05828390643000603
1772572989534182000,1.380181884765625,5.540313720703125,0.00536036491394043,-0.9538722038269043
1772572989552015400,1.398015380859375,6.145949363708496,-0.10227465629577637,-0.8369859457015991
1772572989569847600,1.41584765625,6.635448455810547,0.8928020000457764,1.1991500854492188
1772572989587685600,1.433685546875,9.099937438964844,2.0459070205688477,2.2162890434265137
1772572989605519400,1.451519287109375,13.307741165161133,0.22023749351501465,-0.42647963762283325
1772572989623355400,1.46935546875,14.053471565246582,-0.18738245964050293,-2.588284730911255
1772572989641188900,1.48718896484375,13.104171752929688,1.348747730255127,-1.427105188369751
1772572989659023400,1.5050234375,15.107784271240234,1.0775940418243408,0.39653006196022034
1772572989676858000,1.522858154296875,18.187313079833984,-0.9744694232940674,-0.6198391318321228
1772572989694692900,1.54069287109375,17.13404083251953,-1.2458593845367432,-0.6219565868377686
1772572989712528000,1.55852783203125,13.646687507629395,-0.24515748023986816,0.9104034900665283
1772572989730362600,1.576362548828125,10.775155067443848,0.5834717750549316,2.3057076930999756
1772572989748186600,1.5941865234375,6.041345596313477,0.7935309410095215,0.16997045278549194
1772572989766032100,1.6120322265625,0.014378547668457031,0.5702066421508789,-1.7225223779678345
1772572989783867000,1.629866943359375,-3.770695686340332,-0.2826104164123535,-2.9756782054901123
1772572989801702000,1.647701904296875,-4.520545482635498,-0.2912626266479492,-1.4342936277389526
1772572989819536100,1.6655361328125,-4.448272705078125,0.30063343048095703,1.3002843856811523
1772572989837363700,1.68336376953125,-4.754078388214111,-0.15658855438232422,1.5890467166900635
1772572989855206000,1.701205810546875,-6.351430892944336,-1.0381355285644531,0.7872021794319153
1772572989873022200,1.719022216796875,-7.07273006439209,-1.611565113067627,0.7418605089187622
1772572989890875100,1.736875244140625,-5.696806907653809,-2.6442785263061523,-1.0165252685546875
1772572989908710000,1.7547099609375,-5.709202766418457,-2.671529531478882,-1.0351511240005493
1772572989926545000,1.772544921875,-6.251282691955566,-2.0985054969787598,-0.35253503918647766
1772572989944379400,1.79037939453125,-7.073427677154541,-1.6889992952346802,0.4053375720977783
1772572989962214700,1.808214599609375,-7.522241115570068,-2.06720232963562,0.25176510214805603
1772572989980049000,1.826048828125,-7.021939277648926,-2.858147144317627,-0.6343262195587158
1772572989997883600,1.843883544921875,-5.7197160720825195,-3.581911563873291,-1.148841381072998
1772572990015718700,1.86171875,-4.891278266906738,-3.9337825775146484,-0.9276432394981384
1772572990033552000,1.8795517578125,-5.361433982849121,-3.818484306335449,-0.4631747603416443
1772572990051390000,1.897389892578125,-6.752476692199707,-3.3653159141540527,0.3636825978755951
1772572990069222000,1.915221923828125,-7.385849475860596,-2.672999858856201,1.2652897834777832
1772572990087057700,1.9330576171875,-5.8513898849487305,-3.023352861404419,0.207339346408844
1772572990104890600,1.950890625,-3.5942516326904297,-4.110552787780762,-1.8018361330032349
1772572990122728400,1.968728515625,-4.995368480682373,-5.331973075866699,-3.643716812133789
1772572990140561700,1.986561767578125,-7.448472499847412,-4.99768590927124,-4.2795939445495605
1772572990158396200,2.004396240234375,-7.004072189331055,-4.394733428955078,-4.496430397033691
1772572990176231200,2.022231201171875,-4.880369186401367,-2.672208070755005,-2.7028722763061523
1772572990194066000,2.04006591796875,-2.321369171142578,-2.3631255626678467,-1.242194414138794
1772572990211900700,2.057900634765625,1.9099578857421875,-1.6190769672393799,1.049079418182373
1772572990229735400,2.0757353515625,8.439711570739746,-0.7908563613891602,2.932255268096924
1772572990247570400,2.0935703125,8.82453441619873,-0.9376544952392578,3.006580114364624
1772572990265405000,2.111405029296875,7.5210371017456055,-1.189772367477417,1.7383770942687988
1772572990283240000,2.129239990234375,7.189396858215332,-0.4146389961242676,0.8981959223747253
1772572990301074400,2.147074462890625,5.85211181640625,1.1505389213562012,0.4659491181373596
1772572990318909200,2.1649091796875,4.465158462524414,2.9041748046875,0.16828006505966187
1772572990336744000,2.182743896484375,6.849769592285156,3.1562156677246094,0.32112762331962585
1772572990354579000,2.200578857421875,11.708504676818848,2.8316354751586914,0.907486081123352
1772572990372413700,2.21841357421875,12.73465633392334,2.8140830993652344,1.2849794626235962
1772572990390248200,2.236248291015625,14.439231872558594,1.5672836303710938,0.4543723464012146
1772572990408078800,2.254078857421875,17.236553192138672,-1.3209340572357178,-1.6192443370819092
1772572990425918000,2.27191796875,15.96669864654541,-1.5329017639160156,-2.1591787338256836
1772572990443752400,2.28975244140625,12.529611587524414,-0.2836296558380127,-1.0754355192184448
1772572990461587200,2.307587158203125,9.875991821289062,1.1518874168395996,0.786332368850708
1772572990479422000,2.325421875,6.333670616149902,1.5029020309448242,0.6194087266921997
1772572990497257000,2.343257080078125,2.0815391540527344,0.8378262519836426,-1.4911022186279297
1772572990515091500,2.361091552734375,-1.078385353088379,-0.07752752304077148,-2.3054275512695312
1772572990532926500,2.378926513671875,-3.4103875160217285,0.11835145950317383,-2.4417591094970703
1772572990550761000,2.396760986328125,-4.8521833419799805,-0.20199155807495117,-1.632900357246399
1772572990568595500,2.414595458984375,-4.240016937255859,-1.4695067405700684,-1.0042685270309448
1772572990586431000,2.432430908203125,-5.707089424133301,-2.5291695594787598,-1.1046335697174072
1772572990604265700,2.450265625,-7.2444233894348145,-3.6517038345336914,-1.6266546249389648
1772572990622086000,2.4680859375,-7.890604019165039,-4.254573822021484,-1.807789921760559
1772572990639919900,2.485919921875,-8.350225448608398,-4.362053394317627,-1.5903489589691162
1772572990657757700,2.5037578125,-8.223435401916504,-4.444772720336914,-1.5813519954681396
1772572990675592200,2.52159228515625,-7.912799835205078,-4.480427265167236,-1.8109557628631592
1772572990693427700,2.539427734375,-7.643878936767578,-4.503326892852783,-2.2753992080688477
1772572990711276800,2.55727685546875,-7.045111656188965,-4.794613361358643,-2.654567241668701
1772572990729109200,2.575109130859375,-6.461338520050049,-5.277735710144043,-2.7603256702423096
1772572990746943500,2.592943603515625,-6.732430934906006,-5.158512115478516,-2.2387242317199707
1772572990764778800,2.61077880859375,-7.299222946166992,-4.3409423828125,-0.9331225156784058
1772572990782613000,2.628613037109375,-7.665550708770752,-3.3674533367156982,0.3059428930282593
1772572990800439300,2.646439208984375,-7.498877048492432,-3.282127857208252,0.29827189445495605
1772572990818282500,2.664282470703125,-6.577308177947998,-3.7180304527282715,-0.37615519762039185
1772572990836117500,2.682117431640625,-5.720487594604492,-3.6681244373321533,-0.9432418346405029
1772572990853952300,2.6999521484375,-4.848305702209473,-2.995053291320801,-0.6219018697738647
1772572990871786800,2.717786865234375,-4.224526882171631,-1.460726261138916,0.017133474349975586
1772572990889622300,2.735622314453125,-4.153508186340332,-0.3956565856933594,0.18416297435760498
1772572990907455000,2.753455078125,-2.4757614135742188,-0.745305061340332,-0.21134796738624573
1772572990925292800,2.771292724609375,1.3067054748535156,-1.0246238708496094,-0.5944632291793823
1772572990943126000,2.7891259765625,3.878903388977051,0.01297140121459961,-1.2166386842727661
1772572990960960800,2.806960693359375,4.484184265136719,0.9322166442871094,-1.7318581342697144
1772572990978792400,2.82479248046875,7.982028961181641,1.67059326171875,0.6515545845031738
1772572990996633600,2.842633544921875,15.589851379394531,0.10299253463745117,1.3433810472488403
1772572991014465300,2.86046533203125,19.985807418823242,-1.5367722511291504,-1.0533866882324219
1772572991032300000,2.878300048828125,16.64925765991211,-0.09818577766418457,-1.5664048194885254
1772572991050135000,2.896135009765625,12.348492622375488,2.516784191131592,-1.217584252357483
1772572991067969800,2.9139697265625,13.702105522155762,1.9129149913787842,-1.5478869676589966
1772572991085795000,2.931795166015625,19.45279312133789,-0.6111679077148438,-0.538823664188385
1772572991103639300,2.949639404296875,18.038970947265625,-1.024566650390625,0.9093508124351501
1772572991121473800,2.967473876953125,10.541812896728516,0.7407321929931641,1.622119665145874
1772572991139309000,2.98530908203125,4.371291160583496,2.2782697677612305,1.1895644664764404
1772572991157143800,3.003143798828125,2.3023204803466797,1.659243106842041,0.127174973487854
1772572991174978600,3.020978515625,1.1741037368774414,0.18340015411376953,-1.2048155069351196
1772572991192813000,3.03881298828125,-1.8053884506225586,-0.9851803779602051,-2.140101909637451
1772572991210647800,3.056647705078125,-5.634687900543213,-0.9628157615661621,-1.6805216073989868
1772572991228483000,3.074483154296875,-7.845855236053467,-0.8767986297607422,-0.7329316139221191
1772572991246317800,3.09231787109375,-7.265697002410889,-1.583904504776001,-0.3353278636932373
1772572991264152300,3.11015234375,-5.377214431762695,-2.815460443496704,-0.8273420333862305
1772572991281986800,3.12798681640625,-4.396615982055664,-3.513472080230713,-1.1641120910644531
1772572991299821800,3.14582177734375,-5.402625560760498,-3.677366256713867,-1.7953909635543823
1772572991317656600,3.163656494140625,-7.152287006378174,-3.8337903022766113,-2.5731654167175293
1772572991335491800,3.181491943359375,-8.551216125488281,-3.7909770011901855,-3.04335618019104
1772572991353326300,3.199326416015625,-9.033016204833984,-3.4770588874816895,-2.6168413162231445
1772572991371161000,3.2171611328125,-8.470294952392578,-2.8050405979156494,-1.5250248908996582
1772572991388996400,3.234996337890625,-7.212765693664551,-2.5589065551757812,-0.6693754196166992
1772572991406830800,3.252830810546875,-5.821563720703125,-2.92276668548584,-0.7189241647720337
1772572991424665300,3.270665283203125,-5.2231125831604,-3.4605343341827393,-1.1622263193130493
1772572991442500000,3.2885,-5.597352504730225,-3.7595720291137695,-1.362795352935791
1772572991460330800,3.306330810546875,-5.871087551116943,-3.702444553375244,-1.1220088005065918
1772572991478167300,3.324167236328125,-5.942279815673828,-3.699352741241455,-0.839201807975769
1772572991495992000,3.341991943359375,-4.858673095703125,-3.770052909851074,-0.5625326633453369
1772572991513826800,3.359826904296875,-3.4369029998779297,-3.4234607219696045,-0.06943047046661377
1772572991531662600,3.37766259765625,-2.18582820892334,-2.8285059928894043,-0.4743540287017822
1772572991549512000,3.395511962890625,-2.8415541648864746,-2.215139150619507,-1.945049524307251
1772572991567331600,3.41333154296875,-3.6582093238830566,-1.3625526428222656,-2.671271324157715
1772572991585178600,3.4311787109375,-1.3374624252319336,-1.0460100173950195,-2.2540881633758545
1772572991603010800,3.4490107421875,4.09797477722168,-0.4079246520996094,-2.079169988632202
1772572991620850700,3.4668505859375,6.464853286743164,-0.3790397644042969,0.21504104137420654
1772572991638683400,3.484683349609375,7.346471786499023,-0.467379093170166,2.1274611949920654
1772572991656518000,3.502517822265625,9.245264053344727,-0.446835994720459,2.0057995319366455
1772572991674350300,3.520350341796875,10.572732925415039,-0.39216089248657227,0.9333636164665222
1772572991692190200,3.538190185546875,10.795428276062012,0.48050451278686523,0.42745256423950195
1772572991710022400,3.5560224609375,12.692079544067383,1.1888208389282227,0.36039039492607117
1772572991727857200,3.573857177734375,15.121252059936523,1.4246127605438232,-0.3461640477180481
1772572991745691600,3.591691650390625,16.059398651123047,1.0476477146148682,-0.3411259949207306
1772572991763526400,3.6095263671875,16.316917419433594,0.5767219066619873,1.2942876815795898
1772572991781361400,3.627361328125,15.222074508666992,1.0579833984375,2.398512125015259
1772572991799196200,3.645196044921875,11.420363426208496,1.6808030605316162,1.7533540725708008
1772572991817031000,3.663031005859375,6.863982200622559,1.97593092918396,0.527228832244873
1772572991834866200,3.6808662109375,3.2623167037963867,2.1774661540985107,-0.45109081268310547
1772572991852700700,3.69870068359375,2.1441497802734375,1.4214472770690918,-1.5586636066436768
1772572991870535400,3.716535400390625,0.7721834182739258,0.3909604549407959,-2.085282325744629
1772572991888370400,3.734370361328125,-2.374297618865967,0.18706464767456055,-1.392886996269226
1772572991906205200,3.752205078125,-4.732892036437988,0.8113315105438232,0.6276386976242065
1772572991924027400,3.77002734375,-5.974471092224121,0.8797950744628906,2.1881484985351562
1772572991941862700,3.787862548828125,-7.083500862121582,0.019432783126831055,2.001372814178467
1772572991959709700,3.805709716796875,-6.866546154022217,-1.5576579570770264,0.9351404309272766
1772572991977538000,3.8235380859375,-6.249153137207031,-2.8419463634490967,-0.05398595333099365
1772572991995379500,3.84137939453125,-6.301971435546875,-3.2086565494537354,-0.5162257552146912
1772572992013201400,3.859201416015625,-6.6856279373168945,-2.842590570449829,-0.30804282426834106
1772572992031049000,3.877049072265625,-7.283320426940918,-2.4641151428222656,0.015385448932647705
1772572992048884000,3.894884033203125,-7.890738010406494,-2.2333076000213623,0.4310365915298462
1772572992066718200,3.91271826171875,-8.02763843536377,-2.328234910964966,0.32380229234695435
1772572992084553700,3.9305537109375,-7.787694454193115,-2.6978225708007812,-0.11987632513046265
1772572992102388000,3.948387939453125,-6.913924217224121,-2.6895058155059814,-0.48106980323791504
1772572992120223000,3.966222900390625,-6.542730808258057,-2.4083118438720703,-0.47549372911453247
1772572992138058200,3.984058349609375,-6.4698028564453125,-2.1243622303009033,-0.2753821313381195
1772572992155892700,4.001892822265625,-6.378920555114746,-1.9036685228347778,0.1917966604232788
1772572992173727000,4.01972705078125,-6.080610275268555,-1.7132527828216553,0.8202232122421265
1772572992191562800,4.037562744140625,-5.185791969299316,-1.7799232006072998,1.0992403030395508
1772572992209396700,4.055396728515625,-3.6768245697021484,-2.427537441253662,0.511563777923584
1772572992227232300,4.073232177734375,-2.072476387023926,-2.7268905639648438,-0.21406126022338867
1772572992245066200,4.091066162109375,-2.6362123489379883,-1.501807689666748,-0.8466017246246338
1772572992262901500,4.108901611328125,-5.118529319763184,0.07037591934204102,-0.0606694221496582
1772572992280733700,4.126733642578125,-5.13713264465332,0.6134092807769775,0.42411530017852783
1772572992298573300,4.1445732421875,-0.5738449096679688,0.21059775352478027,-0.6878547668457031
1772572992316405800,4.16240576171875,3.4696569442749023,-1.5021984577178955,-1.92231285572052
1772572992334241000,4.180240966796875,5.559743881225586,-2.668872356414795,-1.3982188701629639
1772572992352076000,4.198075927734375,9.579901695251465,-2.4073002338409424,0.24728551506996155
1772572992369910300,4.21591015625,13.29997444152832,-1.5024831295013428,0.9742871522903442
1772572992387745300,4.233745361328125,12.581382751464844,0.5413165092468262,1.0618910789489746
1772572992405580000,4.251580078125,12.3925142288208,1.5896193981170654,0.3985200524330139
1772572992423414500,4.26941455078125,15.179462432861328,0.21163725852966309,-1.800369381904602
1772572992441249500,4.28724951171875,17.034496307373047,-1.1509512662887573,-2.2262380123138428
1772572992459084000,4.305083984375,16.083415985107422,-0.48961448669433594,-0.11672766506671906
1772572992476907800,4.32290771484375,13.068899154663086,0.8798608779907227,1.818588137626648
1772572992494757000,4.340757080078125,9.471114158630371,1.5007121562957764,1.8730340003967285
1772572992512573200,4.3585732421875,5.770571708679199,1.5130045413970947,0.7836520075798035
1772572992530423600,4.376423583984375,3.1578245162963867,1.1036162376403809,-0.392729789018631
1772572992548258600,4.394258544921875,1.0712594985961914,0.44447851181030273,-1.2132337093353271
1772572992566093300,4.41209326171875,-1.1940064430236816,-0.11164546012878418,-1.1912635564804077
1772572992583927800,4.429927734375,-3.7241578102111816,-0.3013730049133301,-0.44071659445762634
1772572992601763000,4.44776318359375,-5.607367038726807,-0.6337013244628906,0.2632673978805542
1772572992619597600,4.46559765625,-6.758268356323242,-1.0740399360656738,0.27275776863098145
1772572992637432600,4.4834326171875,-7.331296920776367,-1.5773265361785889,0.30606162548065186
1772572992655267600,4.501267578125,-7.389371395111084,-2.210109233856201,0.16355013847351074
1772572992673102000,4.51910205078125,-6.888333320617676,-2.6131622791290283,-0.08058559894561768
1772572992690937000,4.53693701171875,-6.98390007019043,-3.0860977172851562,-0.4808846116065979
1772572992708770600,4.5547705078125,-8.339315414428711,-3.2735085487365723,-0.6307464838027954
1772572992726594300,4.57259423828125,-9.361551284790039,-3.3387303352355957,-0.7494956254959106
1772572992744441300,4.59044140625,-9.596796035766602,-3.4149746894836426,-0.9498634338378906
1772572992762276000,4.608276123046875,-9.026801109313965,-3.1303141117095947,-0.9694279432296753
1772572992780107300,4.626107177734375,-7.769004821777344,-3.0209641456604004,-0.5083738565444946
1772572992797945900,4.64394580078125,-6.599131107330322,-3.0576071739196777,-0.15981942415237427
1772572992815768000,4.66176806640625,-5.384760856628418,-3.097763776779175,-0.19775372743606567
1772572992833615600,4.67961572265625,-4.497396469116211,-3.5124692916870117,-0.4952145516872406
1772572992851450400,4.697450439453125,-5.004208564758301,-3.706690788269043,-0.8133924007415771
1772572992869285000,4.71528515625,-5.423346996307373,-3.846895456314087,-0.7781172394752502
1772572992887120100,4.7331201171875,-4.371500015258789,-3.89677095413208,-0.8959860801696777
1772572992904955000,4.750954833984375,-2.569962978363037,-3.1392416954040527,-0.8494998216629028
1772572992922786800,4.768786865234375,-1.351149559020996,-1.9477109909057617,-0.7407361268997192
1772572992940627000,4.786626953125,-1.3222832679748535,-0.5593764781951904,-1.2146893739700317
1772572992958459400,4.80445947265625,-1.752762794494629,0.1348896026611328,-1.1639505624771118
1772572992976294000,4.8222939453125,1.1503057479858398,0.5871577262878418,-0.6623076796531677
1772572992994129000,4.84012890625,5.308254241943359,0.34349870681762695,-0.2950569987297058
1772572993011960300,4.857960205078125,9.322689056396484,-1.0379393100738525,0.1785273551940918
1772572993029801500,4.875801513671875,11.683247566223145,-1.2932708263397217,-1.2742480039596558
1772572993047633400,4.89363330078125,9.390365600585938,0.31670069694519043,-1.8990228176116943
1772572993065468200,4.91146826171875,8.46187973022461,2.807360887527466,0.5120860934257507
1772572993083303000,4.929302978515625,11.709310531616211,2.9963130950927734,2.16776180267334
1772572993101137400,4.947137451171875,16.059730529785156,0.10281109809875488,1.306024193763733
1772572993118972400,4.964972412109375,17.871488571166992,-1.9835931062698364,0.19741931557655334
1772572993136807700,4.9828076171875,15.7286376953125,-1.3714706897735596,0.707874059677124
1772572993154642400,5.000642333984375,12.43994140625,0.6443333625793457,1.723872423171997
1772572993172477000,5.018476806640625,10.467025756835938,0.8247880935668945,1.0458924770355225
1772572993190307800,5.036307861328125,8.105731010437012,0.10530781745910645,-0.20465469360351562
1772572993208146400,5.054146484375,5.641406059265137,-0.4715743064880371,-1.0491878986358643
1772572993225979600,5.071979736328125,3.7099266052246094,-1.2746942043304443,-2.0591044425964355
1772572993243816200,5.089816162109375,0.8480243682861328,-1.0855295658111572,-2.1238226890563965
1772572993261651000,5.10765087890625,-2.4062724113464355,-0.49474072456359863,-0.6054487824440002
1772572993279482600,5.125482666015625,-4.593484878540039,0.3743009567260742,1.6041972637176514
1772572993297321000,5.143321044921875,-6.038734436035156,0.5401730537414551,1.7004393339157104
1772572993315140400,5.161140380859375,-7.59345006942749,-0.4679684638977051,0.014606952667236328
1772572993332990200,5.178990234375,-8.416141510009766,-1.5231916904449463,-1.4484559297561646
1772572993350825000,5.196824951171875,-7.786977291107178,-2.1796536445617676,-1.874279260635376
1772572993368660000,5.214659912109375,-6.3209710121154785,-2.547794818878174,-1.64321768283844
1772572993386494500,5.232494384765625,-4.98215389251709,-2.788872241973877,-1.2162160873413086
1772572993404326700,5.25032666015625,-4.490762710571289,-2.8249568939208984,-0.9817071557044983
1772572993422167000,5.2681669921875,-5.1464362144470215,-2.7860093116760254,-0.7058610320091248
1772572993439996200,5.28599609375,-5.888728618621826,-2.9040677547454834,-0.8598595857620239
1772572993457837000,5.303837158203125,-6.561197280883789,-3.1567459106445312,-1.1704354286193848
1772572993475667000,5.3216669921875,-7.106653213500977,-3.562110424041748,-1.4798715114593506
1772572993493493000,5.339492919921875,-7.516607284545898,-3.8151016235351562,-1.4405839443206787
1772572993511335700,5.357335693359375,-7.867953300476074,-3.770688056945801,-0.9846088290214539
1772572993529176000,5.375176025390625,-7.395430564880371,-3.652223587036133,-0.39279937744140625
1772572993546996000,5.392995849609375,-6.512684345245361,-3.798203468322754,-0.06728887557983398
1772572993564842800,5.4108427734375,-5.871837615966797,-3.8249969482421875,-0.3002742528915405
1772572993582677500,5.428677490234375,-5.991565227508545,-4.0611395835876465,-0.999803900718689
1772572993600512300,5.44651220703125,-5.61151123046875,-3.2322683334350586,-1.533026933670044
1772572993618328800,5.464328857421875,-4.732724666595459,-2.637415885925293,-1.4247874021530151
1772572993656245000,5.502244873046875,0.5571975708007812,-0.3112959861755371,-0.363861083984375
1772572993674080300,5.520080322265625,4.545306205749512,0.2766118049621582,-0.9987102746963501
1772572993691914800,5.537914794921875,6.513201713562012,0.5777969360351562,-0.05786943435668945
1772572993709749500,5.55574951171875,7.273131370544434,1.38848876953125,2.1422810554504395
1772572993727584300,5.573584228515625,8.548166275024414,1.3260736465454102,1.0877947807312012
1772572993745419000,5.5914189453125,9.648904800415039,0.9012579917907715,-1.0610383749008179
1772572993763253800,5.609253662109375,10.28410816192627,1.2937371730804443,-0.40348613262176514
1772572993790055400,5.636055419921875,17.5335693359375,0.8543198108673096,0.3619846701622009
1772572993807842000,5.653842041015625,19.895397186279297,-0.19160890579223633,-1.2443760633468628
1772572993825676800,5.6716767578125,18.216888427734375,0.17400336265563965,-0.805751621723175
1772572993843511600,5.689511474609375,14.80877685546875,1.1941657066345215,1.0919469594955444
1772572993861346300,5.70734619140625,12.564723014831543,0.6372356414794922,1.9753912687301636
1772572993879181000,5.72518115234375,12.918416023254395,-0.11577439308166504,2.761547565460205
1772572993897015800,5.743015869140625,11.789559364318848,-0.5790314674377441,1.992974042892456
1772572993914850800,5.760850830078125,4.858833312988281,-0.8839187622070312,-0.11645883321762085
1772572993932685800,5.778685791015625,0.6798877716064453,-0.15886259078979492,-2.490605115890503
1772572993950520300,5.796520263671875,-2.5719528198242188,0.3167002201080322,-0.3058459162712097
1772572993968355000,5.81435498046875,-3.676217555999756,0.9992020130157471,2.043672561645508
1772572993986188500,5.8321884765625,-4.558246612548828,0.2932901382446289,1.657344102859497
1772572994004026400,5.8500263671875,-6.043224334716797,-1.3457129001617432,0.28897371888160706
1772572994021859600,5.867859619140625,-6.653179168701172,-2.202537775039673,-0.789893388748169
1772572994039694300,5.8856943359375,-7.976995468139648,-3.418506145477295,-1.638802170753479
1772572994057529300,5.903529296875,-8.699522018432617,-4.2918925285339355,-2.089885711669922
1772572994075364400,5.9213642578125,-8.667847633361816,-4.380600929260254,-1.6317514181137085
1772572994093199000,5.93919921875,-8.593658447265625,-3.6104252338409424,-0.6646779179573059
1772572994111042000,5.9570419921875,-9.042402267456055,-3.4564528465270996,-0.032047152519226074
1772572994128856000,5.97485595703125,-9.56045913696289,-2.8102023601531982,-0.057466089725494385
1772572994146705700,5.99270556640625,-9.20829963684082,-3.2058639526367188,-0.3133402168750763
1772572994164537900,6.010537841796875,-7.861747741699219,-4.840502738952637,-0.7268161773681641
1772572994182372600,6.02837255859375,-5.65005350112915,-4.698121070861816,-0.3122720718383789
1772572994200208000,6.046207763671875,-5.451690673828125,-4.457406997680664,0.2886872887611389
1772572994218041900,6.064041748046875,-2.9100399017333984,-3.563995361328125,0.708233654499054
1772572994235876600,6.081876708984375,-0.827906608581543,-3.5374772548675537,1.4977092742919922
1772572994253713000,6.099712890625,1.1209850311279297,-4.461756229400635,0.9063479900360107
1772572994271547000,6.117546875,-2.5879602432250977,-5.09598445892334,-0.026069283485412598
1772572994289381400,6.13538134765625,-6.714808464050293,-4.821343898773193,-1.3562378883361816
1772572994307216600,6.153216552734375,-7.838414192199707,-3.171024799346924,-3.0937068462371826
1772572994325051400,6.171051513671875,-7.677569389343262,-1.5582363605499268,-2.995736837387085
1772572994342886100,6.18888623046875,-4.72698450088501,-0.32511043548583984,-0.7673962116241455
1772572994360720400,6.206720458984375,1.1757841110229492,0.4776601791381836,0.31776922941207886
1772572994378556000,6.224555908203125,2.53167724609375,0.9576420783996582,-0.43037596344947815
1772572994396390400,6.242390380859375,0.36747264862060547,-0.359799861907959,0.3280162215232849
1772572994414225400,6.260225341796875,-0.7015938758850098,0.5103158950805664,1.5647192001342773
1772572994432059600,6.2780595703125,0.6682729721069336,1.2130308151245117,2.242114305496216
1772572994449895000,6.29589501953125,4.433621406555176,2.016350269317627,2.6446943283081055
1772572994467729200,6.313729248046875,8.748639106750488,2.2819695472717285,3.3396658897399902
1772572994485553000,6.331552978515625,12.358768463134766,1.5137248039245605,3.803650379180908
1772572994503386400,6.349386474609375,11.15676212310791,2.150308609008789,3.094869613647461
1772572994521233400,6.3672333984375,11.518016815185547,-0.44974517822265625,-0.16285991668701172
1772572994539068700,6.385068603515625,13.152721405029297,-3.0572152137756348,-1.023612380027771
1772572994556904000,6.402904052734375,11.892589569091797,-0.43146657943725586,-0.8472947478294373
1772572994574738200,6.42073828125,12.703856468200684,1.2111151218414307,2.338078022003174
1772572994592572700,6.43857275390625,11.016916275024414,2.264528512954712,3.805555582046509
1772572994610403000,6.456403076171875,7.139739990234375,2.278684616088867,2.5239758491516113
1772572994628242700,6.47424267578125,3.0634450912475586,0.1108694076538086,0.5951029062271118
1772572994646077000,6.492076904296875,1.4053916931152344,-1.4297103881835938,-0.23422396183013916
1772572994663912000,6.509911865234375,0.9387741088867188,-2.87519907951355,-0.6785935163497925
1772572994681731300,6.5277314453125,0.2798042297363281,-2.9370944499969482,0.007188558578491211
1772572994699574800,6.54557470703125,-1.12689208984375,-2.2424354553222656,0.6325328350067139
1772572994717403600,6.563403564453125,-3.8451786041259766,-1.3976361751556396,0.25899624824523926
1772572994735251700,6.581251708984375,-5.5435004234313965,-0.9762005805969238,0.28796184062957764
1772572994753086000,6.5990859375,-5.797728538513184,-0.7806191444396973,0.4547901153564453
1772572994770921000,6.6169208984375,-5.124328136444092,-1.2802886962890625,0.2161005735397339
1772572994788755500,6.63475537109375,-3.7247390747070312,-2.0629043579101562,-0.3613675832748413
1772572994806590700,6.6525908203125,-3.3859171867370605,-2.4188075065612793,-0.6992374658584595
1772572994824425200,6.67042529296875,-3.5730409622192383,-2.0982141494750977,-0.4126996397972107
1772572994842260200,6.68826025390625,-4.689971923828125,-1.6222158670425415,0.03910481929779053
1772572994860094700,6.7060947265625,-4.911022186279297,-1.6091587543487549,0.0745055079460144
1772572994877930000,6.723929931640625,-4.741621017456055,-2.18139910697937,0.03911715745925903
1772572994895764700,6.7417646484375,-4.6776323318481445,-2.695803165435791,-0.09710419178009033
1772572994913596200,6.75959619140625,-4.3863911628723145,-3.086623191833496,-0.3781071603298187
1772572994931436500,6.7774365234375,-4.371789455413818,-3.686885118484497,-0.5997710824012756
1772572994949268500,6.7952685546875,-4.750823020935059,-3.4233548641204834,-0.23329763114452362
1772572994967103200,6.813103271484375,-5.43540096282959,-2.811089038848877,0.3794950544834137
1772572994984938800,6.830938720703125,-6.457189559936523,-2.984363079071045,0.09704875946044922
1772572995002772500,6.8487724609375,-6.493230819702148,-2.7777721881866455,-0.020882409065961838
1772572995020607500,6.866607421875,-3.8569083213806152,0.5412583351135254,1.1825740337371826
1772572995038443000,6.884443115234375,-0.19586658477783203,4.1213507652282715,1.0475168228149414
1772572995056278000,6.902278076171875,1.2446908950805664,3.4370059967041016,0.0837332010269165
1772572995074112300,6.9201123046875,5.314927101135254,2.7934679985046387,2.0659048557281494
1772572995091947500,6.937947509765625,10.541714668273926,3.659067153930664,1.7134324312210083
1772572995109781800,6.95578173828125,11.03879451751709,2.483466148376465,1.7039893865585327
1772572995127617000,6.973616943359375,9.01283073425293,0.1203608512878418,0.8228028416633606
1772572995145439000,6.99143896484375,7.323310852050781,-0.35086774826049805,-0.1766810119152069
1772572995163286500,7.00928662109375,6.610440254211426,0.8456330299377441,-1.1028215885162354
1772572995181112600,7.027112548828125,6.423372268676758,2.493905544281006,-2.5644471645355225
1772572995198956300,7.044956298828125,6.841574668884277,2.656492233276367,-1.5828723907470703
1772572995216781600,7.062781494140625,8.189970970153809,1.7643165588378906,0.21317622065544128
1772572995234625800,7.080625732421875,9.253331184387207,-0.18229007720947266,-0.6246575117111206
1772572995252460000,7.0984599609375,9.20297622680664,-0.6621265411376953,-2.3552489280700684
1772572995270300200,7.116300048828125,6.747733116149902,-0.1472487449645996,-2.2897284030914307
1772572995288129300,7.13412939453125,2.1363096237182617,0.04198265075683594,-1.6143136024475098
1772572995305962800,7.151962646484375,-1.4948148727416992,0.6709356307983398,-0.8079975247383118
1772572995323801000,7.169801025390625,-3.4931535720825195,0.4128546714782715,-0.7312248349189758
1772572995341631200,7.18763134765625,-3.8404598236083984,-0.025477886199951172,-0.643641471862793
1772572995359471400,7.205471435546875,-3.9683194160461426,-1.2962398529052734,-0.7706699967384338
1772572995377300700,7.22330078125,-5.464938163757324,-1.9852030277252197,-0.9080779552459717
1772572995395141400,7.241141357421875,-6.850998878479004,-2.0760066509246826,-0.020019352436065674
1772572995412973000,7.25897314453125,-6.055421829223633,-2.3911819458007812,0.8166658878326416
1772572995430807600,7.2768076171875,-2.9250311851501465,-2.675839900970459,0.8440723419189453
1772572995448642300,7.294642333984375,-0.6405515670776367,-2.3777875900268555,0.6935577392578125
1772572995466477000,7.31247705078125,-0.026854515075683594,-1.3094937801361084,0.7251221537590027
1772572995484297500,7.33029736328125,-0.3278017044067383,-0.4006962776184082,1.0434552431106567
1772572995502134300,7.34813427734375,-1.752279281616211,-0.3082418441772461,1.0896083116531372
1772572995519972600,7.36597265625,-3.245865821838379,-0.7246050834655762,0.9732779860496521
1772572995537816300,7.38381640625,-4.346936225891113,-1.3103976249694824,1.001172661781311
1772572995555651800,7.40165185546875,-4.628633499145508,-2.297504425048828,0.7854108214378357
1772572995573485600,7.419485595703125,-4.645796298980713,-3.094740390777588,0.6208277344703674
1772572995591320600,7.437320556640625,-5.562569618225098,-4.042138576507568,0.5407288074493408
1772572995609153800,7.45515380859375,-5.824153423309326,-4.5771284103393555,0.7505078315734863
1772572995626989800,7.47298974609375,-5.439302444458008,-5.126650810241699,0.8498205542564392
1772572995644824800,7.490824951171875,-5.617860794067383,-4.755398273468018,0.7959957718849182
1772572995662659600,7.50865966796875,-7.344897747039795,-4.721882343292236,-0.06602048873901367
1772572995680479700,7.526479736328125,-5.772236347198486,-3.7486729621887207,-1.4185683727264404
1772572995698329300,7.544329345703125,-4.808624267578125,-0.6377639770507812,-1.4567489624023438
1772572995716164000,7.5621640625,-3.713942289352417,1.3843445777893066,-0.6600391864776611
