time,seconds_elapsed,z,y,x
1772571184756377300,0.15637744140625,9.627521514892578,-0.04366901144385338,0.49292147159576416
1772571184774224600,0.174224609375,9.622735977172852,-0.048454657196998596,0.5024927258491516
1772571184792059000,0.192058837890625,9.641879081726074,-0.03888336941599846,0.5072783827781677
1772571184809894700,0.209894775390625,9.632308006286621,-0.04366901144385338,0.5072783827781677
1772571184827729200,0.227729248046875,9.627521514892578,-0.048454657196998596,0.5072783827781677
1772571184845564700,0.245564697265625,9.637093544006348,-0.048454657196998596,0.5024927258491516
1772571184863398000,0.26339794921875,9.632308006286621,-0.04366901144385338,0.4977070987224579
1772571184881235500,0.2812353515625,9.627521514892578,-0.03409772366285324,0.5024927258491516
1772571184899069200,0.299069091796875,9.632308006286621,-0.053240302950143814,0.4977070987224579
1772571184916905000,0.316905029296875,9.632308006286621,-0.053240302950143814,0.4977070987224579
1772571184934739500,0.334739501953125,9.632308006286621,-0.048454657196998596,0.5024927258491516
1772571184952574000,0.352573974609375,9.632308006286621,-0.03888336941599846,0.5024927258491516
1772571184970409700,0.37040966796875,9.627521514892578,-0.053240302950143814,0.5024927258491516
1772571184988244500,0.388244384765625,9.637093544006348,-0.04366901144385338,0.4977070987224579
1772571185006079000,0.406078857421875,9.641879081726074,-0.053240302950143814,0.4983053207397461
1772571185023914800,0.423914794921875,9.627521514892578,-0.048454657196998596,0.5072783827781677
1772571185041748700,0.441748779296875,9.637093544006348,-0.048454657196998596,0.5072783827781677
1772571185059584500,0.45958447265625,9.622735977172852,-0.05802594870328903,0.4977070987224579
1772571185077419500,0.47741943359375,9.637093544006348,-0.048454657196998596,0.5024927258491516
1772571185095255000,0.495255126953125,9.637093544006348,-0.053240302950143814,0.5024927258491516
1772571185113089500,0.513089599609375,9.632308006286621,-0.04366901144385338,0.5024927258491516
1772571185130925300,0.53092529296875,9.637093544006348,-0.048454657196998596,0.4977070987224579
1772571185148759600,0.548759521484375,9.632308006286621,-0.04366901144385338,0.5024927258491516
1772571185166595300,0.56659521484375,9.622735977172852,-0.04366901144385338,0.4977070987224579
1772571185184429600,0.5844296875,9.622735977172852,-0.048454657196998596,0.5024927258491516
1772571185202265000,0.60226513671875,9.627521514892578,-0.053240302950143814,0.5072783827781677
1772571185220099800,0.620099853515625,9.632308006286621,-0.048454657196998596,0.5024927258491516
1772571185237935400,0.637935302734375,9.632308006286621,-0.053240302950143814,0.5120640397071838
1772571185255769900,0.655769775390625,9.632308006286621,-0.048454657196998596,0.5072783827781677
1772571185273605600,0.673605712890625,9.637093544006348,-0.03888336941599846,0.5024927258491516
1772571185291440000,0.691440185546875,9.627521514892578,-0.03409772366285324,0.49292147159576416
1772571185309275400,0.709275390625,9.637093544006348,-0.048454657196998596,0.4977070987224579
1772571185327109600,0.727109619140625,9.627521514892578,-0.048454657196998596,0.5024927258491516
1772571185344945400,0.7449453125,9.637093544006348,-0.048454657196998596,0.5072783827781677
1772571185362779600,0.762779541015625,9.632308006286621,-0.04366901144385338,0.5024927258491516
1772571185380612900,0.78061279296875,9.627521514892578,-0.04366901144385338,0.49292147159576416
1772571185398452700,0.79845263671875,9.637093544006348,-0.053240302950143814,0.4977070987224579
1772571185416286000,0.816285888671875,9.637093544006348,-0.048454657196998596,0.49292147159576416
1772571185434120400,0.834120361328125,9.632308006286621,-0.03888336941599846,0.5024927258491516
1772571185451955700,0.851955810546875,9.627521514892578,-0.048454657196998596,0.5024927258491516
1772571185469789700,0.869789794921875,9.632308006286621,-0.048454657196998596,0.5024927258491516
1772571185487625700,0.887625732421875,9.632308006286621,-0.053240302950143814,0.5024927258491516
1772571185505460200,0.905460205078125,9.632308006286621,-0.048454657196998596,0.5024927258491516
1772571185523285800,0.92328564453125,9.632308006286621,-0.048454657196998596,0.49292147159576416
1772571185541130200,0.941130126953125,9.637093544006348,-0.048454657196998596,0.5024927258491516
1772571185558953200,0.958953125,9.627521514892578,-0.048454657196998596,0.5072783827781677
1772571185576800800,0.97680078125,9.632308006286621,-0.048454657196998596,0.5072783827781677
1772571185594633200,0.99463330078125,9.632308006286621,-0.04366901144385338,0.5072783827781677
1772571185612473900,1.012473876953125,9.641879081726074,-0.04366901144385338,0.5024927258491516
1772571185630306300,1.030306396484375,9.627521514892578,-0.04366901144385338,0.5024927258491516
1772571185648140800,1.048140869140625,9.637093544006348,-0.053240302950143814,0.5072783827781677
1772571185665976000,1.06597607421875,9.622735977172852,-0.048454657196998596,0.5024927258491516
1772571185683810600,1.083810546875,9.637093544006348,-0.053240302950143814,0.5030909776687622
1772571185701646600,1.101646484375,9.641879081726074,-0.04366901144385338,0.5030909776687622
1772571185719480600,1.11948046875,9.6466646194458,-0.03888336941599846,0.5030909776687622
1772571185737316600,1.137316650390625,9.641879081726074,-0.048454657196998596,0.5078766345977783
1772571185755150300,1.155150390625,9.641879081726074,-0.03888336941599846,0.5030909776687622
1772571185772987400,1.1729873046875,9.637093544006348,-0.04366901144385338,0.5030909776687622
1772571185790820600,1.190820556640625,9.637093544006348,-0.03888336941599846,0.5072783827781677
1772571185808656400,1.208656494140625,9.637093544006348,-0.03888336941599846,0.5030909776687622
1772571185826491100,1.2264912109375,9.622735977172852,-0.053240302950143814,0.5024927258491516
1772571185844326400,1.244326416015625,9.632308006286621,-0.05802594870328903,0.5168496966362
1772571185862161000,1.262160888671875,9.66102123260498,-0.053240302950143814,0.4977070987224579
1772571185879996400,1.279996337890625,9.622735977172852,-0.03888336941599846,0.5216353535652161
1772571185897831400,1.29783154296875,9.641879081726074,-0.04366901144385338,0.49351966381073
1772571185915667000,1.3156669921875,9.637093544006348,-0.048454657196998596,0.49351966381073
1772571185933501700,1.333501708984375,9.632308006286621,-0.03888336941599846,0.4983053207397461
1772571185951337200,1.351337158203125,9.641879081726074,-0.048454657196998596,0.49351966381073
1772571185969171200,1.369171142578125,9.632308006286621,-0.05802594870328903,0.49351966381073
1772571185987007000,1.387007080078125,9.632308006286621,-0.048454657196998596,0.4977070987224579
1772571186004829400,1.404829345703125,9.627521514892578,-0.04366901144385338,0.5120640397071838
1772571186022665200,1.422665283203125,9.632308006286621,-0.05802594870328903,0.49351966381073
1772571186040511500,1.440511474609375,9.632308006286621,-0.04366901144385338,0.5120640397071838
1772571186058349800,1.458349853515625,9.637093544006348,-0.053240302950143814,0.4833501875400543
1772571186076182300,1.476182373046875,9.627521514892578,-0.048454657196998596,0.4977070987224579
1772571186094017800,1.494017822265625,9.641879081726074,-0.03888336941599846,0.48813581466674805
1772571186111852000,1.51185205078125,9.632308006286621,-0.048454657196998596,0.5120640397071838
1772571186129687600,1.5296875,9.641879081726074,-0.03888336941599846,0.5024927258491516
1772571186147522300,1.547522216796875,9.622735977172852,-0.053240302950143814,0.5120640397071838
1772571186165357800,1.56535791015625,9.627521514892578,-0.053240302950143814,0.4977070987224579
1772571186183185000,1.583184814453125,9.641879081726074,-0.053240302950143814,0.5078766345977783
1772571186201029400,1.601029296875,9.627521514892578,-0.04366901144385338,0.5120640397071838
1772571186218862600,1.618862548828125,9.637093544006348,-0.04366901144385338,0.48873403668403625
1772571186236698000,1.636697998046875,9.632308006286621,-0.04366901144385338,0.5030909776687622
1772571186254532000,1.654531982421875,9.641879081726074,-0.04366901144385338,0.5078766345977783
1772571186272368400,1.672368408203125,9.641879081726074,-0.04366901144385338,0.4983053207397461
1772571186290202400,1.690202392578125,9.641879081726074,-0.04366901144385338,0.4983053207397461
1772571186308038100,1.7080380859375,9.627521514892578,-0.04366901144385338,0.5030909776687622
1772571186325872400,1.725872314453125,9.641879081726074,-0.053240302950143814,0.5030909776687622
1772571186343708400,1.74370849609375,9.632308006286621,-0.048454657196998596,0.5078766345977783
1772571186361542700,1.761542724609375,9.632308006286621,-0.04366901144385338,0.49351966381073
1772571186379378700,1.779378662109375,9.632308006286621,-0.048454657196998596,0.49351966381073
1772571186397213200,1.797213134765625,9.641879081726074,-0.048454657196998596,0.5030909776687622
1772571186415048700,1.815048583984375,9.637093544006348,-0.053240302950143814,0.49351966381073
1772571186432883500,1.832883544921875,9.637093544006348,-0.03888336941599846,0.5030909776687622
1772571186450719000,1.850718994140625,9.632308006286621,-0.048454657196998596,0.5078766345977783
1772571186468553500,1.868553466796875,9.641879081726074,-0.053240302950143814,0.5030909776687622
1772571186486384600,1.886384521484375,9.6466646194458,-0.048454657196998596,0.5030909776687622
1772571186504223200,1.90422314453125,9.622735977172852,-0.053240302950143814,0.5030909776687622
1772571186522043000,1.92204296875,9.627521514892578,-0.048454657196998596,0.5030909776687622
1772571186539893800,1.939893798828125,9.6466646194458,-0.048454657196998596,0.5030909776687622
1772571186557734000,1.95773388671875,9.637093544006348,-0.03888336941599846,0.5030909776687622
1772571186575563800,1.975563720703125,9.637093544006348,-0.048454657196998596,0.5030909776687622
1772571186593399600,1.993399658203125,9.632308006286621,-0.048454657196998596,0.4983053207397461
1772571186611234000,2.011234130859375,9.637093544006348,-0.048454657196998596,0.4983053207397461
1772571186629069600,2.029069580078125,9.641280174255371,-0.048454657196998596,0.5030909776687622
1772571186646904000,2.046904052734375,9.632308006286621,-0.04366901144385338,0.5030909776687622
1772571186664736500,2.064736572265625,9.636494636535645,-0.04366901144385338,0.49351966381073
1772571186682578700,2.08257861328125,9.632308006286621,-0.04366901144385338,0.5120640397071838
1772571186700408300,2.100408203125,9.637093544006348,-0.048454657196998596,0.4983053207397461
1772571186718243600,2.11824365234375,9.632308006286621,-0.04366901144385338,0.5030909776687622
1772571186736081000,2.136080810546875,9.637093544006348,-0.053240302950143814,0.4983053207397461
1772571186753914600,2.15391455078125,9.632308006286621,-0.048454657196998596,0.5030909776687622
1772571186771750000,2.17175,9.637093544006348,-0.048454657196998596,0.5030909776687622
1772571186789584400,2.18958447265625,9.641879081726074,-0.04366901144385338,0.4983053207397461
1772571186807420000,2.207419921875,9.632308006286621,-0.048454657196998596,0.5030909776687622
1772571186825254400,2.22525439453125,9.632308006286621,-0.03888336941599846,0.5030909776687622
1772571186843090200,2.243090087890625,9.637093544006348,-0.048454657196998596,0.4983053207397461
1772571186860924700,2.260924560546875,9.641879081726074,-0.053240302950143814,0.49351966381073
1772571186878760700,2.2787607421875,9.641879081726074,-0.048454657196998596,0.5030909776687622
1772571186896595200,2.29659521484375,9.632308006286621,-0.048454657196998596,0.4983053207397461
1772571186914431000,2.314430908203125,9.632308006286621,-0.048454657196998596,0.4983053207397461
1772571186932265200,2.33226513671875,9.6466646194458,-0.048454657196998596,0.5030909776687622
1772571186950101000,2.35010107421875,9.632308006286621,-0.04366901144385338,0.4983053207397461
1772571186967935500,2.367935546875,9.632308006286621,-0.048454657196998596,0.4983053207397461
1772571186985758200,2.38575830078125,9.632308006286621,-0.048454657196998596,0.5126622319221497
1772571187003605500,2.40360546875,9.641879081726074,-0.048454657196998596,0.4983053207397461
1772571187021441300,2.421441162109375,9.632308006286621,-0.048454657196998596,0.5030909776687622
1772571187039275500,2.439275634765625,9.637093544006348,-0.04366901144385338,0.4983053207397461
1772571187057111600,2.457111572265625,9.637093544006348,-0.03888336941599846,0.5030909776687622
1772571187074945800,2.47494580078125,9.6466646194458,-0.04366901144385338,0.4983053207397461
1772571187092781800,2.49278173828125,9.627521514892578,-0.04366901144385338,0.5030909776687622
1772571187110616000,2.510615966796875,9.636494636535645,-0.048454657196998596,0.5030909776687622
1772571187128451600,2.52845166015625,9.641280174255371,-0.048454657196998596,0.5030909776687622
1772571187146286300,2.546286376953125,9.641280174255371,-0.04366901144385338,0.4983053207397461
1772571187164121600,2.56412158203125,9.636494636535645,-0.048454657196998596,0.5030909776687622
1772571187181946000,2.581946044921875,9.637093544006348,-0.048454657196998596,0.4983053207397461
1772571187199791900,2.5997919921875,9.641879081726074,-0.03888336941599846,0.5030909776687622
1772571187217626600,2.617626708984375,9.641879081726074,-0.04366901144385338,0.5030909776687622
1772571187235462100,2.635462158203125,9.637093544006348,-0.04366901144385338,0.5030909776687622
1772571187253297000,2.653296875,9.641280174255371,-0.053240302950143814,0.5030909776687622
1772571187271132000,2.6711318359375,9.641280174255371,-0.048454657196998596,0.5030909776687622
1772571187288966400,2.68896630859375,9.641280174255371,-0.053240302950143814,0.5030909776687622
1772571187306802200,2.70680224609375,9.646066665649414,-0.048454657196998596,0.5030909776687622
1772571187324637000,2.724636962890625,9.636494636535645,-0.053240302950143814,0.4983053207397461
1772571187342472200,2.74247216796875,9.641280174255371,-0.048454657196998596,0.5030909776687622
1772571187360307000,2.760306884765625,9.636494636535645,-0.048454657196998596,0.5030909776687622
1772571187378143000,2.77814306640625,9.631709098815918,-0.04366901144385338,0.5030909776687622
1772571187395977500,2.7959775390625,9.636494636535645,-0.05802594870328903,0.5030909776687622
1772571187413813200,2.813813232421875,9.636494636535645,-0.048454657196998596,0.4983053207397461
1772571187431647500,2.8316474609375,9.641280174255371,-0.04366901144385338,0.5078766345977783
1772571187449483300,2.849483154296875,9.631709098815918,-0.048454657196998596,0.49351966381073
1772571187467318000,2.867318115234375,9.636494636535645,-0.048454657196998596,0.5030909776687622
1772571187485153500,2.885153564453125,9.636494636535645,-0.053240302950143814,0.5030909776687622
1772571187502987800,2.90298779296875,9.641280174255371,-0.048454657196998596,0.4983053207397461
1772571187520823300,2.9208232421875,9.631709098815918,-0.048454657196998596,0.5078766345977783
1772571187538655200,2.9386552734375,9.626923561096191,-0.048454657196998596,0.49351966381073
1772571187556497200,2.9564970703125,9.646066665649414,-0.048454657196998596,0.4983053207397461
1772571187574328600,2.97432861328125,9.631709098815918,-0.048454657196998596,0.49351966381073
1772571187592163800,2.992163818359375,9.626923561096191,-0.053240302950143814,0.5030909776687622
1772571187609998300,3.009998291015625,9.641280174255371,-0.04366901144385338,0.48873403668403625
1772571187627833900,3.027833740234375,9.641280174255371,-0.04366901144385338,0.49351966381073
1772571187645668400,3.04566845703125,9.631709098815918,-0.048454657196998596,0.4983053207397461
1772571187663504100,3.063504150390625,9.636494636535645,-0.048454657196998596,0.5030909776687622
1772571187681338600,3.081338623046875,9.631709098815918,-0.048454657196998596,0.4989035129547119
1772571187699174700,3.099174560546875,9.631709098815918,-0.03888336941599846,0.5030909776687622
1772571187717009400,3.117009521484375,9.631709098815918,-0.04366901144385338,0.5030909776687622
1772571187734845000,3.134844970703125,9.646066665649414,-0.04307080805301666,0.5084748268127441
1772571187752679400,3.152679443359375,9.636494636535645,-0.053240302950143814,0.5078766345977783
1772571187770514700,3.1705146484375,9.636494636535645,-0.048454657196998596,0.5126622319221497
1772571187788337400,3.18833740234375,9.631709098815918,-0.04366901144385338,0.5030909776687622
1772571187806184700,3.206184814453125,9.636494636535645,-0.03888336941599846,0.49351966381073
1772571187824008000,3.224008056640625,9.641280174255371,-0.053240302950143814,0.4983053207397461
1772571187841855000,3.24185498046875,9.631709098815918,-0.04366901144385338,0.4983053207397461
1772571187859677400,3.259677490234375,9.631709098815918,-0.04366901144385338,0.4983053207397461
1772571187877525500,3.277525390625,9.631709098815918,-0.048454657196998596,0.5126622319221497
1772571187895360300,3.2953603515625,9.636494636535645,-0.04366901144385338,0.5030909776687622
1772571187913195800,3.31319580078125,9.631709098815918,-0.04366901144385338,0.5030909776687622
1772571187931025200,3.331025146484375,9.622138023376465,-0.048454657196998596,0.5078766345977783
1772571187948868400,3.348868408203125,9.636494636535645,-0.048454657196998596,0.4983053207397461
1772571187966700800,3.36670068359375,9.626923561096191,-0.053240302950143814,0.4983053207397461
1772571187984536000,3.3845361328125,9.626923561096191,-0.04366901144385338,0.4983053207397461
1772571188002370600,3.40237060546875,9.631709098815918,-0.03888336941599846,0.5078766345977783
1772571188020206600,3.42020654296875,9.626923561096191,-0.048454657196998596,0.4983053207397461
1772571188038041000,3.438041015625,9.631709098815918,-0.053240302950143814,0.5078766345977783
1772571188055876600,3.455876708984375,9.636494636535645,-0.04366901144385338,0.4983053207397461
1772571188073710800,3.4737109375,9.631709098815918,-0.03888336941599846,0.5030909776687622
1772571188091546600,3.491546630859375,9.636494636535645,-0.04366901144385338,0.5030909776687622
1772571188109380900,3.509380859375,9.626923561096191,-0.048454657196998596,0.5030909776687622
1772571188127217000,3.527216796875,9.626923561096191,-0.053240302950143814,0.4983053207397461
1772571188145051600,3.5450517578125,9.631709098815918,-0.048454657196998596,0.4983053207397461
1772571188162887000,3.562886962890625,9.631709098815918,-0.048454657196998596,0.49351966381073
1772571188180722000,3.580721923828125,9.622138023376465,-0.04366901144385338,0.4983053207397461
1772571188198557400,3.598557373046875,9.626923561096191,-0.04366901144385338,0.5030909776687622
1772571188216392200,3.61639208984375,9.631709098815918,-0.048454657196998596,0.4983053207397461
1772571188234227500,3.6342275390625,9.626923561096191,-0.048454657196998596,0.5030909776687622
1772571188252062500,3.6520625,9.626923561096191,-0.04366901144385338,0.5078766345977783
1772571188269897500,3.6698974609375,9.626923561096191,-0.048454657196998596,0.4983053207397461
1772571188287725600,3.6877255859375,9.636494636535645,-0.04366901144385338,0.5030909776687622
1772571188305568000,3.705568115234375,9.631709098815918,-0.048454657196998596,0.5030909776687622
1772571188323402500,3.723402587890625,9.636494636535645,-0.053240302950143814,0.4983053207397461
1772571188341238500,3.741238525390625,9.626923561096191,-0.04366901144385338,0.5030909776687622
1772571188359054800,3.759054931640625,9.622138023376465,-0.048454657196998596,0.5030909776687622
1772571188376909000,3.776908935546875,9.631709098815918,-0.04366901144385338,0.5030909776687622
1772571188394743000,3.794742919921875,9.631709098815918,-0.053240302950143814,0.5030909776687622
1772571188412578800,3.812578857421875,9.626923561096191,-0.04366901144385338,0.5078766345977783
1772571188430413300,3.830413330078125,9.636494636535645,-0.048454657196998596,0.4983053207397461
1772571188448249000,3.8482490234375,9.631709098815918,-0.04366901144385338,0.4983053207397461
1772571188466083600,3.86608349609375,9.626923561096191,-0.048454657196998596,0.5078766345977783
1772571188483916000,3.883916015625,9.626923561096191,-0.04366901144385338,0.5078766345977783
1772571188501757000,3.9017568359375,9.626923561096191,-0.053240302950143814,0.5126622319221497
1772571188519586000,3.9195859375,9.641280174255371,-0.048454657196998596,0.5078766345977783
1772571188537427000,3.937427001953125,9.636494636535645,-0.048454657196998596,0.5030909776687622
1772571188555256600,3.955256591796875,9.631709098815918,-0.03888336941599846,0.5030909776687622
1772571188573097000,3.973096923828125,9.631709098815918,-0.053240302950143814,0.5030909776687622
1772571188590929700,3.9909296875,9.631709098815918,-0.03888336941599846,0.5030909776687622
1772571188608764200,4.00876416015625,9.626923561096191,-0.048454657196998596,0.5030909776687622
1772571188626599700,4.026599609375,9.626923561096191,-0.04366901144385338,0.49351966381073
1772571188644434200,4.04443408203125,9.626923561096191,-0.048454657196998596,0.4983053207397461
1772571188662270000,4.06227001953125,9.622735977172852,-0.048454657196998596,0.5078766345977783
1772571188680104400,4.0801044921875,9.622138023376465,-0.03888336941599846,0.5030909776687622
1772571188697940500,4.0979404296875,9.626923561096191,-0.04366901144385338,0.5078766345977783
1772571188715775000,4.11577490234375,9.631709098815918,-0.04366901144385338,0.4983053207397461
1772571188733610800,4.13361083984375,9.622138023376465,-0.048454657196998596,0.49351966381073
1772571188751445500,4.151445556640625,9.626923561096191,-0.04366901144385338,0.4983053207397461
1772571188769280800,4.16928076171875,9.617950439453125,-0.053240302950143814,0.5030909776687622
1772571188787102700,4.187102783203125,9.622735977172852,-0.048454657196998596,0.4983053207397461
1772571188804951000,4.204950927734375,9.617950439453125,-0.03888336941599846,0.49351966381073
1772571188822785800,4.222785888671875,9.622138023376465,-0.03888336941599846,0.4983053207397461
1772571188840621000,4.24062109375,9.622735977172852,-0.05802594870328903,0.5078766345977783
1772571188858455800,4.258455810546875,9.622735977172852,-0.05802594870328903,0.5078766345977783
1772571188876291600,4.27629150390625,9.626923561096191,-0.04366901144385338,0.5030909776687622
1772571188894126000,4.2941259765625,9.626923561096191,-0.03888336941599846,0.48873403668403625
1772571188911961900,4.3119619140625,9.626923561096191,-0.04366901144385338,0.4983053207397461
1772571188929796400,4.32979638671875,9.622138023376465,-0.048454657196998596,0.4983053207397461
1772571188947632000,4.347632080078125,9.622138023376465,-0.048454657196998596,0.4983053207397461
1772571188965466000,4.365466064453125,9.631709098815918,-0.04366901144385338,0.5030909776687622
1772571188983301600,4.383301513671875,9.631709098815918,-0.04366901144385338,0.5078766345977783
1772571189001136600,4.40113671875,9.636494636535645,-0.048454657196998596,0.5126622319221497
1772571189018957000,4.41895703125,9.626923561096191,-0.04366901144385338,0.5126622319221497
1772571189036810000,4.43681005859375,9.617352485656738,-0.04366901144385338,0.5030909776687622
1772571189054642400,4.454642333984375,9.626923561096191,-0.04366901144385338,0.5078766345977783
1772571189072476700,4.4724765625,9.612566947937012,-0.048454657196998596,0.5078766345977783
1772571189090312400,4.4903125,9.631709098815918,-0.04366901144385338,0.5174478888511658
1772571189108147200,4.508147216796875,9.622138023376465,-0.053240302950143814,0.4983053207397461
1772571189125982500,4.525982421875,9.613164901733398,-0.053240302950143814,0.5030909776687622
1772571189143817000,4.54381689453125,9.617352485656738,-0.04366901144385338,0.5030909776687622
1772571189161652700,4.56165283203125,9.622138023376465,-0.053240302950143814,0.4983053207397461
1772571189179487700,4.57948779296875,9.626923561096191,-0.04366901144385338,0.5030909776687622
1772571189197323800,4.59732373046875,9.626923561096191,-0.04366901144385338,0.5030909776687622
1772571189215157800,4.61515771484375,9.631709098815918,-0.03888336941599846,0.4983053207397461
1772571189232993500,4.63299365234375,9.626923561096191,-0.048454657196998596,0.5030909776687622
1772571189250828300,4.650828369140625,9.622735977172852,-0.053240302950143814,0.5030909776687622
1772571189268663600,4.66866357421875,9.622735977172852,-0.05802594870328903,0.5078766345977783
1772571189286498600,4.68649853515625,9.627521514892578,-0.04366901144385338,0.4983053207397461
1772571189304333800,4.704333740234375,9.622735977172852,-0.048454657196998596,0.4983053207397461
1772571189322168600,4.72216845703125,9.632308006286621,-0.048454657196998596,0.5078766345977783
1772571189340004400,4.74000439453125,9.613164901733398,-0.048454657196998596,0.5030909776687622
1772571189357838800,4.7578388671875,9.617950439453125,-0.048454657196998596,0.5078766345977783
1772571189375674600,4.775674560546875,9.631709098815918,-0.03409772366285324,0.5030909776687622
1772571189393508600,4.793508544921875,9.627521514892578,-0.03888336941599846,0.5078766345977783
1772571189411344400,4.811344482421875,9.632308006286621,-0.04366901144385338,0.5030909776687622
1772571189429178600,4.8291787109375,9.627521514892578,-0.04366901144385338,0.5030909776687622
1772571189447014400,4.847014404296875,9.622735977172852,-0.04366901144385338,0.5078766345977783
1772571189464849200,4.86484912109375,9.627521514892578,-0.048454657196998596,0.5126622319221497
1772571189482684700,4.8826845703125,9.617950439453125,-0.053240302950143814,0.5078766345977783
1772571189500519700,4.900519775390625,9.613164901733398,-0.04366901144385338,0.4983053207397461
1772571189518355200,4.918355224609375,9.617950439453125,-0.04366901144385338,0.5078766345977783
1772571189536190000,4.93618994140625,9.622138023376465,-0.04366901144385338,0.5078766345977783
1772571189554025200,4.954025146484375,9.626923561096191,-0.048454657196998596,0.5030909776687622
1772571189571859500,4.971859375,9.626923561096191,-0.048454657196998596,0.5078766345977783
1772571189589695200,4.9896953125,9.617352485656738,-0.048454657196998596,0.5030909776687622
1772571189607529700,5.00752978515625,9.617950439453125,-0.048454657196998596,0.4983053207397461
1772571189625352700,5.025352783203125,9.622138023376465,-0.048454657196998596,0.5078766345977783
1772571189643186400,5.0431865234375,9.631709098815918,-0.03888336941599846,0.5174478888511658
1772571189661035300,5.06103515625,9.622138023376465,-0.03888336941599846,0.5078766345977783
1772571189678870500,5.07887060546875,9.622735977172852,-0.04366901144385338,0.5030909776687622
1772571189696706000,5.0967060546875,9.627521514892578,-0.048454657196998596,0.5078766345977783
1772571189714540500,5.11454052734375,9.617950439453125,-0.048454657196998596,0.4983053207397461
1772571189732376300,5.132376220703125,9.632308006286621,-0.048454657196998596,0.5030909776687622
1772571189750210800,5.1502109375,9.622735977172852,-0.053240302950143814,0.5030909776687622
1772571189768046300,5.16804638671875,9.627521514892578,-0.048454657196998596,0.4983053207397461
1772571189785880800,5.185880859375,9.627521514892578,-0.053240302950143814,0.5030909776687622
1772571189803716600,5.203716552734375,9.627521514892578,-0.048454657196998596,0.5030909776687622
1772571189821551000,5.221551025390625,9.627521514892578,-0.04366901144385338,0.5030909776687622
1772571189839386400,5.239386474609375,9.617950439453125,-0.04366901144385338,0.49351966381073
1772571189857221400,5.257221435546875,9.622735977172852,-0.048454657196998596,0.5030909776687622
1772571189875056600,5.275056640625,9.627521514892578,-0.04366901144385338,0.5030909776687622
1772571189892891600,5.2928916015625,9.622735977172852,-0.03888336941599846,0.5078766345977783
1772571189910726700,5.3107265625,9.632308006286621,-0.048454657196998596,0.5030909776687622
1772571189928561400,5.3285615234375,9.632308006286621,-0.04366901144385338,0.5078766345977783
1772571189946397000,5.34639697265625,9.617950439453125,-0.048454657196998596,0.4983053207397461
1772571189964231400,5.3642314453125,9.627521514892578,-0.048454657196998596,0.5030909776687622
1772571189982058000,5.38205810546875,9.617950439453125,-0.048454657196998596,0.4983053207397461
1772571189999901700,5.399901611328125,9.622735977172852,-0.04366901144385338,0.4983053207397461
1772571190017737700,5.41773779296875,9.627521514892578,-0.053240302950143814,0.5030909776687622
1772571190035572200,5.435572265625,9.622735977172852,-0.053240302950143814,0.4983053207397461
1772571190053408000,5.453407958984375,9.632308006286621,-0.048454657196998596,0.5078766345977783
1772571190071242000,5.471241943359375,9.622735977172852,-0.048454657196998596,0.4983053207397461
1772571190089066500,5.48906640625,9.627521514892578,-0.048454657196998596,0.4983053207397461
1772571190106912800,5.506912841796875,9.627521514892578,-0.053240302950143814,0.4983053207397461
1772571190124733400,5.5247333984375,9.622735977172852,-0.053240302950143814,0.5078766345977783
1772571190142582800,5.542582763671875,9.627521514892578,-0.048454657196998596,0.5030909776687622
1772571190160405500,5.560405517578125,9.622735977172852,-0.03888336941599846,0.5030909776687622
1772571190178252800,5.578252685546875,9.627521514892578,-0.048454657196998596,0.5072783827781677
1772571190196088800,5.5960888671875,9.627521514892578,-0.053240302950143814,0.49292147159576416
1772571190213923000,5.613923095703125,9.627521514892578,-0.048454657196998596,0.5024927258491516
1772571190231758800,5.6317587890625,9.622735977172852,-0.053240302950143814,0.5072783827781677
1772571190249593000,5.649593017578125,9.627521514892578,-0.048454657196998596,0.5024927258491516
1772571190267428900,5.667428955078125,9.627521514892578,-0.048454657196998596,0.4983053207397461
1772571190285263400,5.685263427734375,9.627521514892578,-0.048454657196998596,0.4983053207397461
1772571190303086000,5.703086181640625,9.627521514892578,-0.048454657196998596,0.5024927258491516
1772571190320930000,5.720929931640625,9.617950439453125,-0.048454657196998596,0.5078766345977783
1772571190338769200,5.73876904296875,9.617950439453125,-0.04366901144385338,0.4983053207397461
1772571190356603400,5.756603271484375,9.622735977172852,-0.04366901144385338,0.5078766345977783
1772571190374442200,5.774442138671875,9.622735977172852,-0.04366901144385338,0.4983053207397461
1772571190392273700,5.792273681640625,9.641879081726074,-0.04366901144385338,0.4983053207397461
1772571190410109000,5.81010888671875,9.627521514892578,-0.04366901144385338,0.5024927258491516
1772571190427943700,5.827943603515625,9.622735977172852,-0.03888336941599846,0.49292147159576416
1772571190445779200,5.845779296875,9.617950439453125,-0.03888336941599846,0.5024927258491516
1772571190463614200,5.8636142578125,9.622735977172852,-0.048454657196998596,0.5030909776687622
1772571190481450000,5.881449951171875,9.617950439453125,-0.048454657196998596,0.5030909776687622
1772571190499284200,5.8992841796875,9.632308006286621,-0.04366901144385338,0.4983053207397461
1772571190517119700,5.91711962890625,9.627521514892578,-0.048454657196998596,0.5030909776687622
1772571190534954500,5.93495458984375,9.627521514892578,-0.03888336941599846,0.5078766345977783
1772571190552790300,5.952790283203125,9.622735977172852,-0.03888336941599846,0.5030909776687622
1772571190570624500,5.97062451171875,9.622735977172852,-0.04366901144385338,0.5030909776687622
1772571190588459800,5.988459716796875,9.627521514892578,-0.053240302950143814,0.4983053207397461
1772571190606294800,6.006294677734375,9.627521514892578,-0.04366901144385338,0.5030909776687622
1772571190624130300,6.02413037109375,9.627521514892578,-0.04366901144385338,0.4983053207397461
1772571190641964300,6.04196435546875,9.622735977172852,-0.053240302950143814,0.5030909776687622
1772571190659800600,6.059800537109375,9.622735977172852,-0.048454657196998596,0.5030909776687622
1772571190677635000,6.077635009765625,9.627521514892578,-0.04366901144385338,0.5030909776687622
1772571190695470600,6.095470703125,9.627521514892578,-0.04366901144385338,0.5078766345977783
1772571190713305300,6.113305419921875,9.627521514892578,-0.04366901144385338,0.5120640397071838
1772571190731140600,6.131140625,9.632308006286621,-0.04366901144385338,0.49351966381073
1772571190748975400,6.148975341796875,9.632308006286621,-0.03888336941599846,0.5030909776687622
1772571190766810400,6.166810302734375,9.617950439453125,-0.04366901144385338,0.5078766345977783
1772571190784641300,6.184641357421875,9.632308006286621,-0.05802594870328903,0.5030909776687622
1772571190802485000,6.202485107421875,9.617950439453125,-0.048454657196998596,0.5030909776687622
1772571190820312800,6.220312744140625,9.613164901733398,-0.04366901144385338,0.4977070987224579
1772571190838154000,6.238154052734375,9.627521514892578,-0.053240302950143814,0.5072783827781677
1772571190855987200,6.2559873046875,9.627521514892578,-0.04366901144385338,0.49292147159576416
1772571190873819600,6.273819580078125,9.632308006286621,-0.04366901144385338,0.5024927258491516
1772571190891655700,6.29165576171875,9.622735977172852,-0.04366901144385338,0.5024927258491516
1772571190909491200,6.3094912109375,9.622735977172852,-0.04366901144385338,0.5072783827781677
1772571190927325700,6.32732568359375,9.627521514892578,-0.04366901144385338,0.5024927258491516
1772571190945161200,6.3451611328125,9.627521514892578,-0.04366901144385338,0.5072783827781677
1772571190962995700,6.36299560546875,9.617950439453125,-0.048454657196998596,0.49351966381073
1772571190980831700,6.380831787109375,9.627521514892578,-0.03888336941599846,0.5078766345977783
1772571190998666200,6.398666259765625,9.627521514892578,-0.053240302950143814,0.5078766345977783
1772571191016502000,6.416501953125,9.627521514892578,-0.05802594870328903,0.5030909776687622
1772571191034336500,6.43433642578125,9.632308006286621,-0.04366901144385338,0.4977070987224579
1772571191052172000,6.452172119140625,9.622735977172852,-0.048454657196998596,0.4977070987224579
1772571191070006500,6.470006591796875,9.622735977172852,-0.048454657196998596,0.5072783827781677
1772571191087842000,6.487842041015625,9.622735977172852,-0.053240302950143814,0.4977070987224579
1772571191105676500,6.505676513671875,9.622735977172852,-0.03888336941599846,0.49351966381073
1772571191123512300,6.52351220703125,9.627521514892578,-0.03888336941599846,0.4983053207397461
1772571191141346800,6.541346923828125,9.622735977172852,-0.04366901144385338,0.5030909776687622
1772571191159182000,6.55918212890625,9.627521514892578,-0.048454657196998596,0.5078766345977783
1772571191177017000,6.57701708984375,9.622735977172852,-0.03888336941599846,0.5072783827781677
1772571191194852400,6.594852294921875,9.617950439453125,-0.04366901144385338,0.4977070987224579
1772571191212686800,6.612686767578125,9.622735977172852,-0.048454657196998596,0.49292147159576416
1772571191230522400,6.6305224609375,9.627521514892578,-0.05802594870328903,0.5024927258491516
1772571191248356900,6.64835693359375,9.617950439453125,-0.048454657196998596,0.4977070987224579
1772571191266192600,6.666192626953125,9.617950439453125,-0.05802594870328903,0.5024927258491516
1772571191284028400,6.6840283203125,9.627521514892578,-0.03888336941599846,0.5072783827781677
1772571191301861600,6.701861572265625,9.622735977172852,-0.04366901144385338,0.4977070987224579
1772571191319697200,6.719697265625,9.627521514892578,-0.03888336941599846,0.5030909776687622
1772571191337533200,6.737533203125,9.622735977172852,-0.05802594870328903,0.5030909776687622
1772571191355367400,6.755367431640625,9.627521514892578,-0.04366901144385338,0.4983053207397461
1772571191373203000,6.773202880859375,9.627521514892578,-0.04366901144385338,0.4983053207397461
1772571191391037400,6.791037353515625,9.627521514892578,-0.04366901144385338,0.5024927258491516
1772571191408873000,6.808873046875,9.622735977172852,-0.048454657196998596,0.5024927258491516
1772571191426699000,6.826698974609375,9.622735977172852,-0.03888336941599846,0.5024927258491516
1772571191444543200,6.844543212890625,9.617950439453125,-0.03888336941599846,0.4977070987224579
1772571191462374000,6.862373779296875,9.632308006286621,-0.03888336941599846,0.4977070987224579
1772571191480213200,6.880213134765625,9.627521514892578,-0.03888336941599846,0.5024927258491516
1772571191498048300,6.89804833984375,9.617950439453125,-0.048454657196998596,0.4977070987224579
1772571191515883500,6.915883544921875,9.622735977172852,-0.048454657196998596,0.4977070987224579
1772571191533718300,6.93371826171875,9.632308006286621,-0.048454657196998596,0.5072783827781677
1772571191551553800,6.9515537109375,9.627521514892578,-0.03888336941599846,0.5024927258491516
1772571191569388500,6.969388427734375,9.617950439453125,-0.048454657196998596,0.4977070987224579
1772571191587223800,6.987223876953125,9.627521514892578,-0.04366901144385338,0.4977070987224579
1772571191605058800,7.005058837890625,9.627521514892578,-0.04366901144385338,0.5024927258491516
1772571191622886700,7.02288671875,9.622735977172852,-0.048454657196998596,0.4983053207397461
1772571191640728000,7.04072802734375,9.627521514892578,-0.048454657196998596,0.5024927258491516
1772571191658561000,7.05856103515625,9.622735977172852,-0.053240302950143814,0.5024927258491516
1772571191676401400,7.0764013671875,9.627521514892578,-0.053240302950143814,0.4977070987224579
1772571191694233900,7.09423388671875,9.641879081726074,-0.048454657196998596,0.5072783827781677
1772571191712068400,7.112068359375,9.622735977172852,-0.048454657196998596,0.5024927258491516
1772571191729903900,7.12990380859375,9.622735977172852,-0.04366901144385338,0.5024927258491516
1772571191747738400,7.14773828125,9.617950439453125,-0.04366901144385338,0.4977070987224579
1772571191765574100,7.16557421875,9.613164901733398,-0.04366901144385338,0.5072783827781677
1772571191783409200,7.1834091796875,9.632308006286621,-0.053240302950143814,0.5072783827781677
1772571191801244400,7.201244384765625,9.622735977172852,-0.048454657196998596,0.5120640397071838
1772571191819079200,7.2190791015625,9.627521514892578,-0.05802594870328903,0.5024927258491516
1772571191836914400,7.23691455078125,9.617950439453125,-0.048454657196998596,0.5072783827781677
1772571191854749400,7.25474951171875,9.627521514892578,-0.04366901144385338,0.5024927258491516
1772571191872584400,7.27258447265625,9.632308006286621,-0.04366901144385338,0.5024927258491516
1772571191890419000,7.2904189453125,9.627521514892578,-0.03888336941599846,0.5024927258491516
1772571191908254700,7.308254638671875,9.632308006286621,-0.048454657196998596,0.5024927258491516
1772571191926090800,7.3260908203125,9.627521514892578,-0.053240302950143814,0.4977070987224579
1772571191943925000,7.343925048828125,9.627521514892578,-0.03409772366285324,0.5072783827781677
1772571191961759200,7.36175927734375,9.622735977172852,-0.048454657196998596,0.5072783827781677
1772571191979595300,7.37959521484375,9.617950439453125,-0.048454657196998596,0.5024927258491516
1772571191997426700,7.3974267578125,9.622735977172852,-0.04366901144385338,0.4977070987224579
1772571192015268000,7.41526806640625,9.622735977172852,-0.053240302950143814,0.5072783827781677
1772571192033099800,7.433099853515625,9.613164901733398,-0.053240302950143814,0.5072783827781677
1772571192050935300,7.450935302734375,9.617950439453125,-0.04366901144385338,0.4977070987224579
1772571192068769800,7.468769775390625,9.617950439453125,-0.048454657196998596,0.5072783827781677
1772571192086602500,7.4866025390625,9.637093544006348,-0.03888336941599846,0.4977070987224579
1772571192104443000,7.50444287109375,9.632308006286621,-0.03888336941599846,0.4977070987224579
1772571192122270500,7.5222705078125,9.622735977172852,-0.048454657196998596,0.5024927258491516
1772571192140115700,7.54011572265625,9.622735977172852,-0.04366901144385338,0.4977070987224579
1772571192157943800,7.55794384765625,9.627521514892578,-0.03888336941599846,0.5024927258491516
1772571192175780400,7.5757802734375,9.627521514892578,-0.053240302950143814,0.5072783827781677
1772571192193615000,7.593614990234375,9.622735977172852,-0.04366901144385338,0.5072783827781677
1772571192211449900,7.611449951171875,9.627521514892578,-0.04366901144385338,0.5024927258491516
1772571192229285400,7.629285400390625,9.622735977172852,-0.053240302950143814,0.4977070987224579
1772571192247120000,7.647119873046875,9.622735977172852,-0.04366901144385338,0.5024927258491516
1772571192264955400,7.664955322265625,9.656235694885254,-0.05802594870328903,0.5072783827781677
1772571192282790100,7.6827900390625,9.651450157165527,-0.04366901144385338,0.5024927258491516
1772571192300626200,7.700626220703125,9.613164901733398,-0.05802594870328903,0.4977070987224579
1772571192318460700,7.718460693359375,9.627521514892578,-0.048454657196998596,0.5024927258491516
1772571192336296000,7.7362958984375,9.627521514892578,-0.03888336941599846,0.5072783827781677
1772571192354130400,7.75413037109375,9.613164901733398,-0.03888336941599846,0.5024927258491516
1772571192371966200,7.77196630859375,9.641879081726074,-0.03888336941599846,0.5024927258491516
1772571192389790700,7.789790771484375,9.622735977172852,-0.048454657196998596,0.5024927258491516
