time,seconds_elapsed,z,y,x
1772572740356071000,0.18107080078125,-0.2698183059692383,-0.05606889724731445,0.04908263683319092
1772572740373907500,0.198907470703125,-0.06755542755126953,-0.054286956787109375,0.12802627682685852
1772572740391742000,0.216741943359375,-0.02333545684814453,-0.030454158782958984,0.11823689937591553
1772572740409577000,0.234576904296875,-0.2548351287841797,-0.01513218879699707,0.04955470561981201
1772572740427412500,0.25241259765625,-0.37093448638916016,0.022698402404785156,-0.026080727577209473
1772572740445248500,0.27024853515625,-0.2779979705810547,0.06267833709716797,-0.01467779278755188
1772572740463083300,0.288083251953125,-0.038649559020996094,0.07930421829223633,0.03032904863357544
1772572740480918500,0.30591845703125,0.08684349060058594,0.08433175086975098,0.01847892999649048
1772572740498754000,0.323754150390625,0.10293292999267578,0.08176255226135254,-0.02578994631767273
1772572740516590600,0.341590576171875,-0.04039764404296875,0.1500387191772461,-0.0369517058134079
1772572740534424800,0.3594248046875,-0.026241302490234375,0.21417236328125,-0.001964569091796875
1772572740552260400,0.37726025390625,0.2445526123046875,0.10500192642211914,0.006253242492675781
1772572740570095400,0.395095458984375,0.3121213912963867,0.012392282485961914,-0.04853495955467224
1772572740587932200,0.41293212890625,0.12148761749267578,0.016254186630249023,-0.08222782611846924
1772572740605766400,0.430766357421875,-0.20350933074951172,0.13518953323364258,-0.05621480941772461
1772572740623602700,0.448602783203125,-0.14268207550048828,0.18092060089111328,0.004390716552734375
1772572740641437200,0.466437255859375,0.026090621948242188,0.09309577941894531,0.009551316499710083
1772572740659274000,0.48427392578125,-0.10350322723388672,0.009958267211914062,-0.0821588933467865
1772572740677108500,0.5021083984375,-0.26929473876953125,0.07390975952148438,-0.07466945052146912
1772572740694944000,0.519944091796875,-0.09706974029541016,0.1167917251586914,0.02215614914894104
1772572740712779000,0.537779052734375,0.013436317443847656,0.07649612426757812,0.05623149871826172
1772572740730603000,0.55560302734375,-0.1057729721069336,-0.011458635330200195,-0.00868341326713562
1772572740748450000,0.573449951171875,-0.2165985107421875,0.010409355163574219,-0.06534799933433533
1772572740766267400,0.591267333984375,-0.03201770782470703,-0.020247459411621094,0.0033458173274993896
1772572740784120800,0.609120849609375,0.15985393524169922,-0.06834053993225098,0.03548705577850342
1772572740801938700,0.626938720703125,0.09679222106933594,-0.04919171333312988,0.023949041962623596
1772572740819791400,0.644791259765625,-0.08094215393066406,0.04085731506347656,0.013483792543411255
1772572740837627600,0.662627685546875,-0.15292739868164062,0.11948609352111816,0.02516433596611023
1772572740855462700,0.680462646484375,-0.0909576416015625,0.05116701126098633,0.0030701905488967896
1772572740873299000,0.698298828125,-0.1479196548461914,-0.008682012557983398,-0.09163330495357513
1772572740891133200,0.71613330078125,0.05867290496826172,-0.010094165802001953,-0.037417635321617126
1772572740908968400,0.733968505859375,0.11084556579589844,0.08036065101623535,0.05962759256362915
1772572740926804500,0.751804443359375,-0.08243465423583984,0.11293387413024902,0.05308426916599274
1772572740944628500,0.76962841796875,-0.26940250396728516,0.12338995933532715,-0.01315683126449585
1772572740962475300,0.787475341796875,-0.13633060455322266,0.14883852005004883,0.05282370746135712
1772572740980310500,0.805310546875,0.20849323272705078,0.15654873847961426,0.17415910959243774
1772572740998140700,0.823140625,0.2704629898071289,0.08641481399536133,0.11129602789878845
1772572741015983900,0.84098388671875,0.09954261779785156,0.02429509162902832,0.012098193168640137
1772572741033816600,0.858816650390625,-0.15709877014160156,0.03762340545654297,-0.03256186842918396
1772572741051652400,0.87665234375,-0.20796489715576172,0.09199190139770508,0.02111077308654785
1772572741069487600,0.894487548828125,-0.06014251708984375,-0.04740190505981445,-0.012047484517097473
1772572741087324000,0.912323974609375,0.03460407257080078,-0.07321810722351074,0.03974132239818573
1772572741105158700,0.93015869140625,-0.07935237884521484,-0.0777738094329834,0.01828460395336151
1772572741122994000,0.947993896484375,-0.2558135986328125,-0.08186960220336914,-0.05952224135398865
1772572741140829400,0.965829345703125,-0.3624715805053711,-0.02275681495666504,-0.04001346230506897
1772572741158665700,0.983665771484375,-0.3056497573852539,0.03719305992126465,-0.01349574327468872
1772572741176500500,1.00150048828125,-0.0718545913696289,0.007743120193481445,-0.03352959454059601
1772572741194335700,1.019335693359375,0.032439231872558594,-0.03413534164428711,-0.04593318700790405
1772572741212176100,1.037176025390625,-0.02064990997314453,-0.02457737922668457,-0.05346396565437317
1772572741229996000,1.05499609375,-0.24378013610839844,0.018085002899169922,-0.09790053963661194
1772572741247842300,1.07284228515625,-0.38141441345214844,0.05696296691894531,-0.13837721943855286
1772572741265663000,1.0906630859375,-0.15524578094482422,0.06508016586303711,-0.10730579495429993
1772572741283512800,1.108512939453125,0.2055368423461914,0.09105849266052246,0.036190494894981384
1772572741301337300,1.12633740234375,0.28542423248291016,0.11479330062866211,0.03106224536895752
1772572741319183600,1.14418359375,0.2126331329345703,0.002727985382080078,-0.11968879401683807
1772572741337019400,1.162019287109375,0.21155929565429688,-0.13156914710998535,-0.22256097197532654
1772572741354854700,1.179854736328125,0.1332244873046875,-0.14118576049804688,-0.21250572800636292
1772572741372691500,1.19769140625,-0.0064983367919921875,-0.046207427978515625,-0.12379936873912811
1772572741390525400,1.215525390625,-0.17232799530029297,0.05250072479248047,-0.07515418529510498
1772572741408361000,1.23336083984375,-0.2376718521118164,0.10056471824645996,-0.01457415521144867
1772572741426196700,1.25119677734375,-0.18208980560302734,0.0837867259979248,0.016975805163383484
1772572741444032500,1.269032470703125,-0.2201528549194336,0.0998084545135498,0.02299763262271881
1772572741461866000,1.286865966796875,-0.3348207473754883,0.06750917434692383,-0.006274387240409851
1772572741479694600,1.304694580078125,-0.37693119049072266,0.13399076461791992,0.03158694505691528
1772572741497526500,1.322526611328125,-0.1952676773071289,0.12291073799133301,0.10740754008293152
1772572741515362300,1.3403623046875,-0.11588478088378906,0.016994714736938477,0.014001160860061646
1772572741533210000,1.358210205078125,0.09250926971435547,-0.02409505844116211,0.05675627291202545
1772572741551044400,1.37604443359375,0.06520271301269531,0.037711143493652344,0.11611384153366089
1772572741568879600,1.393879638671875,0.024125099182128906,0.031598567962646484,0.11605970561504364
1772572741586716700,1.411716552734375,-0.05808448791503906,0.034780263900756836,0.10886351764202118
1772572741604550700,1.429550537109375,-0.16695213317871094,0.06347036361694336,0.0760931670665741
1772572741622386400,1.447386474609375,-0.23675823211669922,0.1278243064880371,0.09263625741004944
1772572741640221400,1.465221435546875,-0.13335895538330078,0.10357356071472168,0.10929681360721588
1772572741658058800,1.483058837890625,-0.037125587463378906,0.09875679016113281,0.12963998317718506
1772572741675891000,1.500890869140625,0.03483009338378906,0.02800154685974121,0.07689625024795532
1772572741693729000,1.51872900390625,-0.01696300506591797,0.03256058692932129,0.015267789363861084
1772572741711564300,1.536564208984375,0.04492759704589844,0.053466081619262695,0.04270559549331665
1772572741729393200,1.55439306640625,-0.016699790954589844,0.09296584129333496,0.06083159148693085
1772572741747234300,1.572234375,-0.006743431091308594,0.09215712547302246,0.03486134111881256
1772572741765070000,1.590070068359375,0.1021127700805664,0.008447408676147461,-0.013671532273292542
1772572741782905600,1.607905517578125,0.11824321746826172,-0.0254213809967041,-0.008028700947761536
1772572741800741600,1.62574169921875,0.0023345947265625,-0.021063804626464844,-0.014376938343048096
1772572741818576100,1.643576171875,-0.12700176239013672,-0.044270992279052734,-0.021104320883750916
1772572741836411600,1.66141162109375,-0.2864980697631836,0.012310981750488281,-0.052740611135959625
1772572741854247400,1.679247314453125,0.03914451599121094,-0.06290102005004883,0.004016950726509094
1772572741872083200,1.697083251953125,0.09243488311767578,-0.02194952964782715,0.062066227197647095
1772572741889917700,1.714917724609375,0.041619300842285156,0.0015680789947509766,0.06468681991100311
1772572741907753500,1.73275341796875,-0.058663368225097656,0.014796018600463867,0.04165378212928772
1772572741925587500,1.75058740234375,-0.12438297271728516,0.00028777122497558594,-0.015070602297782898
1772572741943426800,1.7684267578125,-0.1302967071533203,0.033106327056884766,0.016612231731414795
1772572741961260300,1.78626025390625,-0.2648038864135742,0.11912012100219727,0.007782354950904846
1772572741979094500,1.804094482421875,-0.17795467376708984,0.14707183837890625,0.06705591082572937
1772572741996930800,1.821930908203125,-0.08960914611816406,0.13742661476135254,0.06512798368930817
1772572742014767000,1.83976708984375,-0.12272071838378906,0.05624055862426758,-0.04243156313896179
1772572742032601300,1.857601318359375,-0.14273548126220703,0.028086423873901367,-0.09213820099830627
1772572742050436900,1.875436767578125,-0.09108829498291016,0.005781412124633789,-0.09043990820646286
1772572742068276700,1.89327685546875,0.1230173110961914,0.01621246337890625,-0.021381810307502747
1772572742086109000,1.91110888671875,0.30069637298583984,-0.03237485885620117,0.03857184946537018
1772572742103930600,1.9289306640625,0.09919548034667969,-0.07871890068054199,-0.035681724548339844
1772572742121778700,1.94677880859375,-0.1170806884765625,-0.09525847434997559,-0.0854407474398613
1772572742139614000,1.964614013671875,-0.19960689544677734,-0.02384042739868164,-0.0469525009393692
1772572742157451300,1.982451171875,0.11992740631103516,-0.04722785949707031,0.07476550340652466
1772572742175285500,2.000285400390625,-0.09772396087646484,-0.04604625701904297,-0.014838680624961853
1772572742193121000,2.01812109375,-0.2538919448852539,-0.013615131378173828,-0.039023712277412415
1772572742210956000,2.0359560546875,-0.24587535858154297,0.05052900314331055,0.029952824115753174
1772572742228792600,2.05379248046875,-0.26943111419677734,0.16767191886901855,0.1065458208322525
1772572742246627300,2.07162744140625,-0.13541603088378906,0.1344773769378662,0.0800866186618805
1772572742264459300,2.089459228515625,0.03149986267089844,0.05529189109802246,0.07417501509189606
1772572742282297900,2.1072978515625,0.055703163146972656,0.008105278015136719,0.0590401217341423
1772572742300132600,2.125132568359375,-0.14954662322998047,0.008411407470703125,-0.029082540422677994
1772572742317971200,2.14297119140625,-0.1017141342163086,-0.04360485076904297,-0.08618518710136414
1772572742335804200,2.16080419921875,0.10122299194335938,-0.05496692657470703,-0.07431003451347351
1772572742353639200,2.17863916015625,0.28307247161865234,-0.06841349601745605,-0.045568324625492096
1772572742371476700,2.196476806640625,0.21288776397705078,-0.011199474334716797,-0.01955386996269226
1772572742389310500,2.214310546875,0.2725839614868164,0.014126300811767578,0.06275923550128937
1772572742407146200,2.232146240234375,0.08389472961425781,0.05487561225891113,0.048790447413921356
1772572742424981800,2.249981689453125,-0.15787696838378906,0.0696113109588623,-0.039828673005104065
1772572742442818300,2.267818359375,-0.1583995819091797,0.04639101028442383,-0.03360588103532791
1772572742460652300,2.28565234375,-0.08317375183105469,0.02911210060119629,0.006798751652240753
1772572742478487800,2.30348779296875,0.06000995635986328,0.042746543884277344,0.09028841555118561
1772572742496323800,2.32132373046875,-0.1629495620727539,0.14826655387878418,0.09193487465381622
1772572742514159900,2.339159912109375,-0.18666362762451172,0.09694099426269531,0.0630967766046524
1772572742531983400,2.3569833984375,-0.2546119689941406,0.03083968162536621,0.009321242570877075
1772572742549830000,2.374829833984375,-0.02701568603515625,-0.08865690231323242,-0.01957743614912033
1772572742567660300,2.392660400390625,-0.00478363037109375,-0.05153846740722656,0.03894706070423126
1772572742585502000,2.410501953125,0.056845664978027344,-0.05133414268493652,0.03595247119665146
1772572742603332600,2.42833251953125,-0.023769378662109375,-0.062258005142211914,0.025777190923690796
1772572742621171700,2.446171630859375,-0.10512161254882812,-0.015472173690795898,0.0028435811400413513
1772572742639007500,2.464007568359375,0.2856178283691406,-0.15915191173553467,0.023274488747119904
1772572742656844000,2.481843994140625,-0.03068256378173828,-0.0394740104675293,-0.015153840184211731
1772572742674678300,2.49967822265625,-0.2944450378417969,0.06540679931640625,-0.015422746539115906
1772572742692513800,2.517513671875,-0.3329505920410156,0.10334920883178711,-0.014658145606517792
1772572742710349000,2.53534912109375,-0.1583843231201172,0.051496028900146484,0.007026515901088715
1772572742728182300,2.553182373046875,-0.09443378448486328,0.07254171371459961,0.04720607399940491
1772572742746019600,2.57101953125,0.015128135681152344,0.0713813304901123,0.0772939920425415
1772572742763855600,2.588855712890625,0.12703323364257812,0.03178811073303223,0.08190662413835526
1772572742781691100,2.606691162109375,0.05730724334716797,0.01769113540649414,0.014764279127120972
1772572742799526700,2.624526611328125,0.00868988037109375,0.021433353424072266,0.012126080691814423
1772572742817363500,2.642363525390625,-0.039666175842285156,0.016934633255004883,-0.018584556877613068
1772572742835197400,2.660197509765625,0.0006341934204101562,0.03511953353881836,0.05595214664936066
1772572742853033000,2.678032958984375,-0.028108596801757812,0.07906579971313477,0.0991571843624115
1772572742870869800,2.695869873046875,-0.008242607116699219,0.051073551177978516,0.10614266991615295
1772572742888703700,2.713703857421875,-0.2337207794189453,0.04231142997741699,0.024379678070545197
1772572742906527000,2.73152685546875,-0.17279911041259766,-0.016468524932861328,0.008879527449607849
1772572742924374800,2.749374755859375,-0.24879169464111328,-0.0035140514373779297,-0.02424338459968567
1772572742942212400,2.76721240234375,-0.1094961166381836,-0.058132171630859375,-0.03628247603774071
1772572742960045600,2.785045654296875,-0.11618328094482422,-0.01626420021057129,-0.02741570770740509
1772572742977881600,2.802881591796875,-0.05330848693847656,0.02271556854248047,0.02932431548833847
1772572742995717000,2.820717041015625,-0.048071861267089844,0.0396878719329834,0.03974970430135727
1772572743013553700,2.8385537109375,0.02186870574951172,-0.03401947021484375,0.0017936602234840393
1772572743031377200,2.856377197265625,0.0844736099243164,-0.04727005958557129,-0.007767952978610992
1772572743049223400,2.874223388671875,0.008901596069335938,0.04032635688781738,0.054371900856494904
1772572743067059200,2.89205908203125,-0.20228958129882812,0.11861991882324219,0.036571115255355835
1772572743084895700,2.909895751953125,-0.24543094635009766,0.10814094543457031,-0.002400122582912445
1772572743102730200,2.927730224609375,0.12962722778320312,0.021556377410888672,0.10069242864847183
1772572743120565200,2.945565185546875,0.269775390625,0.06963157653808594,0.1702384650707245
1772572743138400800,2.96340087890625,0.08373546600341797,0.08279824256896973,0.11459238827228546
1772572743156237600,2.981237548828125,-0.25049781799316406,0.07528877258300781,0.0012750402092933655
1772572743174072000,2.999072021484375,-0.19967937469482422,0.03450512886047363,-0.025455236434936523
1772572743191907600,3.016907470703125,0.10461139678955078,-0.0024890899658203125,0.072062648832798
1772572743209742600,3.03474267578125,0.04351043701171875,0.03777480125427246,0.10728020966053009
1772572743227577900,3.052577880859375,-0.1949625015258789,0.08692073822021484,0.0734349861741066
1772572743245415700,3.070415771484375,-0.43291378021240234,0.11340975761413574,0.008863285183906555
1772572743263249200,3.088249267578125,-0.23517131805419922,0.03585100173950195,-0.01831916719675064
1772572743281085200,3.106085205078125,0.10533809661865234,-0.05011606216430664,0.01235584169626236
1772572743298921000,3.1239208984375,0.0879983901977539,-0.0650167465209961,-0.022761084139347076
1772572743316756200,3.141756103515625,-0.020631790161132812,-0.07422065734863281,-0.08110877126455307
1772572743334591500,3.159591552734375,-0.07287883758544922,-0.024990081787109375,-0.058842409402132034
1772572743352426800,3.1774267578125,-0.030458450317382812,-0.026402711868286133,-0.014416076242923737
1772572743370263300,3.19526318359375,-0.1803731918334961,-0.020012378692626953,-0.059703342616558075
1772572743388094000,3.213093994140625,-0.35216617584228516,-0.0007221698760986328,-0.10353757441043854
1772572743405933300,3.230933349609375,-0.2598257064819336,-0.023015975952148438,-0.10195206105709076
1772572743423767600,3.248767578125,-0.025945663452148438,-0.09255671501159668,-0.10359793156385422
1772572743441607000,3.26660693359375,0.046092987060546875,-0.11456537246704102,-0.10938592255115509
1772572743459439600,3.284439697265625,0.02636432647705078,-0.059895992279052734,-0.08494450151920319
1772572743477275000,3.30227490234375,0.08337116241455078,0.027170419692993164,0.02764493227005005
1772572743495098400,3.320098388671875,0.1905050277709961,0.10024905204772949,0.09593440592288971
1772572743512938000,3.33793798828125,0.22989845275878906,0.10958409309387207,0.1169382631778717
1772572743530770200,3.355770263671875,0.14688968658447266,0.12316322326660156,0.11723621189594269
1772572743548607200,3.373607177734375,0.02474212646484375,0.13911867141723633,0.0959349274635315
1772572743566454800,3.391454833984375,-0.008777618408203125,0.16538476943969727,0.0953371524810791
1772572743584277200,3.40927734375,0.012479782104492188,0.11531352996826172,0.10892674326896667
1772572743602123500,3.42712353515625,-0.1147603988647461,0.13282084465026855,0.0715915709733963
1772572743619957500,3.44495751953125,-0.16045856475830078,0.06398487091064453,0.035440512001514435
1772572743637797400,3.46279736328125,-0.2745370864868164,0.03537750244140625,-0.026915721595287323
1772572743655631600,3.480631591796875,-0.26776599884033203,0.005431413650512695,-0.030238665640354156
1772572743673465900,3.4984658203125,-0.2057199478149414,0.006288766860961914,-0.004358157515525818
1772572743691301600,3.516301513671875,-0.0934915542602539,0.06611752510070801,0.08409658074378967
1772572743709136600,3.53413671875,0.14994144439697266,0.01603221893310547,0.10310259461402893
1772572743726973700,3.5519736328125,0.16170215606689453,-0.050116777420043945,0.022689610719680786
1772572743744808200,3.56980810546875,0.08210086822509766,-0.07455801963806152,-0.03799135982990265
1772572743762643700,3.587643798828125,-0.06857013702392578,-0.035323143005371094,-0.06242987513542175
1772572743780479000,3.60547900390625,-0.04947185516357422,-0.0072438716888427734,-0.012290015816688538
1772572743798315800,3.623315673828125,0.014185905456542969,0.004445314407348633,0.016444385051727295
1772572743816150000,3.64114990234375,-0.09266090393066406,0.09641909599304199,0.06339624524116516
1772572743833985500,3.658985595703125,-0.13177871704101562,0.13249659538269043,0.05948774516582489
1772572743851820800,3.67682080078125,-0.10853099822998047,0.09328365325927734,0.022154346108436584
1772572743869657900,3.694657958984375,-0.0751791000366211,0.033425092697143555,-0.021529093384742737
1772572743887492000,3.7124921875,0.06482219696044922,0.016192913055419922,0.006498098373413086
1772572743905327900,3.730327880859375,0.12755680084228516,0.015590190887451172,0.05618169903755188
1772572743923163100,3.7481630859375,0.1107645034790039,0.004787921905517578,0.03670626878738403
1772572743940999700,3.765999755859375,-0.002063751220703125,-0.016073226928710938,0.011890217661857605
1772572743958834200,3.783834228515625,-0.16868305206298828,0.0008497238159179688,-0.02078142762184143
1772572743976670000,3.801669921875,-0.15178203582763672,-0.009136676788330078,-0.026602841913700104
1772572743994505700,3.819505615234375,-0.12224769592285156,-0.050336360931396484,-0.025901302695274353
1772572744012342000,3.837342041015625,-0.129058837890625,-0.08441567420959473,-0.051090627908706665
1772572744030176300,3.85517626953125,-0.16758441925048828,-0.08030200004577637,-0.0666523203253746
1772572744048012000,3.873011962890625,-0.15444183349609375,-0.010587930679321289,0.01081189513206482
1772572744065847600,3.89084765625,0.029283523559570312,-0.015184164047241211,0.090762659907341
1772572744083683300,3.908683349609375,0.05814647674560547,-0.06674528121948242,0.0632852166891098
1772572744101519000,3.92651904296875,-0.12313365936279297,0.0020203590393066406,0.04595343768596649
1772572744119354000,3.94435400390625,-0.08309364318847656,0.12173318862915039,0.1279892474412918
1772572744137189400,3.962189453125,0.05310630798339844,0.14638400077819824,0.17508411407470703
1772572744155026000,3.98002587890625,0.09374523162841797,0.06602597236633301,0.13690850138664246
1772572744172860400,3.9978603515625,-0.12810134887695312,0.06168770790100098,0.06641896069049835
1772572744190696000,4.015696044921875,-0.2584505081176758,0.1373755931854248,0.07254879176616669
1772572744208531200,4.03353125,-0.1439962387084961,0.20110416412353516,0.1653258353471756
1772572744226368500,4.051368408203125,0.03606986999511719,0.13132286071777344,0.17176873981952667
1772572744244202800,4.06920263671875,-0.03912925720214844,0.04786109924316406,0.07815378904342651
1772572744262038500,4.08703857421875,-0.07066822052001953,-0.001664876937866211,-0.00679430365562439
1772572744279872300,4.104872314453125,0.05060291290283203,-0.030717134475708008,0.015851229429244995
1772572744297712400,4.12271240234375,0.05997467041015625,-0.048217058181762695,0.03578518331050873
1772572744315544800,4.140544921875,-0.03802204132080078,-0.056414127349853516,0.03654501587152481
1772572744333362000,4.15836181640625,-0.10137939453125,-0.11220860481262207,0.01673395186662674
1772572744351215900,4.1762158203125,-0.16636085510253906,-0.1398451328277588,-0.02083171159029007
1772572744369043700,4.194043701171875,-0.11855506896972656,-0.14242267608642578,0.00042654573917388916
1772572744386887200,4.21188720703125,-0.08150291442871094,-0.12849688529968262,0.034632645547389984
1772572744404720400,4.229720458984375,-0.3027935028076172,-0.043022871017456055,0.018785260617733
1772572744422558200,4.24755810546875,-0.2765369415283203,0.010551691055297852,0.04863128811120987
1772572744440394200,4.265394287109375,-0.0951852798461914,0.01834869384765625,0.07442773878574371
1772572744458216700,4.283216796875,-0.0478973388671875,0.013936996459960938,0.040550246834754944
1772572744476064800,4.301064697265625,-0.0782632827758789,0.08489251136779785,0.04080720245838165
1772572744493900300,4.318900390625,-0.010922431945800781,0.14425134658813477,0.09152647107839584
1772572744511736800,4.33673681640625,0.10136032104492188,0.1180412769317627,0.07317958027124405
1772572744529571000,4.354571044921875,0.053534507751464844,0.09666275978088379,0.04098721593618393
1772572744547406600,4.372406494140625,-0.020351409912109375,0.17447638511657715,0.08424682915210724
1772572744565242400,4.390242431640625,0.02480602264404297,0.20169806480407715,0.12505051493644714
1772572744583079000,4.408078857421875,0.22430801391601562,0.09126806259155273,0.12206592410802841
1772572744600911600,4.42591162109375,0.07387065887451172,-0.005855560302734375,0.011188209056854248
1772572744618750200,4.443750244140625,-0.1712961196899414,0.0043752193450927734,-0.04947049170732498
1772572744636584000,4.461583984375,-0.15128803253173828,0.04191923141479492,0.019694626331329346
1772572744654420700,4.479420654296875,0.02651500701904297,0.025309324264526367,0.10255725681781769
1772572744696778200,4.5217783203125,-0.12585067749023438,-0.06909942626953125,0.005819693207740784
1772572744714614800,4.53961474609375,-0.11312103271484375,-0.03212475776672363,0.07418182492256165
1772572744732449000,4.557448974609375,-0.10350894927978516,-0.014068126678466797,0.0988532081246376
1772572744750286600,4.57528662109375,-0.1506824493408203,-0.05665993690490723,0.038755036890506744
1772572744768120600,4.59312060546875,-0.20778751373291016,-0.057778358459472656,-0.0018886104226112366
1772572744785955800,4.610955810546875,-0.1793060302734375,0.01253962516784668,0.05095694214105606
1772572744803790600,4.62879052734375,-0.11869525909423828,0.08774757385253906,0.10856769233942032
1772572744821629400,4.64662939453125,-0.10984039306640625,0.08594441413879395,0.1005614772439003
1772572744839462400,4.66446240234375,-0.2243509292602539,0.09963464736938477,0.05591493844985962
1772572744857298700,4.682298583984375,-0.16620254516601562,0.12769770622253418,0.06482566893100739
1772572744875133200,4.70013330078125,-0.05161571502685547,0.11464357376098633,0.04713353514671326
1772572744892969700,4.7179697265625,0.037802696228027344,0.07661771774291992,0.016213223338127136
1772572744910804200,4.73580419921875,0.06437873840332031,0.06836128234863281,0.030821651220321655
1772572744928641000,4.75364111328125,-0.018372535705566406,0.10148096084594727,-0.0001281052827835083
1772572744946475500,4.7714755859375,0.057562828063964844,0.030376672744750977,-0.006545737385749817
1772572744964312000,4.78931201171875,0.050705909729003906,-0.03748774528503418,-0.0440560057759285
1772572744982146300,4.807146240234375,-0.013255119323730469,-0.002634286880493164,0.005633257329463959
1772572744999983000,4.824983154296875,-0.15143966674804688,0.09652972221374512,0.0719800516963005
1772572745017817600,4.842817626953125,-0.18155956268310547,0.11141800880432129,0.06829874217510223
1772572745035641900,4.860641845703125,-0.059668540954589844,-0.015921592712402344,-0.0033568143844604492
1772572745053488400,4.87848828125,0.04524993896484375,-0.10852837562561035,-0.042770594358444214
1772572745071316000,4.89631591796875,-0.0075435638427734375,-0.06612086296081543,-0.0008506178855895996
1772572745089160000,4.914159912109375,-0.1648387908935547,0.08448505401611328,0.05979417264461517
1772572745106984700,4.931984619140625,-0.1541919708251953,0.1439657211303711,0.0907362550497055
1772572745124830700,4.949830810546875,-0.04998493194580078,0.04990649223327637,0.06905490905046463
1772572745142667000,4.9676669921875,-0.01766681671142578,-0.026491880416870117,0.029348671436309814
1772572745160501500,4.98550146484375,-0.04805564880371094,0.011974334716796875,0.029424838721752167
1772572745178338600,5.003338623046875,-0.014377593994140625,0.04941534996032715,0.05324660986661911
1772572745196172800,5.0211728515625,-0.06449127197265625,0.03910255432128906,0.05533713102340698
1772572745214009600,5.039009521484375,-0.15073776245117188,0.03471660614013672,0.020652301609516144
1772572745231840500,5.056840576171875,0.0068187713623046875,-0.006853342056274414,0.03264624625444412
1772572745249684000,5.07468408203125,0.07075977325439453,-0.03498268127441406,0.01604767143726349
1772572745267511800,5.09251171875,-0.04036712646484375,-0.018218994140625,-0.02176593244075775
1772572745285354500,5.1103544921875,-0.14201927185058594,0.01614522933959961,-0.00959257036447525
1772572745303185200,5.12818505859375,-0.14065933227539062,0.06950020790100098,0.02607155591249466
1772572745321022700,5.146022705078125,0.025106430053710938,0.04563307762145996,0.058010950684547424
1772572745338856700,5.163856689453125,0.004504203796386719,0.059427738189697266,0.05221303552389145
1772572745356693500,5.181693603515625,-0.06381034851074219,0.05830812454223633,0.0350017249584198
1772572745374528000,5.199528076171875,-0.1385517120361328,0.05279898643493652,0.018514446914196014
1772572745392364500,5.217364501953125,-0.1315021514892578,0.018202543258666992,-0.003378741443157196
1772572745410198800,5.23519873046875,-0.10353660583496094,0.011185884475708008,0.028137944638729095
1772572745428035600,5.25303564453125,-0.03530406951904297,0.02161383628845215,0.07172250747680664
1772572745445869000,5.270869140625,-0.0343780517578125,0.004695415496826172,0.06904009729623795
1772572745463707400,5.288707275390625,-0.015107154846191406,-0.015964508056640625,0.0698901116847992
1772572745481527800,5.30652783203125,-0.006680488586425781,-0.01943230628967285,0.09285150468349457
1772572745499368400,5.324368408203125,-0.02258586883544922,-0.028675317764282227,0.07821152359247208
1772572745517215500,5.342215576171875,-0.015921592712402344,-0.05020499229431152,0.03378500044345856
1772572745535048700,5.360048583984375,-0.04571247100830078,-0.0877528190612793,-0.007730938494205475
1772572745552883200,5.37788330078125,-0.16595077514648438,-0.07211828231811523,-0.014245890080928802
1772572745570719700,5.3957197265625,-0.29392242431640625,0.02772808074951172,0.056893616914749146
1772572745588554200,5.41355419921875,-0.37317466735839844,0.06261277198791504,0.05660431832075119
1772572745606390500,5.431390625,-0.2421426773071289,-0.014877796173095703,-0.00433918833732605
1772572745624225800,5.449225830078125,-0.06587886810302734,-0.027635574340820312,0.01036611944437027
1772572745642061600,5.4670615234375,0.15568161010742188,-0.03542923927307129,0.04784225672483444
1772572745659896600,5.484896484375,0.17595195770263672,-0.023459196090698242,0.06301198899745941
1772572745677732900,5.50273291015625,0.0509033203125,0.031125307083129883,0.04570915549993515
1772572745695567400,5.5205673828125,-0.024774551391601562,0.0404353141784668,0.03064076602458954
1772572745713404000,5.53840380859375,-0.07133674621582031,0.05391693115234375,0.046070076525211334
1772572745731238100,5.556238037109375,-0.02595996856689453,0.01734638214111328,0.035625673830509186
1772572745749074700,5.57407470703125,0.0013265609741210938,0.027904987335205078,0.06626970320940018
1772572745766909400,5.591909423828125,0.0132293701171875,0.0355982780456543,0.09307101368904114
1772572745784746200,5.609746337890625,-0.058155059814453125,-0.005196094512939453,0.05062255263328552
1772572745802569000,5.62756884765625,-0.1847667694091797,-0.014390945434570312,0.004209943115711212
1772572745820412200,5.645412109375,-0.1485605239868164,-0.014482975006103516,0.01043267548084259
1772572745838248200,5.663248291015625,-0.10275459289550781,0.04097867012023926,0.06719522178173065
1772572745856090600,5.681090576171875,-0.048264503479003906,0.07293128967285156,0.10495501011610031
1772572745873922000,5.698922119140625,0.044051170349121094,-0.0027170181274414062,0.0779135450720787
1772572745891758800,5.7167587890625,-0.04442787170410156,-0.018483638763427734,0.0015770196914672852
1772572745909580800,5.734580810546875,-0.06021404266357422,-0.0014145374298095703,-0.0050621554255485535
1772572745927430100,5.75243017578125,-0.056487083435058594,0.04126572608947754,0.04299674928188324
1772572745945264600,5.7702646484375,-0.029107093811035156,-0.030544519424438477,-0.008102662861347198
1772572745963101000,5.788100830078125,-0.06670951843261719,-0.08246421813964844,-0.03974951058626175
1772572745980935200,5.80593505859375,-0.1418161392211914,-0.021990537643432617,-0.0016967877745628357
1772572745998772200,5.823772216796875,-0.209564208984375,-0.059912919998168945,-0.025501593947410583
1772572746016606700,5.841606689453125,-0.2308969497680664,-0.1451878547668457,-0.09635578840970993
1772572746034443300,5.859443359375,-0.03969860076904297,-0.09105443954467773,0.005338519811630249
1772572746052277200,5.87727734375,0.032975196838378906,-0.03384089469909668,0.07477734982967377
1772572746070114000,5.895114013671875,-0.05560302734375,0.005963802337646484,0.05016809701919556
1772572746087948800,5.91294873046875,-0.013482093811035156,-0.010783672332763672,0.05069191753864288
1772572746105785000,5.93078515625,0.06666088104248047,-0.056670188903808594,0.037573449313640594
1772572746123619300,5.948619384765625,0.05327606201171875,-0.03903937339782715,0.047645486891269684
1772572746141456000,5.966455810546875,-0.03845500946044922,0.008642196655273438,0.06791020929813385
1772572746159290000,5.9842900390625,-0.1500082015991211,0.044997215270996094,0.07799264043569565
1772572746177127000,6.002126953125,-0.20204448699951172,0.08829522132873535,0.1191134825348854
1772572746194961200,6.019961181640625,-0.2904520034790039,0.13463282585144043,0.1211138367652893
1772572746212798200,6.037798095703125,-0.22070884704589844,0.13442373275756836,0.10920552909374237
1772572746230632200,6.055632080078125,-0.03513908386230469,0.09844136238098145,0.10660591721534729
1772572746248469200,6.07346923828125,0.11980724334716797,0.05794119834899902,0.10873690992593765
1772572746266303500,6.091303466796875,0.06145000457763672,0.05262923240661621,0.081728495657444
1772572746284139800,6.109139892578125,-0.11247062683105469,0.03977012634277344,0.0004887282848358154
1772572746301974500,6.126974609375,-0.13220500946044922,-0.052548885345458984,-0.09304940700531006
1772572746319810800,6.144810791015625,-0.0896148681640625,-0.10914492607116699,-0.12092237174510956
1772572746337640200,6.16264013671875,-0.04880809783935547,-0.0642554759979248,-0.06977719813585281
1772572746355481900,6.18048193359375,0.15823078155517578,0.02649688720703125,0.10304193198680878
1772572746373316400,6.19831640625,0.1479358673095703,0.034708499908447266,0.12336267530918121
1772572746391141400,6.216141357421875,0.008226394653320312,-0.036086082458496094,0.01612377166748047
1772572746408977700,6.233977783203125,0.03386497497558594,-0.15222883224487305,-0.07484973967075348
1772572746426815700,6.251815673828125,0.11475181579589844,-0.15055608749389648,-0.026559770107269287
1772572746444658400,6.269658447265625,0.007983207702636719,-0.00853586196899414,0.08287615329027176
1772572746462495000,6.287494873046875,-0.2235546112060547,0.0970160961151123,0.09962709248065948
1772572746480325600,6.30532568359375,-0.31530189514160156,0.142134428024292,0.1157655343413353
1772572746498166000,6.323166015625,-0.2243366241455078,0.09009885787963867,0.10626546293497086
1772572746515997400,6.34099755859375,-0.14579296112060547,0.04627275466918945,0.07261902838945389
1772572746533840100,6.358840087890625,-0.16163253784179688,0.06449031829833984,0.05243054777383804
1772572746551671600,6.376671630859375,-0.10820198059082031,0.0678551197052002,0.06376717984676361
1772572746569507300,6.39450732421875,-0.03609752655029297,0.011270999908447266,0.04584750533103943
1772572746587343000,6.412343017578125,-0.048638343811035156,-0.007313966751098633,0.0022717267274856567
1772572746605177900,6.430177734375,0.09918403625488281,-0.0696258544921875,-0.015914201736450195
1772572746623014400,6.448014404296875,0.1381683349609375,-0.09038066864013672,-0.013501614332199097
1772572746640849700,6.465849609375,0.08601951599121094,-0.013030767440795898,0.027289733290672302
1772572746658684200,6.48368408203125,0.09260940551757812,0.017093658447265625,0.06528089940547943
1772572746676520700,6.501520751953125,0.12090873718261719,-0.05179333686828613,0.051689065992832184
1772572746694355500,6.51935546875,-0.08329296112060547,-0.06541657447814941,-0.017230510711669922
1772572746712191700,6.537191650390625,-0.28438854217529297,-0.009996175765991211,-0.02157612144947052
1772572746730026500,6.555026611328125,-0.20734024047851562,0.05472755432128906,0.07969323545694351
1772572746747848700,6.5728486328125,0.005385398864746094,0.017273902893066406,0.16073527932167053
1772572746765685500,6.590685546875,-0.028182029724121094,-0.04368185997009277,0.12437894940376282
1772572746783537000,6.608536865234375,-0.28226375579833984,0.017314910888671875,0.08578576892614365
1772572746801368000,6.6263681640625,-0.31751346588134766,0.032257795333862305,0.05962483584880829
1772572746819209700,6.644209716796875,-0.13790225982666016,-0.06480526924133301,0.01023886352777481
1772572746837038800,6.662038818359375,0.0075855255126953125,-0.11002969741821289,-0.013909488916397095
1772572746854878000,6.6798779296875,0.028395652770996094,-0.04300189018249512,0.024480178952217102
1772572746872697900,6.69769775390625,0.03703880310058594,0.018788814544677734,0.09197038412094116
1772572746890546700,6.715546630859375,-0.03639411926269531,0.024067401885986328,0.044159285724163055
1772572746908364300,6.7333642578125,-0.0745229721069336,-0.014442682266235352,-0.026497691869735718
1772572746926217500,6.751217529296875,-0.022322654724121094,-0.011646270751953125,-0.029616959393024445
1772572746944052200,6.76905224609375,0.059650421142578125,0.007382392883300781,0.011473588645458221
1772572746961888300,6.78688818359375,-0.0027790069580078125,0.002874612808227539,0.02282964438199997
1772572746979723300,6.80472314453125,-0.09285545349121094,0.031065940856933594,0.024578526616096497
1772572746997559800,6.822559814453125,-0.08053398132324219,0.03830695152282715,0.0757281705737114
1772572747015392500,6.840392578125,-0.15171146392822266,0.028240203857421875,0.0703100711107254
1772572747033229800,6.858229736328125,-0.211639404296875,0.0006289482116699219,0.021039769053459167
1772572747051067100,6.876067138671875,-0.13304901123046875,-0.02328944206237793,0.005783736705780029
1772572747068898600,6.893898681640625,-0.03949451446533203,0.0010242462158203125,0.07069697976112366
1772572747086738700,6.91173876953125,0.03182697296142578,0.02511000633239746,0.12457062304019928
1772572747104572700,6.92957275390625,-0.01331329345703125,-0.03140854835510254,0.047505348920822144
1772572747122406400,6.947406494140625,-0.12592124938964844,0.005681037902832031,-0.010058119893074036
1772572747140243200,6.9652431640625,0.10317039489746094,-0.06247234344482422,0.0181821808218956
1772572747158078200,6.983078125,0.08677864074707031,-0.07481527328491211,0.019183948636054993
1772572747175912400,7.000912353515625,-0.1457672119140625,-0.01631951332092285,-0.028003625571727753
1772572747193749500,7.01874951171875,-0.1768932342529297,0.07470488548278809,0.03745955228805542
1772572747211585300,7.036585205078125,-0.0013523101806640625,0.04826784133911133,0.09687835723161697
1772572747229419500,7.05441943359375,-0.03195667266845703,0.03492403030395508,0.08866915106773376
1772572747247256300,7.07225634765625,-0.14090347290039062,0.026115894317626953,0.05236835777759552
1772572747265090800,7.0900908203125,-0.1625509262084961,0.04892444610595703,0.05471938103437424
1772572747282927000,7.107927001953125,-0.041024208068847656,0.060976505279541016,0.10649533569812775
1772572747300761600,7.12576171875,-0.01578235626220703,0.03612661361694336,0.10149440169334412
1772572747318598100,7.14359814453125,-0.046349525451660156,-0.0399169921875,0.057944633066654205
1772572747336432400,7.161432373046875,-0.12582015991210938,-0.033466339111328125,0.0460079088807106
1772572747354269200,7.179269287109375,-0.0955514907836914,0.004336357116699219,0.0928746908903122
1772572747372103200,7.197103271484375,-0.1657733917236328,0.08722686767578125,0.1510908603668213
1772572747389940000,7.21493994140625,-0.2509326934814453,0.08779191970825195,0.12500596046447754
1772572747407774700,7.232774658203125,-0.1995697021484375,0.020270824432373047,0.06507337093353271
1772572747425611000,7.250611083984375,-0.1300516128540039,-0.07394671440124512,0.0012822225689888
1772572747443445000,7.268445068359375,-0.08937931060791016,-0.08091497421264648,-0.014464855194091797
1772572747461281800,7.28628173828125,-0.009432792663574219,-0.037607669830322266,0.043336302042007446
1772572747479113200,7.30411328125,0.015474319458007812,-0.008028984069824219,0.0674298107624054
1772572747496940800,7.32194091796875,0.012642860412597656,0.015634775161743164,0.06400531530380249
1772572747514790100,7.3397900390625,0.020368576049804688,0.00451350212097168,0.03541851043701172
1772572747532623400,7.357623291015625,0.02803325653076172,-0.025810956954956055,0.015841364860534668
1772572747550445600,7.375445556640625,0.04412269592285156,-0.01832413673400879,0.027684852480888367
1772572747568291800,7.393291748046875,0.05090141296386719,0.004952192306518555,0.04308469593524933
1772572747586131700,7.411131591796875,0.0012655258178710938,0.05792379379272461,0.08354482054710388
1772572747603965400,7.42896533203125,-0.04463958740234375,0.05209493637084961,0.10407502949237823
1772572747621799700,7.446799560546875,-0.11055183410644531,0.05218195915222168,0.10651688277721405
1772572747639636200,7.46463623046875,-0.02262115478515625,0.02330756187438965,0.13057351112365723
1772572747657470500,7.482470458984375,0.061516761779785156,0.020118236541748047,0.14647449553012848
1772572747675307300,7.500307373046875,0.08846855163574219,0.05698132514953613,0.18803605437278748
1772572747693141800,7.518141845703125,-0.0010852813720703125,0.08120179176330566,0.18803700804710388
1772572747710966800,7.535966796875,-0.18764114379882812,0.09679245948791504,0.13714878261089325
1772572747728812500,7.5538125,-0.2680845260620117,0.08555889129638672,0.0769997388124466
1772572747746632700,7.5716328125,-0.21563053131103516,0.04439568519592285,0.05223080515861511
1772572747764483300,7.5894833984375,-0.15914440155029297,0.05178666114807129,0.06020280718803406
1772572747782315300,7.607315185546875,-0.06928348541259766,0.011848688125610352,0.03925621509552002
1772572747800159000,7.625158935546875,-0.12127971649169922,-0.02260112762451172,-0.03891396522521973
1772572747817991000,7.642990966796875,-0.058320045471191406,-0.06856083869934082,-0.07868057489395142
1772572747835825400,7.660825439453125,0.042891502380371094,-0.07305741310119629,-0.040754660964012146
1772572747853661400,7.678661376953125,0.05234241485595703,-0.0722203254699707,-0.03747311979532242
1772572747871496200,7.69649609375,-0.039226531982421875,-0.05111551284790039,-0.022355958819389343
1772572747889332700,7.714332763671875,-0.12705230712890625,-0.047528982162475586,-0.041966959834098816
1772572747907167200,7.732167236328125,-0.027618408203125,-0.06264042854309082,0.02564011514186859
1772572747925003500,7.75000341796875,-0.06799125671386719,0.007432222366333008,0.09564249217510223
1772572747942838000,7.767838134765625,-0.24631977081298828,0.04205942153930664,0.07562504708766937
1772572747960674300,7.78567431640625,-0.28363895416259766,-0.0074443817138671875,0.04635302722454071
1772572747978508500,7.803508544921875,-0.19224071502685547,-0.01882314682006836,0.07209484279155731
1772572747996345000,7.821344970703125,-0.13262176513671875,0.030067920684814453,0.1033330112695694
1772572748014179800,7.839179931640625,-0.1205434799194336,0.04967308044433594,0.1730271726846695
1772572748032016100,7.85701611328125,-0.1716012954711914,-0.000029802322387695312,0.04881961643695831
1772572748049851000,7.874850830078125,0.09550285339355469,-0.06339597702026367,0.07817402482032776
1772572748067687200,7.892687255859375,0.07463550567626953,0.005583524703979492,0.14145733416080475
1772572748085521400,7.910521484375,0.20765399932861328,-0.003816366195678711,0.15930689871311188
1772572748103358000,7.92835791015625,0.02369403839111328,0.009400606155395508,0.10320110619068146
1772572748121192000,7.94619189453125,0.0806131362915039,-0.06341981887817383,0.08024054765701294
1772572748139030300,7.9640302734375,0.001949310302734375,-0.06108546257019043,0.0345335453748703
1772572748156863000,7.981863037109375,-0.09666728973388672,-0.022084951400756836,0.03745143115520477
1772572748174687200,7.999687255859375,-0.21917152404785156,-0.0056781768798828125,0.04066367447376251
1772572748192534000,8.017533935546876,-0.2697315216064453,-0.01702594757080078,-0.0008702278137207031
1772572748210358000,8.03535791015625,-0.23787212371826172,-0.006451129913330078,0.0076369792222976685
1772572748228205000,8.053205078125,-0.12700462341308594,0.005277395248413086,0.038930535316467285
1772572748246041300,8.071041259765625,0.0064945220947265625,-0.04896974563598633,0.045281171798706055
1772572748263876000,8.0888759765625,-0.12515830993652344,-0.00337982177734375,0.005369231104850769
1772572748281712000,8.106712158203125,-0.14862346649169922,0.014841556549072266,-0.017033621668815613
1772572748299547000,8.124546875,-0.09558677673339844,-0.02028346061706543,-0.02849040925502777
1772572748317383200,8.142383056640625,0.03133964538574219,-0.015255212783813477,0.007714584469795227
1772572748335217400,8.160217529296874,0.048293113708496094,0.008938074111938477,0.02667279541492462
1772572748353054000,8.178053955078125,-0.046029090881347656,0.04554128646850586,0.05162684619426727
1772572748370885400,8.195885498046875,-0.12025833129882812,0.09542012214660645,0.08627645671367645
1772572748388728000,8.21372802734375,-0.08843326568603516,0.07640981674194336,0.09238813817501068
1772572748406560300,8.231560302734374,0.007241249084472656,0.02147817611694336,0.08295409381389618
1772572748424394500,8.24939453125,0.07962799072265625,-0.021712779998779297,0.07210028171539307
1772572748442230000,8.26722998046875,-0.024352073669433594,0.001684427261352539,0.09084212779998779
1772572748460066800,8.28506689453125,-0.1772470474243164,0.026300907135009766,0.08898285031318665
1772572748477900800,8.30290087890625,-0.22797393798828125,0.02573251724243164,0.05272206664085388
1772572748495737300,8.3207373046875,-0.08794021606445312,0.008501768112182617,0.09372919797897339
1772572748513571800,8.33857177734375,0.017091751098632812,-0.02376580238342285,0.09662587940692902
1772572748531408100,8.356408203125,-0.07297897338867188,-0.011573314666748047,0.05932283401489258
1772572748549243000,8.374242919921874,-0.18549251556396484,0.04140758514404297,0.03846798837184906
1772572748567079400,8.392079345703126,-0.1825418472290039,0.021593809127807617,0.010556638240814209
1772572748584913700,8.40991357421875,0.10818195343017578,-0.014782190322875977,0.04715348780155182
1772572748602750000,8.42775,0.2445659637451172,-0.08146882057189941,0.06824648380279541
1772572748620584200,8.445584228515624,-0.03392219543457031,-0.017455101013183594,0.03343699872493744
1772572748638421000,8.4634208984375,-0.0782022476196289,0.052367448806762695,0.07248081266880035
1772572748656255200,8.481255126953124,-0.14508628845214844,-0.00976419448852539,-0.00399431586265564
1772572748674089500,8.49908935546875,0.11632251739501953,-0.09902691841125488,-0.008035913109779358
1772572748691926000,8.516926025390624,0.1358041763305664,-0.06740570068359375,0.06537377834320068
1772572748709762600,8.534762451171876,-0.02370452880859375,0.049166202545166016,0.09927782416343689
1772572748727597300,8.552597412109375,-0.20430278778076172,0.0070002079010009766,0.032857298851013184
1772572748745433600,8.57043359375,-0.12845706939697266,-0.057952880859375,-0.00489363819360733
1772572748763267600,8.588267578125,-0.25948619842529297,0.019521713256835938,0.016110017895698547
