time,seconds_elapsed,z,y,x
1772572756525106400,0.0991064453125,-0.1036943718791008,0.44837507605552673,-0.2681698501110077
1772572756542943000,0.11694287109375,-0.11942415684461594,0.47082439064979553,-0.2765692472457886
1772572756560792600,0.13479248046875,-0.1560760736465454,0.4853324294090271,-0.24724771082401276
1772572756578622200,0.152622314453125,-0.16019940376281738,0.49296826124191284,-0.21853704750537872
1772572756596463900,0.1704638671875,-0.11942415684461594,0.45952337980270386,-0.18341228365898132
1772572756614296000,0.188296142578125,-0.08735372871160507,0.3582724630832672,-0.14355333149433136
1772572756632130600,0.206130615234375,-0.03833179548382759,0.24526239931583405,-0.10262536257505417
1772572756649966000,0.223966064453125,0.032681290060281754,0.21899518370628357,-0.054825156927108765
1772572756667801600,0.241801513671875,0.07177666574716568,0.13515393435955048,-0.06841690838336945
1772572756685636600,0.25963671875,0.10384709388017654,0.11056660860776901,-0.038179077208042145
1772572756703471900,0.277471923828125,0.048258353024721146,0.058337632566690445,-0.04688390716910362
1772572756721307400,0.295307373046875,0.032681290060281754,0.03695734590291977,-0.07987063378095627
1772572756739143200,0.31314306640625,0.057879481464624405,-0.0013744467869400978,-0.16630806028842926
1772572756756978400,0.330978515625,0.08032877743244171,0.027183502912521362,-0.27718010544776917
1772572756774813700,0.348813720703125,0.11514809727668762,0.10277807712554932,-0.37461310625076294
1772572756792649000,0.36664892578125,0.1495092660188675,0.09987647086381912,-0.44135013222694397
1772572756810484000,0.38448388671875,0.17470745742321014,0.0555887371301651,-0.4066835343837738
1772572756828319200,0.4023193359375,0.17867808043956757,0.03894266113638878,-0.2996293902397156
1772572756846150100,0.420150146484375,0.1722639948129654,-0.007788531947880983,-0.1849394589662552
1772572756863990300,0.437990234375,0.1797471046447754,-0.09254608303308487,-0.11774427443742752
1772572756882100200,0.456100341796875,0.17012597620487213,-0.1281289905309677,-0.06215553730726242
1772572756895113500,0.469113525390625,0.15531249344348907,-0.07559457421302795,-0.028099801391363144
1772572756913035500,0.487035400390625,0.13225232064723969,0.038179077208042145,-0.027183502912521362
1772572756930871300,0.504871337890625,0.09926560521125793,0.11423180252313614,-0.06001751124858856
1772572756948706000,0.5227060546875,0.06001751124858856,0.08429940044879913,-0.052839845418930054
1772572756966541800,0.540541748046875,0.027030786499381065,0.026572637259960175,0.00855211354792118
1772572756984376800,0.558376953125,0.02382374368607998,-0.020311269909143448,0.04581489413976669
1772572757002212600,0.576212646484375,0.03481931984424591,0.0039706239476799965,0.02168571576476097
1772572757020035000,0.59403515625,0.03695734590291977,0.07131851464509964,0.017867809161543846
1772572757037883600,0.611883544921875,0.027183502912521362,0.11774427443742752,0.06841690838336945
1772572757055718100,0.62971826171875,0.03145955875515938,0.06948592513799667,0.11331550031900406
1772572757073553700,0.6475537109375,0.03344487398862839,-0.0377209298312664,0.09697485715150833
1772572757091388700,0.665388671875,0.022907447069883347,-0.06276640295982361,0.05910121276974678
1772572757109224700,0.683224609375,0.013897184282541275,0.008246680721640587,0.06398813426494598
1772572757127059500,0.7010595703125,0.01618792861700058,0.044745877385139465,0.09392052888870239
1772572757144894200,0.718894287109375,0.01878410577774048,0.00366519158706069,0.11438451707363129
1772572757162730800,0.736730712890625,0.03344487398862839,-0.04459316283464432,0.11285735666751862
1772572757180565800,0.754565673828125,0.025961773470044136,-0.08567385375499725,0.10262536257505417
1772572757198400500,0.772400390625,0.0013744467869400978,-0.13500121235847473,0.06918048858642578
1772572757216236500,0.790236572265625,0.003054326167330146,-0.0913243517279625,-0.00015271631127689034
1772572757234071000,0.808071044921875,0.028099801391363144,0.020616702735424042,-0.07024950534105301
1772572757251906800,0.82590673828125,0.0455094613134861,0.04688390716910362,-0.0685696229338646
1772572757269741300,0.8437412109375,0.06688974797725677,-0.06383541971445084,0.0003054326225537807
1772572757287577600,0.86157763671875,0.0708603709936142,-0.24694228172302246,0.08124507963657379
1772572757305412000,0.879412109375,0.03390302136540413,-0.39706242084503174,0.11209376901388168
1772572757323248000,0.897248046875,-0.0039706239476799965,-0.42500948905944824,0.0682641938328743
1772572757341080300,0.915080322265625,-0.009621127508580685,-0.29077184200286865,0.012064588256180286
1772572757358921500,0.93292138671875,0.001679879380390048,-0.11285735666751862,-0.02122756652534008
1772572757376753700,0.950753662109375,0.014966198243200779,0.07880161702632904,-0.05696318298578262
1772572757394589700,0.968589599609375,0.04092797264456749,0.21823160350322723,-0.09376781433820724
1772572757412424000,0.986423828125,0.04902193695306778,0.20525072515010834,-0.07238753139972687
1772572757430259700,1.004259765625,0.026572637259960175,0.11056660860776901,0.010995574295520782
1772572757448094500,1.022094482421875,0.007024950347840786,0.036651913076639175,0.0910189226269722
1772572757465930500,1.039930419921875,0.011759156361222267,-0.018020525574684143,0.10552696883678436
1772572757483750700,1.057750732421875,0.032070424407720566,-0.02779436856508255,0.07223481684923172
1772572757501593300,1.07559326171875,0.03955352306365967,-0.04153883829712868,0.025656340643763542
1772572757519437300,1.093437255859375,0.028099801391363144,-0.07483099400997162,0.012522737495601177
1772572757537271600,1.111271484375,0.009926560334861279,-0.1696678251028061,0.02733621932566166
1772572757555106600,1.1291064453125,-0.015882495790719986,-0.2099849283695221,0.04153883829712868
1772572757572942300,1.1469423828125,-0.0656680166721344,-0.2217440903186798,0.058795779943466187
1772572757590776800,1.16477685546875,-0.0907134860754013,-0.11499538272619247,0.08445212244987488
1772572757608612600,1.182612548828125,-0.06627888232469559,0.03176499158143997,0.0734565481543541
1772572757626447600,1.200447509765625,-0.02015855349600315,0.07269296050071716,0.012980886735022068
1772572757644283100,1.218283203125,0.001527163083665073,0.06230825558304787,-0.023365596309304237
1772572757662118100,1.2361181640625,-0.00733038317412138,0.02474004216492176,-0.02428189292550087
1772572757679954000,1.253953857421875,-0.027641652151942253,-0.010231993161141872,-0.02977968007326126
1772572757697785900,1.271785888671875,-0.02580905705690384,0.0007635815418325365,-0.04902193695306778
1772572757715627800,1.289627685546875,-0.01863138936460018,0.05268712714314461,-0.03894266113638878
1772572757733459200,1.307459228515625,-0.01191187184303999,0.10781771689653397,-0.018478672951459885
1772572757751295200,1.325295166015625,0.007177666760981083,0.14049901068210602,-0.01038470957428217
1772572757769129700,1.343129638671875,0.03222314268350601,0.09773843735456467,-0.004581489134579897
1772572757786965800,1.3609658203125,0.02977968007326126,0.0025961773935705423,0.025503624230623245
1772572757804800500,1.378800537109375,-0.00809396430850029,-0.10766500234603882,0.05314527451992035
1772572757822636300,1.39663623046875,-0.02886338345706463,-0.18860463798046112,0.013439035043120384
1772572757840470800,1.414470703125,-0.005497787147760391,-0.16630806028842926,-0.04046982154250145
1772572757858307000,1.43230712890625,0.020311269909143448,-0.048716504126787186,-0.06887505948543549
1772572757876142000,1.45014208984375,0.05390885844826698,0.08628471940755844,-0.03191770985722542
1772572757893977900,1.467977783203125,0.038026362657547,0.11820242553949356,0.014966198243200779
1772572757911812000,1.48581201171875,0.01114829070866108,0.0884227454662323,0.03985895588994026
1772572757929647900,1.50364794921875,-0.0065668015740811825,0.02367102913558483,0.05497787147760391
1772572757947472100,1.52147216796875,-0.018020525574684143,0.0027488935738801956,0.07299839705228806
1772572757965318400,1.539318359375,-0.02229658141732216,-0.0064140851609408855,0.07819075137376785
1772572757983153400,1.5571533203125,-0.009621127508580685,0.003817907767370343,0.06414084881544113
1772572758000989200,1.5749892578125,-0.0013744467869400978,-0.023518312722444534,0.0630718395113945
1772572758018824400,1.592824462890625,-0.029168816283345222,-0.040622539818286896,0.14034628868103027
1772572758036660200,1.61066015625,-0.04214970022439957,-0.01863138936460018,0.20601430535316467
1772572758054494700,1.62849462890625,-0.021838432177901268,-0.027641652151942253,0.17730364203453064
1772572758072330200,1.646330322265625,0.005650503560900688,-0.012828170321881771,0.10415252298116684
1772572758090165000,1.6641650390625,0.02977968007326126,-0.0065668015740811825,0.007788531947880983
1772572758108001000,1.6820009765625,0.042760565876960754,0.03848451003432274,-0.0757472887635231
1772572758125834800,1.699834716796875,0.036651913076639175,0.0607810914516449,-0.1215621829032898
1772572758143669500,1.71766943359375,0.026419922709465027,0.06872233748435974,-0.07788532227277756
1772572758161509400,1.73550927734375,-0.016798794269561768,0.03420845419168472,0.047189339995384216
1772572758179335000,1.7533349609375,-0.02076941914856434,-0.038179077208042145,0.1235474944114685
1772572758197180200,1.77118017578125,-0.006872233934700489,-0.10155634582042694,0.12003502249717712
1772572758215009800,1.789009765625,0.010995574295520782,-0.12782354652881622,0.08536841720342636
1772572758232850400,1.806850341796875,0.020311269909143448,-0.08643743395805359,0.03375030308961868
1772572758250683100,1.82468310546875,0.017409659922122955,-0.0032070425804704428,-0.02871066704392433
1772572758268518000,1.842517822265625,0.01863138936460018,0.06963863968849182,-0.07422012835741043
1772572758286354000,1.86035400390625,0.012980886735022068,0.08994990587234497,-0.06001751124858856
1772572758304188400,1.8781884765625,0.005497787147760391,0.05146539583802223,-0.003359758760780096
1772572758322024400,1.8960244140625,-0.0074830991216003895,-0.0555887371301651,0.043218716979026794
1772572758339859000,1.91385888671875,-0.0065668015740811825,-0.10842858254909515,0.0503963828086853
1772572758357695500,1.931695556640625,0.008704829961061478,-0.03176499158143997,0.05253441259264946
1772572758375530000,1.949530029296875,0.007788531947880983,0.07101308554410934,0.06444628536701202
1772572758393366000,1.967365966796875,0.0006108652451075613,0.04489859566092491,0.04108068719506264
1772572758411200300,1.9852001953125,-0.0022907445672899485,-0.036651913076639175,-0.0025961773935705423
1772572758429036500,2.00303662109375,-0.00809396430850029,-0.054367005825042725,-0.0064140851609408855
1772572758446871000,2.02087109375,-0.015118914656341076,-0.017562376335263252,0.008857546374201775
1772572758464707000,2.03870703125,0.0010690141934901476,0.03145955875515938,0.009773843921720982
1772572758482541300,2.056541259765625,0.01771509274840355,0.0455094613134861,-0.012522737495601177
1772572758500377300,2.07437744140625,0.003054326167330146,0.04581489413976669,-0.00366519158706069
1772572758518212400,2.09221240234375,-0.022602014243602753,0.1010981947183609,0.03680463135242462
1772572758536048000,2.110048095703125,-0.012675453908741474,0.06230825558304787,0.04108068719506264
1772572758553883100,2.127883056640625,0.003054326167330146,-0.05360342562198639,0.03527746722102165
1772572758571719000,2.145718994140625,-0.001832595793530345,-0.10980302840471268,0.09575312584638596
1772572758589553400,2.163553466796875,-0.016340645030140877,-0.09407325088977814,0.14065171778202057
1772572758607389200,2.18138916015625,-0.0039706239476799965,-0.076052725315094,0.09575312584638596
1772572758625223700,2.1992236328125,0.015271631069481373,-0.0503963828086853,0.005497787147760391
1772572758643059700,2.217059814453125,0.014508049935102463,0.015882495790719986,-0.054367005825042725
1772572758660894500,2.23489453125,0.010690141469240189,0.058184914290905,-0.10461067408323288
1772572758678730500,2.25273046875,0.02519819140434265,0.09086620807647705,-0.13087788224220276
1772572758696565200,2.270565185546875,0.021991148591041565,0.06994406878948212,-0.08491026610136032
1772572758714401500,2.288401611328125,-0.014966198243200779,0.00733038317412138,0.02535090781748295
1772572758732235500,2.306235595703125,-0.023365596309304237,-0.010079276748001575,0.09896016865968704
1772572758750071600,2.324071533203125,0.010690141469240189,-0.014355333521962166,0.08185594528913498
1772572758767906000,2.341906005859375,0.017867809161543846,-0.04963280260562897,-0.0019853119738399982
1772572758785730800,2.359730712890625,0.0003054326225537807,-0.050854530185461044,-0.06276640295982361
1772572758803576800,2.377576904296875,0.0007635815418325365,0.003054326167330146,-0.06612616032361984
1772572758821411600,2.39541162109375,0.01664607785642147,0.03527746722102165,-0.044135015457868576
1772572758839246300,2.413246337890625,0.02977968007326126,-0.007788531947880983,-0.02015855349600315
1772572758857083400,2.43108349609375,0.0007635815418325365,-0.08155050873756409,0.023518312722444534
1772572758874917000,2.448917236328125,-0.026572637259960175,-0.08384125679731369,0.06185010448098183
1772572758892755000,2.4667548828125,-0.014049900695681572,-0.02535090781748295,0.05604688450694084
1772572758910588700,2.484588623046875,0.01924225501716137,0.031154127791523933,0.021074850112199783
1772572758928424700,2.5024248046875,0.02519819140434265,0.03375030308961868,-0.004734205547720194
1772572758946259500,2.520259521484375,-0.00015271631127689034,-0.0022907445672899485,0.001527163083665073
1772572758964095200,2.53809521484375,-0.004123340360820293,0.02535090781748295,0.004734205547720194
1772572758981929700,2.5559296875,0.012828170321881771,0.06780604273080826,-0.012828170321881771
1772572758999765500,2.573765625,0.009010262787342072,0.035582900047302246,-0.02672535367310047
1772572759017600800,2.591600830078125,0.00427605677396059,-0.01160643994808197,-0.017409659922122955
1772572759035436300,2.609436279296875,0.0032070425804704428,0.014508049935102463,0.013133603148162365
1772572759053271300,2.627271240234375,0.005192354787141085,0.05421429127454758,0.02367102913558483
1772572759071106800,2.64510693359375,0.003359758760780096,0.039095375686883926,-0.006108652334660292
1772572759088941600,2.662941650390625,0.005650503560900688,0.015882495790719986,-0.027030786499381065
1772572759106777900,2.68077783203125,0.00427605677396059,0.0012217304902151227,-0.01618792861700058
1772572759124612400,2.6986123046875,0.007788531947880983,-0.03894266113638878,-0.009926560334861279
1772572759142448400,2.716448486328125,0.007941247895359993,-0.046273041516542435,-0.01542434748262167
1772572759160283000,2.734282958984375,0.013286318629980087,-0.01038470957428217,-0.02535090781748295
1772572759178119200,2.752119140625,0.01114829070866108,0.0009162978967651725,-0.012217304669320583
1772572759195954000,2.769953857421875,0.004581489134579897,0.00427605677396059,0.010842857882380486
1772572759213789700,2.787789794921875,0.0074830991216003895,0.04077525436878204,0.028557950630784035
1772572759231624200,2.805624267578125,0.01817324012517929,0.05513058975338936,0.024129176512360573
1772572759249446000,2.82344580078125,0.02168571576476097,0.04489859566092491,0.00733038317412138
1772572759267296000,2.8412958984375,0.009926560334861279,0.029168816283345222,0.009010262787342072
1772572759285130500,2.859130615234375,0.00855211354792118,-0.010079276748001575,0.0003054326225537807
1772572759302965800,2.8769658203125,0.0012217304902151227,-0.010231993161141872,-0.006108652334660292
1772572759320786200,2.8947861328125,0.010537425056099892,0.006261368747800589,-0.03237585723400116
1772572759338636300,2.91263623046875,0.018936822190880775,-0.01466076634824276,-0.010231993161141872
1772572759356472000,2.93047216796875,0.009773843921720982,-0.007788531947880983,0.053297992795705795
1772572759374306800,2.948306884765625,0.0007635815418325365,-0.019853120669722557,0.06719517707824707
1772572759392142600,2.966142578125,0.005345070734620094,-0.013286318629980087,0.0403171069920063
1772572759409977000,2.98397705078125,0.014049900695681572,0.013897184282541275,0.010537425056099892
1772572759427813000,3.001813232421875,0.003054326167330146,0.017562376335263252,0.019853120669722557
1772572759445648400,3.0196484375,0.0012217304902151227,0.0019853119738399982,0.02076941914856434
1772572759463484200,3.037484130859375,0.01237002108246088,0.018020525574684143,0.002138028386980295
1772572759481303800,3.0553037109375,0.02474004216492176,0.02580905705690384,0.010995574295520782
1772572759499149800,3.07314990234375,0.01710422709584236,-0.012064588256180286,0.03527746722102165
1772572759516977400,3.090977294921875,0.02015855349600315,-0.032070424407720566,0.03985895588994026
1772572759534825200,3.1088251953125,0.018325956538319588,-0.02321287989616394,0.032528575509786606
1772572759552659700,3.12665966796875,0.010231993161141872,-0.01710422709584236,0.01771509274840355
1772572759570495500,3.14449560546875,0.001527163083665073,-0.01237002108246088,0.013591751456260681
1772572759588330500,3.16233056640625,0.001679879380390048,0.013133603148162365,0.007635815534740686
1772572759606166300,3.180166259765625,0.009621127508580685,0.05467243865132332,-0.00931569468230009
1772572759623998000,3.197998046875,0.00931569468230009,0.043676864355802536,-0.019547687843441963
1772572759641840000,3.215840087890625,-0.001832595793530345,0.03237585723400116,0.019853120669722557
1772572759659671800,3.233671875,-0.004886921960860491,0.012217304669320583,0.059406645596027374
1772572759677507800,3.2515078125,0.010995574295520782,-0.02626720629632473,0.06688974797725677
1772572759695342600,3.269342529296875,0.01725694350898266,-0.05054909735918045,0.03634648025035858
1772572759713178600,3.2871787109375,-0.00015271631127689034,-0.04108068719506264,-0.0007635815418325365
1772572759730998000,3.304998046875,-0.014966198243200779,-0.029016099870204926,-0.021380282938480377
1772572759748841500,3.322841552734375,-0.016340645030140877,-0.0377209298312664,-0.029474247246980667
1772572759766684000,3.340683837890625,0.0064140851609408855,-0.026572637259960175,-0.006261368747800589
1772572759784519700,3.358519775390625,0.009162978269159794,0.004123340360820293,0.03955352306365967
1772572759802354400,3.3763544921875,-0.004886921960860491,0.00366519158706069,0.05742133408784866
1772572759820178000,3.394177978515625,-0.009010262787342072,-0.013744467869400978,0.025503624230623245
1772572759838025200,3.412025146484375,0.001679879380390048,-0.022449297830462456,-0.021838432177901268
1772572759855861000,3.429861083984375,0.008399397134780884,-0.03588833287358284,-0.04963280260562897
1772572759873696000,3.447696044921875,0.005955935921519995,-0.028405234217643738,-0.045204028487205505
1772572759891531500,3.465531494140625,-0.006719517521560192,0.01237002108246088,-0.016035212203860283
1772572759909362400,3.483362548828125,0.0024434609804302454,0.03405573591589928,-0.0010690141934901476
1772572759927199500,3.501199462890625,0.018325956538319588,0.029016099870204926,-0.005039638374000788
1772572759945037000,3.519037109375,0.018020525574684143,-0.027947084978222847,-0.001527163083665073
1772572759962876000,3.5368759765625,0.0009162978967651725,-0.06627888232469559,0.02871066704392433
1772572759980706300,3.554706298828125,-0.007941247895359993,-0.009621127508580685,0.06673702597618103
1772572759998545200,3.572545166015625,0.0009162978967651725,0.06994406878948212,0.05360342562198639
1772572760016378400,3.59037841796875,0.010231993161141872,0.06108652427792549,0.010079276748001575
1772572760034214100,3.608214111328125,-0.003359758760780096,-0.0074830991216003895,-0.0024434609804302454
1772572760052048600,3.626048583984375,-0.021074850112199783,-0.04444044828414917,0.013286318629980087
1772572760069884700,3.643884765625,-0.016493361443281174,-0.005039638374000788,0.01542434748262167
1772572760087719400,3.661719482421875,0.01038470957428217,0.03985895588994026,-0.006872233934700489
1772572760105543200,3.679543212890625,0.029626963660120964,0.02626720629632473,-0.024129176512360573
1772572760123390000,3.697389892578125,0.01114829070866108,-0.02932153269648552,-0.007635815534740686
1772572760141225700,3.715225830078125,-0.021838432177901268,-0.03985895588994026,0.02535090781748295
1772572760159061200,3.733061279296875,-0.028099801391363144,0.01710422709584236,0.03176499158143997
1772572760176896800,3.750896728515625,0.0009162978967651725,0.044745877385139465,0.01160643994808197
1772572760194731800,3.768731689453125,0.019853120669722557,0.02229658141732216,-0.006261368747800589
1772572760212567600,3.786567626953125,0.00427605677396059,-0.01038470957428217,-0.0074830991216003895
1772572760230402000,3.804402099609375,-0.016035212203860283,-0.013286318629980087,-0.0027488935738801956
1772572760248238300,3.82223828125,-0.014966198243200779,0.005497787147760391,-0.015118914656341076
1772572760266072800,3.84007275390625,0.013591751456260681,0.037110064178705215,-0.02367102913558483
1772572760283908600,3.85790869140625,0.023365596309304237,0.027641652151942253,-0.006261368747800589
1772572760301743400,3.875743408203125,0.0064140851609408855,-0.010690141469240189,0.029474247246980667
1772572760319579100,3.8935791015625,-0.011301007121801376,-0.015118914656341076,0.051312681287527084
1772572760337414100,3.9114140625,-0.00733038317412138,0.02580905705690384,0.05100724846124649
1772572760355250200,3.929250244140625,0.005039638374000788,0.05314527451992035,0.028557950630784035
1772572760373085000,3.9470849609375,0.005039638374000788,0.031612277030944824,0.009010262787342072
1772572760390920400,3.96492041015625,-0.001679879380390048,0.008857546374201775,-0.001679879380390048
1772572760408755500,3.98275537109375,-0.003817907767370343,-0.009010262787342072,-0.004734205547720194
1772572760426591200,4.00059130859375,-0.0009162978967651725,-0.022907447069883347,-0.008704829961061478
1772572760444421400,4.01842138671875,-0.007177666760981083,-0.02382374368607998,-0.00427605677396059
1772572760462266400,4.036266357421875,-0.012828170321881771,-0.01863138936460018,0.0027488935738801956
1772572760480096800,4.0540966796875,-0.010231993161141872,-0.011759156361222267,-0.005650503560900688
1772572760497933000,4.07193310546875,-0.00045814894838258624,0.027641652151942253,-0.01863138936460018
1772572760515767600,4.089767578125,0.00015271631127689034,0.02932153269648552,-0.01710422709584236
1772572760533603000,4.10760302734375,-0.004734205547720194,0.01114829070866108,-0.0009162978967651725
1772572760551437800,4.125437744140625,0.0007635815418325365,-0.022602014243602753,0.014049900695681572
1772572760569273600,4.143273681640625,-0.002138028386980295,-0.00366519158706069,0.04199698567390442
1772572760587108600,4.161108642578125,-0.004581489134579897,-0.004428773187100887,0.030543262138962746
1772572760604943000,4.178943115234375,0.006261368747800589,0.00015271631127689034,0.014355333521962166
1772572760622780400,4.196780517578125,0.010537425056099892,0.025656340643763542,0.007788531947880983
1772572760640615000,4.214614990234375,0.004123340360820293,0.03634648025035858,0.005039638374000788
1772572760658450200,4.2324501953125,-0.0006108652451075613,0.014813481830060482,-0.004734205547720194
1772572760676286000,4.250285888671875,0,-0.013439035043120384,0.0029016099870204926
1772572760694121000,4.268120849609375,0.0003054326225537807,-0.03985895588994026,0.023518312722444534
1772572760711956200,4.285956298828125,-0.0074830991216003895,-0.04886921867728233,0.034666601568460464
1772572760729791200,4.303791259765625,-0.0013744467869400978,-0.0455094613134861,0.009162978269159794
1772572760747627300,4.321627197265625,-0.0029016099870204926,-0.03084869496524334,-0.00931569468230009
1772572760765461800,4.339461669921875,-0.009773843921720982,0.02015855349600315,-0.0024434609804302454
1772572760783298000,4.357298095703125,-0.009926560334861279,0.027641652151942253,-0.004581489134579897
1772572760801132500,4.375132568359375,0.004886921960860491,0.010079276748001575,-0.02886338345706463
1772572760818968600,4.392968505859375,0.016493361443281174,-0.024129176512360573,-0.03649919852614403
1772572760836803300,4.41080322265625,0.014202617108821869,-0.04841107130050659,0.004123340360820293
1772572760854638800,4.428638916015625,0.005345070734620094,-0.015118914656341076,0.04566217586398125
1772572760872473900,4.446473876953125,0.017867809161543846,0.012064588256180286,0.02977968007326126
1772572760890309600,4.4643095703125,0.023365596309304237,0.015271631069481373,-0.01191187184303999
1772572760908131800,4.4821318359375,0.005650503560900688,0.018936822190880775,-0.029626963660120964
1772572760925980200,4.499980224609375,-0.016493361443281174,0.04306599870324135,-0.02779436856508255
1772572760943815400,4.5178154296875,-0.025045474991202354,0.08139779418706894,-0.04612032696604729
1772572760961651000,4.53565087890625,-0.03527746722102165,0.16019940376281738,-0.1281289905309677
1772572760979485400,4.5534853515625,-0.04046982154250145,0.30146199464797974,-0.19486601650714874
1772572760997321700,4.57132177734375,-0.04153883829712868,0.2967278063297272,-0.15683965384960175
1772572761015156500,4.589156494140625,-0.020311269909143448,0.11178833991289139,-0.036651913076639175
1772572761032992300,4.6069921875,0.003512475173920393,-0.11194105446338654,0.09865473955869675
1772572761050826800,4.62482666015625,-0.0025961773935705423,-0.21365012228488922,0.16050484776496887
1772572761068662500,4.64266259765625,0.0007635815418325365,-0.11194105446338654,0.11652254313230515
1772572761086497500,4.66049755859375,0.007788531947880983,0.009162978269159794,0.020005837082862854
1772572761104333600,4.67833349609375,0.009621127508580685,0.047800205647945404,-0.05009094998240471
1772572761122162700,4.69616259765625,0.0022907445672899485,0.06933320313692093,-0.05467243865132332
1772572761140003800,4.71400390625,-0.0039706239476799965,0.08552113175392151,-0.0065668015740811825
1772572761157838800,4.7318388671875,0.009621127508580685,0.06475171446800232,0.047800205647945404
1772572761175675000,4.7496748046875,0.036193765699863434,-0.011453723534941673,0.07681630551815033
1772572761193509600,4.767509521484375,0.05451972410082817,-0.08109235763549805,0.06963863968849182
1772572761211345200,4.78534521484375,0.048105638474226,-0.07742717117071152,0.04596760869026184
1772572761229180000,4.803179931640625,0.02825251780450344,-0.044287730008363724,0.021532999351620674
1772572761247016200,4.82101611328125,0.021074850112199783,-0.03130684420466423,0.00015271631127689034
1772572761264850000,4.838849853515625,0.023060163483023643,-0.005955935921519995,0.01466076634824276
1772572761282687500,4.8566875,0.024129176512360573,0.03634648025035858,0.044287730008363724
1772572761300521500,4.874521484375,0.024434609338641167,-0.001832595793530345,0.038179077208042145
1772572761318354700,4.892354736328125,0.01725694350898266,-0.044745877385139465,0.01878410577774048
1772572761336194600,4.910194580078125,0.007941247895359993,-0.07590000331401825,-0.004886921960860491
1772572761354027800,4.92802783203125,0.02015855349600315,-0.07162395119667053,-0.030543262138962746
1772572761371862500,4.945862548828125,0.033139441162347794,-0.036041051149368286,-0.020616702735424042
1772572761389698300,4.9636982421875,0.023060163483023643,-0.013591751456260681,0.014355333521962166
1772572761407533000,4.981532958984375,0.00809396430850029,-0.02580905705690384,0.02076941914856434
1772572761425368800,4.999368896484375,0.0029016099870204926,0.002138028386980295,0.006261368747800589
1772572761443203800,5.017203857421875,0.011301007121801376,0.05207626149058342,-0.014049900695681572
1772572761461039400,5.035039306640625,0.022143865004181862,0.04688390716910362,-0.01572977937757969
1772572761478871800,5.052871826171875,0.01817324012517929,0.0019853119738399982,0.013133603148162365
1772572761496700400,5.070700439453125,0.0032070425804704428,-0.059406645596027374,0.038179077208042145
1772572761514534000,5.088533935546875,-0.005192354787141085,-0.06444628536701202,0.03573561832308769
1772572761532383200,5.10638330078125,0.0025961773935705423,-0.017562376335263252,0.010079276748001575
1772572761550203400,5.124203369140625,0.008704829961061478,-0.005497787147760391,-0.0074830991216003895
1772572761568052000,5.142052001953125,0.00931569468230009,-0.03390302136540413,-0.006108652334660292
1772572761585876000,5.1598759765625,-0.0025961773935705423,-0.023976460099220276,0.03222314268350601
1772572761603722000,5.177721923828125,0.0003054326225537807,-0.041233405470848083,0.052381694316864014
1772572761621557000,5.195556884765625,0.014508049935102463,-0.06612616032361984,0.0507018156349659
1772572761639388400,5.213388427734375,0.026419922709465027,-0.08414668589830399,0.03878994286060333
1772572761657227800,5.231227783203125,0.022907447069883347,-0.05955936014652252,0.040622539818286896
1772572761675063600,5.2490634765625,0.021838432177901268,-0.014508049935102463,0.04199698567390442
1772572761692898300,5.266898193359375,0.023976460099220276,0.02580905705690384,0.02672535367310047
1772572761710733800,5.28473388671875,0.02977968007326126,0.014355333521962166,0.001832595793530345
1772572761728565800,5.302565673828125,0.03741549700498581,-0.020463986322283745,-0.005955935921519995
1772572761746408000,5.320407958984375,0.029474247246980667,-0.03451388701796532,0.018325956538319588
1772572761764239400,5.3382392578125,0.016951510682702065,-0.011759156361222267,0.04886921867728233
1772572761782072600,5.356072509765625,0.00931569468230009,-0.001527163083665073,0.0377209298312664
1772572761799912700,5.37391259765625,0.0064140851609408855,0.004428773187100887,0.020463986322283745
1772572761817746000,5.391745849609375,0.004428773187100887,0.036193765699863434,0.020005837082862854
1772572761835580400,5.409580322265625,-0.003817907767370343,0.022143865004181862,0.021991148591041565
1772572761853416200,5.427416259765625,-0.00427605677396059,-0.01664607785642147,0.0029016099870204926
1772572761871251200,5.445251220703125,-0.008246680721640587,-0.030695978552103043,-0.011759156361222267
1772572761889086700,5.463086669921875,-0.01572977937757969,-0.029932396486401558,0.003054326167330146
1772572761906921700,5.480921630859375,-0.021074850112199783,-0.014813481830060482,0.02825251780450344
1772572761924757200,5.49875732421875,-0.016951510682702065,-0.0006108652451075613,0.01710422709584236
1772572761942592300,5.51659228515625,-0.011759156361222267,-0.008704829961061478,-0.009621127508580685
1772572761960428000,5.534427978515625,-0.01771509274840355,-0.03588833287358284,-0.005039638374000788
1772572761978263000,5.552262939453125,-0.018325956538319588,-0.04489859566092491,0.01237002108246088
1772572761996098800,5.570098876953125,-0.00931569468230009,-0.02687807008624077,0.018325956538319588
1772572762013933800,5.587933837890625,0.001679879380390048,-0.010995574295520782,0.006872233934700489
1772572762031769000,5.60576904296875,0.013133603148162365,0.025503624230623245,-0.009773843921720982
1772572762049603800,5.623603759765625,0.005803219974040985,0.012064588256180286,-0.01817324012517929
1772572762067440000,5.641440185546875,-0.01038470957428217,-0.046731192618608475,-0.016035212203860283
1772572762085274600,5.659274658203125,-0.003512475173920393,-0.05803219974040985,-0.01664607785642147
1772572762103110700,5.677110595703125,0.00855211354792118,-0.032070424407720566,-0.019089538604021072
1772572762120945200,5.694945068359375,0.005192354787141085,-0.003359758760780096,-0.029626963660120964
1772572762138781200,5.71278125,0.007177666760981083,0.016035212203860283,-0.01970040425658226
1772572762156616000,5.730615966796875,-0.004734205547720194,0.012828170321881771,0.018478672951459885
1772572762174452000,5.748451904296875,-0.012828170321881771,0.024434609338641167,0.04260785132646561
1772572762192286200,5.7662861328125,-0.03176499158143997,0.036193765699863434,0.08704829961061478
1772572762210122000,5.7841220703125,-0.06490442901849747,0.04505131021142006,0.15042556822299957
1772572762227957200,5.801957275390625,-0.07299839705228806,0.07284568250179291,0.17577648162841797
1772572762245789700,5.819789794921875,-0.03741549700498581,0.1010981947183609,0.13041973114013672
1772572762263630800,5.837630859375,-0.0019853119738399982,0.09285151958465576,0.05910121276974678
1772572762281463300,5.85546337890625,0.0064140851609408855,0.1134682223200798,0.025045474991202354
1772572762299301400,5.87330126953125,0.005192354787141085,0.1420261710882187,0.02825251780450344
1772572762317133600,5.891133544921875,0.00366519158706069,0.08491026610136032,0.04382958263158798
1772572762334965800,5.9089658203125,0.007024950347840786,0.007635815534740686,0.07009678333997726
1772572762352807700,5.9268076171875,0.006261368747800589,-0.04199698567390442,0.055283304303884506
1772572762370639000,5.94463916015625,0.0032070425804704428,-0.03191770985722542,0.020922135561704636
1772572762388468500,5.962468505859375,0.0019853119738399982,0.009162978269159794,-0.00015271631127689034
1772572762406309600,5.9803095703125,0.01863138936460018,0.04841107130050659,-0.0074830991216003895
1772572762424138200,5.99813818359375,0.029168816283345222,0.05314527451992035,-0.015577063895761967
1772572762441980200,6.015980224609375,0.02825251780450344,0.03833179548382759,-0.035582900047302246
1772572762459816200,6.033816162109375,0.03741549700498581,0.006261368747800589,-0.0630718395113945
1772572762477651200,6.051651123046875,0.04703662544488907,-0.032681290060281754,-0.07101308554410934
1772572762495487000,6.069487060546875,0.04535674303770065,-0.015577063895761967,-0.05100724846124649
1772572762513322200,6.087322265625,0.03375030308961868,0.02122756652534008,-0.022143865004181862
1772572762531157500,6.105157470703125,0.02168571576476097,0.01878410577774048,-0.004886921960860491
1772572762548992000,6.122991943359375,0.02168571576476097,-0.010537425056099892,0.018936822190880775
1772572762566828300,6.140828369140625,0.024129176512360573,-0.018936822190880775,0.05406157299876213
1772572762584662800,6.158662841796875,0.03451388701796532,0.0024434609804302454,0.06627888232469559
1772572762602498600,6.17649853515625,0.041691552847623825,-0.007941247895359993,0.03985895588994026
1772572762620333000,6.1943330078125,0.03848451003432274,-0.03649919852614403,0.016493361443281174
1772572762638169000,6.212169189453125,0.02672535367310047,-0.04566217586398125,0.04001167416572571
1772572762656003600,6.230003662109375,0.009621127508580685,-0.07040221989154816,0.05115996301174164
1772572762673839600,6.247839599609375,-0.001527163083665073,-0.05467243865132332,0.005192354787141085
1772572762691674000,6.265674072265625,0.008857546374201775,0.00931569468230009,-0.056352317333221436
1772572762709510000,6.283510009765625,0.023060163483023643,0.027183502912521362,-0.059864792972803116
1772572762727345000,6.301344970703125,0.010842857882380486,-0.009468411095440388,-0.0039706239476799965
1772572762745181000,6.319180908203125,-0.004123340360820293,-0.04535674303770065,0.04230241850018501
1772572762763015400,6.337015380859375,0.0032070425804704428,-0.07070764899253845,0.03588833287358284
1772572762780851200,6.354851318359375,0.01817324012517929,-0.07269296050071716,0.015118914656341076
1772572762798686200,6.372686279296875,0.013897184282541275,-0.030695978552103043,0.028099801391363144
1772572762816522500,6.3905224609375,0.0024434609804302454,0.010995574295520782,0.032070424407720566
1772572762834344200,6.40834423828125,0.005192354787141085,0.021532999351620674,-0.00733038317412138
1772572762852180000,6.426179931640625,-0.0022907445672899485,-0.009773843921720982,-0.04505131021142006
1772572762870030000,6.444030029296875,-0.02168571576476097,-0.04092797264456749,-0.03176499158143997
1772572762887867100,6.4618671875,-0.026419922709465027,-0.04749477282166481,0.009773843921720982
1772572762905683200,6.47968310546875,-0.017409659922122955,-0.04489859566092491,0.018020525574684143
1772572762923536100,6.4975361328125,-0.014049900695681572,-0.052228979766368866,-0.001679879380390048
1772572762941365000,6.515364990234375,-0.04489859566092491,-0.06414084881544113,-0.025503624230623245
1772572762959207200,6.533207275390625,-0.06017022579908371,-0.03298672288656235,-0.03833179548382759
1772572762977038800,6.551038818359375,-0.050854530185461044,0.00809396430850029,-0.033139441162347794
1772572762994873900,6.568873779296875,-0.03573561832308769,0.010995574295520782,-0.01664607785642147
1772572763012710100,6.586710205078125,-0.03634648025035858,-0.008704829961061478,-0.01038470957428217
1772572763030545000,6.604544921875,-0.050854530185461044,-0.03894266113638878,-0.01191187184303999
1772572763048380000,6.6223798828125,-0.04703662544488907,-0.055741455405950546,-0.02779436856508255
1772572763066214400,6.64021435546875,-0.03573561832308769,-0.03329215571284294,-0.040164388716220856
1772572763084048600,6.658048583984375,-0.03481931984424591,-0.006719517521560192,-0.023976460099220276
1772572763101890300,6.675890380859375,-0.041233405470848083,0.017409659922122955,0.015271631069481373
1772572763119719200,6.69371923828125,-0.026572637259960175,0.014202617108821869,0.031154127791523933
1772572763137557000,6.711556884765625,-0.013286318629980087,-0.029474247246980667,0.014813481830060482
1772572763155391200,6.72939111328125,-0.019853120669722557,-0.050243668258190155,0.0003054326225537807
1772572763173227000,6.74722705078125,-0.027183502912521362,-0.014508049935102463,0.00855211354792118
1772572763191061800,6.765061767578125,-0.023976460099220276,-0.010079276748001575,0.00366519158706069
1772572763208897500,6.7828974609375,-0.005497787147760391,0.004734205547720194,-0.006108652334660292
1772572763226732500,6.800732666015625,0,-0.007941247895359993,-0.012064588256180286
1772572763244568000,6.818568115234375,-0.012828170321881771,-0.05253441259264946,-0.005650503560900688
1772572763262402800,6.83640283203125,-0.021074850112199783,-0.05146539583802223,0.0013744467869400978
1772572763280238300,6.85423828125,-0.01725694350898266,0.010079276748001575,-0.004734205547720194
1772572763298073900,6.872073974609375,-0.01191187184303999,0.039095375686883926,-0.023976460099220276
1772572763315909400,6.889909423828125,-0.010537425056099892,0.012675453908741474,-0.02474004216492176
1772572763333744000,6.907744140625,-0.01924225501716137,-0.017562376335263252,-0.0027488935738801956
1772572763351580000,6.925579833984375,-0.02535090781748295,-0.0025961773935705423,0.020463986322283745
1772572763369410600,6.94341064453125,-0.01237002108246088,0.038637228310108185,0.02687807008624077
1772572763387250200,6.961250244140625,0.00015271631127689034,0.04505131021142006,0.004886921960860491
1772572763405085200,6.979085205078125,0.005650503560900688,0.03588833287358284,-0.020922135561704636
1772572763422921000,6.9969208984375,-0.001527163083665073,-0.0013744467869400978,-0.018478672951459885
1772572763440755200,7.014755126953125,-0.019394971430301666,-0.02321287989616394,0.006108652334660292
1772572763458591500,7.032591552734375,-0.013286318629980087,0.006719517521560192,0.02275473065674305
1772572763476424400,7.050424560546875,0.0022907445672899485,0.03588833287358284,0.02229658141732216
1772572763494251000,7.0682509765625,0.0012217304902151227,0.02687807008624077,0.02015855349600315
1772572763512083200,7.086083251953125,-0.010079276748001575,-0.0012217304902151227,0.03649919852614403
1772572763529934800,7.103934814453125,-0.008857546374201775,-0.006872233934700489,0.047800205647945404
1772572763547764000,7.121763916015625,0.010079276748001575,0.0065668015740811825,0.04535674303770065
1772572763565606100,7.139606201171875,0.014813481830060482,-0.0022907445672899485,0.037110064178705215
1772572763583437600,7.1574375,-0.0029016099870204926,-0.049785517156124115,0.03191770985722542
1772572763601273000,7.175273193359375,-0.008857546374201775,-0.03985895588994026,0.00809396430850029
1772572763619108000,7.193108154296875,0.004886921960860491,0.005039638374000788,-0.02015855349600315
1772572763636944000,7.21094384765625,0.007941247895359993,0.030237829312682152,-0.013286318629980087
1772572763654778600,7.228778564453125,0.003359758760780096,0.03405573591589928,0.00427605677396059
1772572763672614100,7.2466142578125,0.0064140851609408855,0.019394971430301666,0.005192354787141085
1772572763690449000,7.264448974609375,0.003359758760780096,0.013744467869400978,0.009621127508580685
1772572763708284400,7.282284423828125,-0.004886921960860491,0.024892758578062057,-0.0003054326225537807
1772572763726119400,7.300119384765625,-0.0027488935738801956,0.00855211354792118,-0.01191187184303999
1772572763743955700,7.317955810546875,0.0039706239476799965,-0.010079276748001575,0.0032070425804704428
1772572763761790000,7.3357900390625,-0.006872233934700489,-0.03741549700498581,0.012980886735022068
1772572763779625700,7.353625732421875,-0.023365596309304237,-0.014966198243200779,0.002138028386980295
1772572763797460700,7.371460693359375,-0.017562376335263252,0.039248090237379074,-0.02015855349600315
1772572763815296500,7.389296630859375,0.00015271631127689034,0.04077525436878204,-0.014202617108821869
1772572763833131300,7.40713134765625,0.00366519158706069,-0.0064140851609408855,0.021991148591041565
1772572763850966800,7.424966796875,-0.01237002108246088,-0.0403171069920063,0.04642575979232788
1772572763868801800,7.4428017578125,-0.017562376335263252,-0.021380282938480377,0.026114489883184433
1772572763886638300,7.460638427734375,-0.0039706239476799965,0.026419922709465027,-0.01191187184303999
1772572763904471300,7.47847119140625,0.014049900695681572,0.041233405470848083,-0.027947084978222847
1772572763922307800,7.496307861328125,0.01038470957428217,0.04260785132646561,0.0024434609804302454
1772572763940142600,7.514142578125,0.00015271631127689034,0.017867809161543846,0.030543262138962746
1772572763957978000,7.53197802734375,0.008857546374201775,0.016798794269561768,0.022907447069883347
1772572763975812900,7.549812744140625,0.02382374368607998,0.028557950630784035,0.007635815534740686
1772572763993648600,7.567648681640625,0.022602014243602753,0.03130684420466423,0.01191187184303999
1772572764011483100,7.585483154296875,0.015577063895761967,0.016035212203860283,0.021532999351620674
1772572764029315000,7.603315185546875,0.01710422709584236,-0.001832595793530345,0.02076941914856434
1772572764047154200,7.621154296875,0.021074850112199783,0.00733038317412138,0.012217304669320583
1772572764064987100,7.638987060546875,0.020311269909143448,0.03726277872920036,0.0006108652451075613
1772572764082827000,7.656826904296875,0.017562376335263252,0.05619960278272629,-0.003512475173920393
1772572764100660200,7.67466015625,0.01710422709584236,0.014508049935102463,-0.007635815534740686
1772572764118495000,7.692494873046875,0.01970040425658226,-0.04917465150356293,-0.016798794269561768
1772572764136330500,7.71033056640625,0.026419922709465027,-0.07590000331401825,-0.012064588256180286
1772572764154165200,7.728165283203125,0.024434609338641167,-0.041233405470848083,-0.005955935921519995
1772572764172001000,7.7460009765625,0.025656340643763542,-0.0328340083360672,-0.02825251780450344
1772572764189824300,7.76382421875,0.01970040425658226,-0.041691552847623825,-0.04444044828414917
1772572764207654100,7.781654052734375,0.011759156361222267,-0.013286318629980087,-0.03588833287358284
1772572764225489000,7.799489013671875,0.015271631069481373,0.024434609338641167,-0.030085112899541855
1772572764243342000,7.817342041015625,0.024587325751781464,0.012217304669320583,-0.026114489883184433
1772572764261175600,7.835175537109375,0.01237002108246088,-0.003054326167330146,-0.010690141469240189
1772572764279014000,7.853013916015625,0,0.016798794269561768,0.005650503560900688
1772572764296847400,7.870847412109375,-0.0039706239476799965,0.05742133408784866,-0.0019853119738399982
1772572764314683100,7.88868310546875,-0.003054326167330146,0.047800205647945404,-0.02871066704392433
1772572764332517600,7.906517578125,-0.0003054326225537807,0.00809396430850029,-0.03329215571284294
1772572764350353200,7.924353271484375,-0.002138028386980295,-0.01970040425658226,-0.01970040425658226
1772572764368188400,7.9421884765625,0.003359758760780096,-0.017562376335263252,-0.009621127508580685
1772572764386021000,7.960021240234375,-0.008246680721640587,-0.014202617108821869,0.00366519158706069
1772572764403861500,7.977861572265625,-0.010690141469240189,0.0007635815418325365,0.013744467869400978
1772572764421691100,7.995691162109375,0.001679879380390048,-0.00931569468230009,0.03420845419168472
1772572764439532000,8.013531982421876,0.013897184282541275,-0.029168816283345222,0.047189339995384216
1772572764457364700,8.03136474609375,0.010842857882380486,-0.02367102913558483,0.03573561832308769
1772572764475199500,8.049199462890625,-0.007024950347840786,0.003817907767370343,-0.0074830991216003895
1772572764493035500,8.067035400390624,0.003054326167330146,0.056352317333221436,-0.07864890247583389
1772572764510869800,8.084869873046875,0.02275473065674305,0.13026700913906097,-0.1189660057425499
1772572764528705800,8.102705810546874,0.01160643994808197,0.14782938361167908,-0.10812314599752426
1772572764546540800,8.120540771484375,-0.011301007121801376,0.1508837193250656,-0.02733621932566166
1772572764564376300,8.138376220703124,-0.023518312722444534,-0.006108652334660292,0.08918632566928864
1772572764582210800,8.1562109375,-0.016798794269561768,-0.10231992602348328,0.14996741712093353
1772572764600046600,8.174046630859374,-0.02687807008624077,-0.12782354652881622,0.11820242553949356
1772572764617881600,8.191881591796875,-0.0064140851609408855,-0.03390302136540413,0.027488935738801956
1772572764635705000,8.209705078125,0.00855211354792118,0.09682214260101318,-0.05497787147760391
1772572764653540400,8.227540283203124,0.008704829961061478,0.21563543379306793,-0.08643743395805359
1772572764671387600,8.2453876953125,0.0027488935738801956,0.23151792585849762,-0.0907134860754013
1772572764689218800,8.26321875,0.001679879380390048,0.18295414745807648,-0.07788532227277756
1772572764707058200,8.28105810546875,0.007177666760981083,0.07024950534105301,0.007024950347840786
