time,seconds_elapsed,z,y,x
1772572756531799800,0.1057998046875,9.667003631591797,2.0093727111816406,-0.11066804826259613
1772572756549630500,0.12363037109375,9.809974670410156,1.919043779373169,-0.13519448041915894
1772572756567478800,0.141478759765625,9.753743171691895,1.6941183805465698,-0.2805584669113159
1772572756585313500,0.1593134765625,9.558130264282227,1.5487544536590576,-0.5856433510780334
1772572756603148300,0.177148193359375,9.339784622192383,1.5541383028030396,-0.7094719409942627
1772572756620983800,0.19498388671875,9.305686950683594,1.4602199792861938,-0.8662018179893494
1772572756638819000,0.212819091796875,9.632308006286621,1.2658032178878784,-1.0965110063552856
1772572756656655600,0.230655517578125,9.257830619812012,0.9960124492645264,-0.9475577473640442
1772572756674490000,0.248489990234375,9.428318977355957,1.2592228651046753,-1.0510473251342773
1772572756692325400,0.266325439453125,9.220742225646973,1.3411771059036255,-0.7782655358314514
1772572756710161400,0.284161376953125,9.094520568847656,1.591825246810913,-0.7094719409942627
1772572756727995600,0.30199560546875,9.003593444824219,1.5708880424499512,-0.9726824164390564
1772572756745821700,0.31982177734375,9.262616157531738,1.5637096166610718,-0.906281590461731
1772572756763666200,0.337666259765625,9.463613510131836,1.4841482639312744,-0.8865407705307007
1772572756781490000,0.355489990234375,9.346963882446289,1.4889339208602905,-0.8626125454902649
1772572756799325700,0.37332568359375,9.650253295898438,1.6342978477478027,-0.747757077217102
1772572756817166800,0.391166748046875,10.00439167022705,1.6528422832489014,-0.6945167779922485
1772572756835006000,0.409005859375,10.05284595489502,1.6091731786727905,-0.6317051649093628
1772572756852845600,0.426845458984375,9.946365356445312,1.547558069229126,-0.7016952633857727
1772572756870678300,0.44467822265625,10.023533821105957,1.542174220085144,-0.6269195079803467
1772572756913035500,0.487035400390625,10.159326553344727,1.672582983970642,-0.373878538608551
1772572756930871300,0.504871337890625,9.963115692138672,1.8095721006393433,-0.42711883783340454
1772572756948706000,0.5227060546875,9.987043380737305,1.8047864437103271,-0.48873403668403625
1772572756966541800,0.540541748046875,9.987043380737305,1.5990036725997925,-0.6125625967979431
1772572756984376800,0.558376953125,9.92542839050293,1.4889339208602905,-0.6843472719192505
1772572757002212600,0.576212646484375,10.01156997680664,1.4368900060653687,-0.5934200286865234
1772572757020035000,0.59403515625,10.154541015625,1.4662020206451416,-0.49292147159576416
1772572757037883600,0.611883544921875,9.944570541381836,1.40279221534729,-0.6317051649093628
1772572757055718100,0.62971826171875,9.476774215698242,1.3854442834854126,-0.8045865893363953
1772572757073553700,0.6475537109375,9.400203704833984,1.461416482925415,-0.7812566161155701
1772572757091388700,0.665388671875,9.681958198547363,1.3968101739883423,-0.6323033571243286
1772572757109224700,0.683224609375,9.777671813964844,1.2873386144638062,-0.641276478767395
1772572757127059500,0.7010595703125,9.605986595153809,1.3435698747634888,-0.7088736891746521
1772572757144894200,0.718894287109375,9.381659507751465,1.3465609550476074,-0.7668996453285217
1772572757162730800,0.736730712890625,9.2859468460083,1.4039887189865112,-0.7525427341461182
1772572757180565800,0.754565673828125,9.223732948303223,1.5948163270950317,-0.6622136831283569
1772572757198400500,0.772400390625,9.2859468460083,1.5619150400161743,-0.666999340057373
1772572757216236500,0.790236572265625,9.400203704833984,1.4093725681304932,-0.7190431952476501
1772572757234071000,0.808071044921875,9.505488395690918,1.409970760345459,-0.7184450030326843
1772572757251906800,0.82590673828125,9.495916366577148,1.3956137895584106,-0.7328019142150879
1772572757269741300,0.8437412109375,9.362516403198242,1.3657035827636719,-0.7668996453285217
1772572757287577600,0.86157763671875,9.242876052856445,1.461416482925415,-0.633499801158905
1772572757305412000,0.879412109375,9.328418731689453,1.672582983970642,-0.42352959513664246
1772572757323248000,0.897248046875,9.662816047668457,1.5930216312408447,-0.31764721870422363
1772572757341080300,0.915080322265625,9.968499183654785,1.4135600328445435,-0.2638086974620819
1772572757358921500,0.93292138671875,10.169496536254883,1.2616157531738281,-0.268594354391098
1772572757376753700,0.950753662109375,10.036096572875977,1.2795618772506714,-0.27337998151779175
1772572757394589700,0.968589599609375,9.79681396484375,1.3836497068405151,-0.3601198196411133
1772572757412424000,0.986423828125,9.772886276245117,1.4883357286453247,-0.32183465361595154
1772572757430259700,1.004259765625,9.8207426071167,1.4123635292053223,-0.29790642857551575
1772572757448094500,1.022094482421875,9.66819953918457,1.44945228099823,-0.37926238775253296
1772572757465930500,1.039930419921875,9.462417602539062,1.4530415534973145,-0.4989035129547119
1772572757483750700,1.057750732421875,9.33858871459961,1.490728497505188,-0.4899304509162903
1772572757501593300,1.07559326171875,9.33320426940918,1.5960127115249634,-0.4139583110809326
1772572757519437300,1.093437255859375,9.309276580810547,1.6390835046768188,-0.3613162338733673
1772572757537271600,1.111271484375,9.242876052856445,1.6241283416748047,-0.3326023519039154
1772572757555106600,1.1291064453125,9.552745819091797,1.8269200325012207,-0.20338992774486542
1772572757572942300,1.1469423828125,9.896714210510254,1.6618152856826782,-0.07357929646968842
1772572757590776800,1.16477685546875,10.083354949951172,1.399801254272461,-0.13040883839130402
1772572757608612600,1.182612548828125,9.716055870056152,1.3830515146255493,-0.40319061279296875
1772572757626447600,1.200447509765625,9.524630546569824,1.5158531665802002,-0.4707878530025482
1772572757644283100,1.218283203125,9.591031074523926,1.578664779663086,-0.37028929591178894
1772572757662118100,1.2361181640625,9.595816612243652,1.6456637382507324,-0.3080759048461914
1772572757679954000,1.253953857421875,9.600603103637695,1.5643078088760376,-0.37507495284080505
1772572757697785900,1.271785888671875,9.806385040283203,1.4937195777893066,-0.37926238775253296
1772572757715627800,1.289627685546875,9.997213363647461,1.456032633781433,-0.3643072545528412
1772572757733459200,1.307459228515625,9.926026344299316,1.389033555984497,-0.43609192967414856
1772572757751295200,1.325295166015625,9.701101303100586,1.4111671447753906,-0.5413761138916016
1772572757769129700,1.343129638671875,9.500701904296875,1.472184181213379,-0.5802595019340515
1772572757786965800,1.3609658203125,9.467203140258789,1.6013965606689453,-0.4085744619369507
1772572757804800500,1.378800537109375,9.34277629852295,1.7060825824737549,-0.34695929288864136
1772572757822636300,1.39663623046875,9.476176261901855,1.6683956384658813,-0.48514479398727417
1772572757840470800,1.414470703125,9.829715728759766,1.5074782371520996,-0.46480581164360046
1772572757858307000,1.43230712890625,10.006784439086914,1.3513466119766235,-0.3690928816795349
1772572757876142000,1.45014208984375,10.111470222473145,1.5140584707260132,-0.40737804770469666
1772572757893977900,1.467977783203125,9.739386558532715,1.5696916580200195,-0.24107688665390015
1772572757911812000,1.48581201171875,9.57188892364502,1.6313068866729736,-0.3032902777194977
1772572757929647900,1.50364794921875,9.610174179077148,1.6785650253295898,-0.3607180118560791
1772572757947472100,1.52147216796875,9.577272415161133,1.5876377820968628,-0.35114672780036926
1772572757965318400,1.539318359375,9.5533447265625,1.5493526458740234,-0.42293140292167664
1772572757983153400,1.5571533203125,9.42891788482666,1.5439687967300415,-0.4420739710330963
1772572758000989200,1.5749892578125,9.69631576538086,1.6223337650299072,-0.35054850578308105
1772572758018824400,1.592824462890625,9.992427825927734,1.5858432054519653,-0.21176479756832123
1772572758036660200,1.61066015625,9.653244972229004,1.5020943880081177,-0.40319061279296875
1772572758054494700,1.62849462890625,9.404989242553711,1.5242279767990112,-0.5467599630355835
1772572758072330200,1.646330322265625,9.271589279174805,1.6049858331680298,-0.5234299302101135
1772572758090165000,1.6641650390625,9.204590797424316,1.6235301494598389,-0.4905286431312561
1772572758108001000,1.6820009765625,9.381061553955078,1.7156537771224976,-0.3900300860404968
1772572758125834800,1.699834716796875,9.538389205932617,1.7072789669036865,-0.34636107087135315
1772572758143669500,1.71766943359375,9.877572059631348,1.685145378112793,-0.259621262550354
1772572758161509400,1.73550927734375,9.725028991699219,1.6223337650299072,-0.3032902777194977
1772572758179335000,1.7533349609375,9.419346809387207,1.5822539329528809,-0.47557350993156433
1772572758197180200,1.77118017578125,9.371489524841309,1.6821542978286743,-0.4899304509162903
1772572758215009800,1.789009765625,9.500103950500488,1.7258232831954956,-0.4468596279621124
1772572758232850400,1.806850341796875,9.614959716796875,1.7078771591186523,-0.355932354927063
1772572758250683100,1.82468310546875,9.671789169311523,1.7413766384124756,-0.3032902777194977
1772572758268518000,1.842517822265625,9.714859962463379,1.698904037475586,-0.31764721870422363
1772572758286354000,1.86035400390625,9.719645500183105,1.698904037475586,-0.3080759048461914
1772572758304188400,1.8781884765625,9.567103385925293,1.6929219961166382,-0.3607180118560791
1772572758322024400,1.8960244140625,9.485747337341309,1.7545372247695923,-0.39421752095222473
1772572758339859000,1.91385888671875,9.743574142456055,1.6558332443237305,-0.40319061279296875
1772572758357695500,1.931695556640625,10.006186485290527,1.5810575485229492,-0.3068794906139374
1772572758375530000,1.949530029296875,9.5862455368042,1.6839489936828613,-0.26979073882102966
1772572758393366000,1.967365966796875,9.256634712219238,1.8394824266433716,-0.3613162338733673
1772572758411200300,1.9852001953125,9.294919967651367,1.8299111127853394,-0.3852444589138031
1772572758429036500,2.00303662109375,9.705288887023926,1.7748762369155884,-0.3128615617752075
1772572758446871000,2.02087109375,9.729216575622559,1.679761528968811,-0.32243284583091736
1772572758464707000,2.03870703125,9.610174179077148,1.6450655460357666,-0.4372883439064026
1772572758482541300,2.056541259765625,9.53360366821289,1.7838492393493652,-0.39421752095222473
1772572758500377300,2.07437744140625,9.857831001281738,1.8143577575683594,-0.2267199456691742
1772572758518212400,2.09221240234375,9.67657470703125,1.731805443763733,-0.3607180118560791
1772572758536048000,2.110048095703125,9.299705505371094,1.724626898765564,-0.5330012440681458
1772572758553883100,2.127883056640625,9.43310546875,1.797009825706482,-0.45643091201782227
1772572758571719000,2.145718994140625,9.81535816192627,1.7808582782745361,-0.2793620526790619
1772572758589553400,2.163553466796875,9.595816612243652,1.7024933099746704,-0.35114672780036926
1772572758607389200,2.18138916015625,9.352347373962402,1.7682958841323853,-0.4570291340351105
1772572758625223700,2.1992236328125,9.437891006469727,1.80717933177948,-0.39481574296951294
1772572758643059700,2.217059814453125,9.538389205932617,1.836491346359253,-0.2847459018230438
1772572758660894500,2.23489453125,9.538389205932617,1.7742780447006226,-0.355932354927063
1772572758678730500,2.25273046875,9.614959716796875,1.7216359376907349,-0.3846462368965149
1772572758696565200,2.270565185546875,9.77707290649414,1.8089739084243774,-0.26979073882102966
1772572758714401500,2.288401611328125,9.863214492797852,1.771286964416504,-0.20757736265659332
1772572758732235500,2.306235595703125,9.610174179077148,1.6019947528839111,-0.42711883783340454
1772572758750071600,2.324071533203125,9.213563919067383,1.714457392692566,-0.4953143000602722
1772572758767906000,2.341906005859375,9.21834945678711,1.9591234922409058,-0.3475574851036072
1772572758785730800,2.359730712890625,9.619147300720215,1.908874273300171,-0.29371899366378784
1772572758803576800,2.377576904296875,9.753145217895508,1.698904037475586,-0.364905446767807
1772572758821411600,2.39541162109375,9.591031074523926,1.6498512029647827,-0.40319061279296875
1772572758839246300,2.413246337890625,9.504889488220215,1.750349760055542,-0.3655036687850952
1772572758857083400,2.43108349609375,9.7669038772583,1.8855443000793457,-0.18843477964401245
1772572758874917000,2.448917236328125,9.844072341918945,1.709073543548584,-0.26919254660606384
1772572758892755000,2.4667548828125,9.715457916259766,1.5936198234558105,-0.4223332107067108
1772572758910588700,2.484588623046875,9.519247055053711,1.664208173751831,-0.4085744619369507
1772572758928424700,2.5024248046875,9.524032592773438,1.8699909448623657,-0.24646073579788208
1772572758946259500,2.520259521484375,9.695717811584473,1.8664016723632812,-0.22193430364131927
1772572758964095200,2.53809521484375,9.695717811584473,1.7174484729766846,-0.3367897868156433
1772572758981929700,2.5559296875,9.46181869506836,1.74496591091156,-0.37507495284080505
1772572758999765500,2.573765625,9.404391288757324,1.8598214387893677,-0.3278166949748993
1772572759017600800,2.591600830078125,9.609575271606445,1.8083757162094116,-0.31764721870422363
1772572759035436300,2.609436279296875,9.729216575622559,1.7419748306274414,-0.31764721870422363
1772572759053271300,2.627271240234375,9.490532875061035,1.7593228816986084,-0.34217363595962524
1772572759071106800,2.64510693359375,9.361320495605469,1.825723648071289,-0.39960137009620667
1772572759088941600,2.662941650390625,9.500103950500488,1.7599210739135742,-0.3655036687850952
1772572759106777900,2.68077783203125,9.528818130493164,1.7312071323394775,-0.3846462368965149
1772572759124612400,2.6986123046875,9.552745819091797,1.7407784461975098,-0.40378883481025696
1772572759142448400,2.716448486328125,9.652647018432617,1.7174484729766846,-0.3601198196411133
1772572759160283000,2.734282958984375,9.719645500183105,1.703689694404602,-0.3696911036968231
1772572759178119200,2.752119140625,9.791430473327637,1.770688772201538,-0.3122633695602417
1772572759195954000,2.769953857421875,9.829715728759766,1.7138592004776,-0.3074777126312256
1772572759213789700,2.787789794921875,9.77707290649414,1.7228323221206665,-0.364905446767807
1772572759231624200,2.805624267578125,9.538389205932617,1.7599210739135742,-0.4325026869773865
1772572759249446000,2.82344580078125,9.509077072143555,1.8556339740753174,-0.35114672780036926
1772572759267296000,2.8412958984375,9.437891006469727,1.8167506456375122,-0.37028929591178894
1772572759285130500,2.859130615234375,9.490532875061035,1.8263218402862549,-0.3846462368965149
1772572759302965800,2.8769658203125,9.538389205932617,1.7838492393493652,-0.3367897868156433
1772572759320786200,2.8947861328125,9.547362327575684,1.7647067308425903,-0.4468596279621124
1772572759338636300,2.91263623046875,9.820143699645996,1.7186448574066162,-0.364905446767807
1772572759356472000,2.93047216796875,9.748359680175781,1.7276179790496826,-0.29850462079048157
1772572759374306800,2.948306884765625,9.567103385925293,1.7742780447006226,-0.3655036687850952
1772572759392142600,2.966142578125,9.480961799621582,1.721037745475769,-0.39900317788124084
1772572759409977000,2.98397705078125,9.55753231048584,1.7455641031265259,-0.32243284583091736
1772572759427813000,3.001813232421875,9.590433120727539,1.7748762369155884,-0.3080759048461914
1772572759445648400,3.0196484375,9.57188892364502,1.7168502807617188,-0.37507495284080505
1772572759463484200,3.037484130859375,9.609575271606445,1.731805443763733,-0.37507495284080505
1772572759481303800,3.0553037109375,9.590433120727539,1.7647067308425903,-0.3655036687850952
1772572759499149800,3.07314990234375,9.547362327575684,1.817348837852478,-0.3607180118560791
1772572759516977400,3.090977294921875,9.55214786529541,1.812563180923462,-0.3846462368965149
1772572759534825200,3.1088251953125,9.542576789855957,1.8556339740753174,-0.3367897868156433
1772572759552659700,3.12665966796875,9.556933403015137,1.8747764825820923,-0.355932354927063
1772572759570495500,3.14449560546875,9.652647018432617,1.8562321662902832,-0.3655036687850952
1772572759588330500,3.16233056640625,9.714859962463379,1.8035900592803955,-0.40797626972198486
1772572759606166300,3.180166259765625,9.590433120727539,1.8029918670654297,-0.40378883481025696
1772572759623998000,3.197998046875,9.657432556152344,1.913659930229187,-0.355932354927063
1772572759641840000,3.215840087890625,9.742975234985352,1.8616160154342651,-0.32243284583091736
1772572759659671800,3.233671875,9.556933403015137,1.7886348962783813,-0.42293140292167664
1772572759677507800,3.2515078125,9.375677108764648,1.8113667964935303,-0.45643091201782227
1772572759695342600,3.269342529296875,9.356534957885742,1.8735800981521606,-0.3613162338733673
1772572759713178600,3.2871787109375,9.470791816711426,1.9172492027282715,-0.26560330390930176
1772572759730998000,3.304998046875,9.471389770507812,1.8837496042251587,-0.2847459018230438
1772572759748841500,3.322841552734375,9.585647583007812,1.7647067308425903,-0.3846462368965149
1772572759766684000,3.340683837890625,9.762716293334961,1.679761528968811,-0.364905446767807
1772572759784519700,3.358519775390625,9.729216575622559,1.794616937637329,-0.2602194547653198
1772572759802354400,3.3763544921875,9.44746208190918,1.8741782903671265,-0.3086741268634796
1772572759820178000,3.394177978515625,9.284749984741211,1.85383939743042,-0.39481574296951294
1772572759838025200,3.412025146484375,9.313464164733887,1.8592232465744019,-0.4091726839542389
1772572759855861000,3.429861083984375,9.490532875061035,1.8741782903671265,-0.3607180118560791
1772572759873696000,3.447696044921875,9.80518913269043,1.8478572368621826,-0.26500511169433594
1772572759891531500,3.465531494140625,9.833903312683105,1.8239290714263916,-0.2883351147174835
1772572759909362400,3.483362548828125,9.714859962463379,1.7653049230575562,-0.37926238775253296
1772572759927199500,3.501199462890625,9.524032592773438,1.8077775239944458,-0.3846462368965149
1772572759945037000,3.519037109375,9.571290969848633,1.9226330518722534,-0.3038884699344635
1772572759962876000,3.5368759765625,9.915258407592773,1.8628123998641968,-0.2548356056213379
1772572759980706300,3.554706298828125,9.948758125305176,1.7336000204086304,-0.25004997849464417
1772572759998545200,3.572545166015625,9.519247055053711,1.8077775239944458,-0.3367897868156433
1772572760016378400,3.59037841796875,9.251250267028809,1.9399809837341309,-0.3475574851036072
1772572760034214100,3.608214111328125,9.356534957885742,1.9453648328781128,-0.3086741268634796
1772572760052048600,3.626048583984375,9.604789733886719,1.8801604509353638,-0.29850462079048157
1772572760069884700,3.643884765625,9.628718376159668,1.7509479522705078,-0.3607180118560791
1772572760087719400,3.661719482421875,9.466604232788086,1.7497515678405762,-0.45643091201782227
1772572760105543200,3.679543212890625,9.332606315612793,1.8448662757873535,-0.4043870270252228
1772572760123390000,3.697389892578125,9.56650447845459,1.9848463535308838,-0.2512463629245758
1772572760141225700,3.715225830078125,9.757332801818848,1.8759729862213135,-0.25064817070961
1772572760159061200,3.733061279296875,9.667003631591797,1.7653049230575562,-0.3601198196411133
1772572760176896800,3.750896728515625,9.437891006469727,1.7688941955566406,-0.4899304509162903
1772572760194731800,3.768731689453125,9.390034675598145,1.8592232465744019,-0.3756731450557709
1772572760212567600,3.786567626953125,9.55214786529541,1.9561325311660767,-0.275174617767334
1772572760230402000,3.804402099609375,9.638289451599121,1.8993029594421387,-0.29371899366378784
1772572760248238300,3.82223828125,9.667003631591797,1.784447431564331,-0.4133601188659668
1772572760266072800,3.84007275390625,9.67657470703125,1.7270197868347168,-0.4414757788181305
1772572760283908600,3.85790869140625,9.619147300720215,1.82273268699646,-0.34636107087135315
1772572760301743400,3.875743408203125,9.7005033493042,1.9040886163711548,-0.2841476798057556
1772572760319579100,3.8935791015625,9.705288887023926,1.856830358505249,-0.2793620526790619
1772572760337414100,3.9114140625,9.66221809387207,1.82273268699646,-0.37507495284080505
1772572760355250200,3.929250244140625,9.442676544189453,1.8646070957183838,-0.3798605799674988
1772572760373085000,3.9470849609375,9.418149948120117,1.9411773681640625,-0.39481574296951294
1772572760390920400,3.96492041015625,9.40917682647705,1.9166508913040161,-0.3852444589138031
1772572760408755500,3.98275537109375,9.40917682647705,1.887937068939209,-0.40378883481025696
1772572760426591200,4.00059130859375,9.46181869506836,1.9028922319412231,-0.36610186100006104
1772572760444421400,4.01842138671875,9.547362327575684,1.9178473949432373,-0.31345975399017334
1772572760462266400,4.036266357421875,9.619147300720215,1.8843477964401245,-0.355932354927063
1772572760480096800,4.0540966796875,9.643074989318848,1.8370895385742188,-0.39900317788124084
1772572760497933000,4.07193310546875,9.647860527038574,1.8323038816452026,-0.3798605799674988
1772572760515767600,4.089767578125,9.643074989318848,1.8945173025131226,-0.34636107087135315
1772572760533603000,4.10760302734375,9.571290969848633,1.8843477964401245,-0.3655036687850952
1772572760551437800,4.125437744140625,9.7005033493042,1.851446509361267,-0.39421752095222473
1772572760569273600,4.143273681640625,9.628718376159668,1.8035900592803955,-0.34636107087135315
1772572760587108600,4.161108642578125,9.528220176696777,1.9028922319412231,-0.4181457459926605
1772572760604943000,4.178943115234375,9.53779125213623,1.836491346359253,-0.42293140292167664
1772572760622780400,4.196780517578125,9.604789733886719,1.9226330518722534,-0.3607180118560791
1772572760640615000,4.214614990234375,9.44746208190918,1.9124635457992554,-0.34217363595962524
1772572760658450200,4.2324501953125,9.485149383544922,1.9124635457992554,-0.42831525206565857
1772572760676286000,4.250285888671875,9.471389770507812,1.898106575012207,-0.39481574296951294
1772572760694121000,4.268120849609375,9.53779125213623,1.9178473949432373,-0.389431893825531
1772572760711956200,4.285956298828125,9.44746208190918,1.893320918083191,-0.3756731450557709
1772572760729791200,4.303791259765625,9.437891006469727,1.9124635457992554,-0.39481574296951294
1772572760747627300,4.321627197265625,9.667003631591797,1.8897316455841064,-0.31764721870422363
1772572760765461800,4.339461669921875,9.671789169311523,1.8370895385742188,-0.2793620526790619
1772572760783298000,4.357298095703125,9.485747337341309,1.835893154144287,-0.40378883481025696
1772572760801132500,4.375132568359375,9.399605751037598,1.8352949619293213,-0.44745782017707825
1772572760818968600,4.392968505859375,9.595218658447266,1.8699909448623657,-0.39421752095222473
1772572760836803300,4.41080322265625,9.862616539001465,1.8095721006393433,-0.29790642857551575
1772572760854638800,4.428638916015625,9.79083251953125,1.8041882514953613,-0.3361915946006775
1772572760872473900,4.446473876953125,9.480961799621582,1.831107497215271,-0.42293140292167664
1772572760890309600,4.4643095703125,9.437292098999023,1.9555343389511108,-0.32303106784820557
1772572760908131800,4.4821318359375,9.609575271606445,2.0141584873199463,-0.21296121180057526
1772572760925980200,4.499980224609375,9.671789169311523,1.9280169010162354,-0.27038896083831787
1772572760943815400,4.5178154296875,9.542576789855957,1.908276081085205,-0.3613162338733673
1772572760961651000,4.53565087890625,9.643074989318848,1.9663020372390747,-0.2799602448940277
1772572760979485400,4.5534853515625,9.786046028137207,1.8999011516571045,-0.2793620526790619
1772572760997321700,4.57132177734375,9.55753231048584,1.7694923877716064,-0.4995017349720001
1772572761015156500,4.589156494140625,9.428318977355957,1.6821542978286743,-0.6664010882377625
1772572761032992300,4.6069921875,9.466604232788086,1.7539390325546265,-0.6329016089439392
1772572761050826800,4.62482666015625,9.667003631591797,1.817348837852478,-0.5324030518531799
1772572761068662500,4.64266259765625,9.667003631591797,1.784447431564331,-0.4893322288990021
1772572761086497500,4.66049755859375,9.457033157348633,1.8161523342132568,-0.5521438121795654
1772572761104333600,4.67833349609375,9.523433685302734,1.8454644680023193,-0.542572557926178
1772572761122162700,4.69616259765625,9.734002113342285,1.7988044023513794,-0.4749752879142761
1772572761140003800,4.71400390625,9.796216011047363,1.7084753513336182,-0.5228317379951477
1772572761157838800,4.7318388671875,9.55753231048584,1.6875381469726562,-0.6089733839035034
1772572761175675000,4.7496748046875,9.294919967651367,1.724626898765564,-0.666999340057373
1772572761193509600,4.767509521484375,9.318249702453613,1.85383939743042,-0.5575276613235474
1772572761211345200,4.78534521484375,9.43310546875,1.9268203973770142,-0.380458801984787
1772572761229180000,4.803179931640625,9.480362892150879,1.9411773681640625,-0.380458801984787
1772572761247016200,4.82101611328125,9.571290969848633,1.903490424156189,-0.4325026869773865
1772572761264850000,4.838849853515625,9.829116821289062,1.8137595653533936,-0.37926238775253296
1772572761282687500,4.8566875,9.571290969848633,1.8460626602172852,-0.42293140292167664
1772572761300521500,4.874521484375,9.332606315612793,1.968694806098938,-0.44745782017707825
1772572761318354700,4.892354736328125,9.313464164733887,1.9974087476730347,-0.37148571014404297
1772572761336194600,4.910194580078125,9.390034675598145,1.9214365482330322,-0.41874396800994873
1772572761354027800,4.92802783203125,9.614361763000488,1.8317056894302368,-0.45164528489112854
1772572761371862500,4.945862548828125,9.781859397888184,1.8137595653533936,-0.37028929591178894
1772572761389698300,4.9636982421875,9.66221809387207,1.9471594095230103,-0.2847459018230438
1772572761407533000,4.981532958984375,9.604789733886719,1.970489501953125,-0.3278166949748993
1772572761425368800,4.999368896484375,9.671789169311523,1.908874273300171,-0.34636107087135315
1772572761443203800,5.017203857421875,9.590433120727539,1.8795621395111084,-0.42293140292167664
1772572761461039400,5.035039306640625,9.475577354431152,1.9411773681640625,-0.42293140292167664
1772572761478871800,5.052871826171875,9.480362892150879,1.989033818244934,-0.39481574296951294
1772572761496700400,5.070700439453125,9.485149383544922,2.0656042098999023,-0.380458801984787
1772572761514534000,5.088533935546875,9.53779125213623,1.989033818244934,-0.42831525206565857
1772572761532383200,5.10638330078125,9.523433685302734,1.9363917112350464,-0.4660021960735321
1772572761550203400,5.124203369140625,9.413962364196777,1.9645073413848877,-0.4618147611618042
1772572761568052000,5.142052001953125,9.600004196166992,1.9369899034500122,-0.39900317788124084
1772572761585876000,5.1598759765625,9.66221809387207,1.8945173025131226,-0.3798605799674988
1772572761603722000,5.177721923828125,9.500103950500488,1.835893154144287,-0.5042873620986938
1772572761621557000,5.195556884765625,9.46181869506836,1.8406788110733032,-0.48035913705825806
1772572761639388400,5.213388427734375,9.57607650756836,1.8556339740753174,-0.39421752095222473
1772572761657227800,5.231227783203125,9.738788604736328,1.8807586431503296,-0.32243284583091736
1772572761675063600,5.2490634765625,9.714859962463379,1.8753747940063477,-0.3415754437446594
1772572761692898300,5.266898193359375,9.518648147583008,1.9172492027282715,-0.36610186100006104
1772572761710733800,5.28473388671875,9.413962364196777,1.9645073413848877,-0.39481574296951294
1772572761728565800,5.302565673828125,9.499505996704102,1.984248161315918,-0.3565305769443512
1772572761746408000,5.320407958984375,9.69511890411377,2.0141584873199463,-0.23210379481315613
1772572761764239400,5.3382392578125,9.633503913879395,2.0476579666137695,-0.2225325107574463
1772572761782072600,5.356072509765625,9.499505996704102,2.1134605407714844,-0.251844584941864
1772572761799912700,5.37391259765625,9.56650447845459,2.080559253692627,-0.24646073579788208
1772572761817746000,5.391745849609375,9.580862045288086,2.0614166259765625,-0.24167509377002716
1772572761835580400,5.409580322265625,9.351749420166016,2.1032910346984863,-0.31405797600746155
1772572761853416200,5.427416259765625,9.318249702453613,2.0745773315429688,-0.30927231907844543
1772572761871251200,5.445251220703125,9.470791816711426,2.05603289604187,-0.275174617767334
1772572761889086700,5.463086669921875,9.628718376159668,1.975873351097107,-0.2512463629245758
1772572761906921700,5.480921630859375,9.542576789855957,1.908276081085205,-0.2799602448940277
1772572761924757200,5.49875732421875,9.42353343963623,1.9363917112350464,-0.3517449200153351
1772572761942592300,5.51659228515625,9.385248184204102,1.9597218036651611,-0.30927231907844543
1772572761960428000,5.534427978515625,9.524032592773438,1.9369899034500122,-0.2991028428077698
1772572761978263000,5.552262939453125,9.595218658447266,1.8699909448623657,-0.2991028428077698
1772572761996098800,5.570098876953125,9.585647583007812,1.8795621395111084,-0.3278166949748993
1772572762013933800,5.587933837890625,9.542576789855957,1.8891334533691406,-0.33738797903060913
1772572762031769000,5.60576904296875,9.466604232788086,1.9507486820220947,-0.3038884699344635
1772572762049603800,5.623603759765625,9.356534957885742,2.108076810836792,-0.24227328598499298
1772572762067440000,5.641440185546875,9.390034675598145,2.045863389968872,-0.30927231907844543
1772572762085274600,5.659274658203125,9.556933403015137,1.9800606966018677,-0.3517449200153351
1772572762103110700,5.677110595703125,9.609575271606445,2.042274236679077,-0.29431718587875366
1772572762120945200,5.694945068359375,9.637691497802734,2.0811574459075928,-0.23210379481315613
1772572762138781200,5.71278125,9.752547264099121,2.038684844970703,-0.2847459018230438
1772572762156616000,5.730615966796875,9.771689414978027,2.0338993072509766,-0.26081767678260803
1772572762174452000,5.748451904296875,9.862616539001465,2.015354871749878,-0.25064817070961
1772572762192286200,5.7662861328125,10.04865837097168,2.107478618621826,-0.13579268753528595
1772572762210122000,5.7841220703125,10.0343017578125,2.0644078254699707,-0.13579268753528595
1772572762227957200,5.801957275390625,9.729216575622559,1.9519450664520264,-0.34217363595962524
1772572762245789700,5.819789794921875,9.370891571044922,1.9926230907440186,-0.519242525100708
1772572762263630800,5.837630859375,9.361320495605469,2.121835470199585,-0.4576273262500763
1772572762281463300,5.85546337890625,9.542576789855957,2.108675003051758,-0.3565305769443512
1772572762299301400,5.87330126953125,9.403793334960938,2.0889341831207275,-0.39541393518447876
1772572762317133600,5.891133544921875,9.246464729309082,2.0925233364105225,-0.4815555512905121
1772572762334965800,5.9089658203125,9.117850303649902,2.0679969787597656,-0.4863412082195282
1772572762352807700,5.9268076171875,9.141180992126465,2.1397817134857178,-0.47676992416381836
1772572762370639000,5.94463916015625,9.370293617248535,2.1170499324798584,-0.44805604219436646
1772572762388468500,5.962468505859375,9.456435203552246,1.9980069398880005,-0.47617170214653015
1772572762406309600,5.9803095703125,9.404391288757324,1.954936146736145,-0.5623133182525635
1772572762424138200,5.99813818359375,9.294321060180664,2.026122570037842,-0.4863412082195282
1772572762441980200,6.015980224609375,9.169894218444824,2.087737798690796,-0.47198426723480225
1772572762459816200,6.033816162109375,9.22253704071045,2.0685951709747314,-0.5581258535385132
1772572762477651200,6.051651123046875,9.489934921264648,2.0171494483947754,-0.5240281820297241
1772572762495487000,6.069487060546875,9.723833084106445,2.004587173461914,-0.3607180118560791
1772572762513322200,6.087322265625,9.699904441833496,2.0572292804718018,-0.31345975399017334
1772572762531157500,6.105157470703125,9.623334884643555,2.0997018814086914,-0.37088751792907715
1772572762548992000,6.122991943359375,9.699904441833496,2.0715861320495605,-0.39900317788124084
1772572762566828300,6.140828369140625,9.771689414978027,2.042872428894043,-0.39900317788124084
1772572762584662800,6.158662841796875,9.499505996704102,2.05603289604187,-0.3900300860404968
1772572762602498600,6.17649853515625,9.365508079528809,2.2031915187835693,-0.4001995921134949
1772572762620333000,6.1943330078125,9.461220741271973,2.1708884239196777,-0.3188436031341553
1772572762638169000,6.212169189453125,9.518648147583008,2.15653133392334,-0.28534409403800964
1772572762656003600,6.230003662109375,9.355937004089355,2.194218397140503,-0.29012975096702576
1772572762673839600,6.247839599609375,9.41336441040039,2.1367905139923096,-0.31405797600746155
1772572762691674000,6.265674072265625,9.456435203552246,2.022533416748047,-0.380458801984787
1772572762709510000,6.283510009765625,9.600004196166992,2.032702922821045,-0.2991028428077698
1772572762727345000,6.301344970703125,9.690333366394043,2.076371908187866,-0.21296121180057526
1772572762745181000,6.319180908203125,9.494720458984375,2.0656042098999023,-0.2805584669113159
1772572762763015400,6.337015380859375,9.42353343963623,2.0171494483947754,-0.3810569941997528
1772572762780851200,6.354851318359375,9.580862045288086,2.0709879398345947,-0.2847459018230438
1772572762798686200,6.372686279296875,9.738189697265625,2.115255117416382,-0.1746760457754135
1772572762816522500,6.3905224609375,9.456435203552246,2.1230318546295166,-0.251844584941864
1772572762834344200,6.40834423828125,9.22253704071045,2.2025933265686035,-0.30987054109573364
1772572762852180000,6.426179931640625,9.265607833862305,2.2510478496551514,-0.22851456701755524
1772572762870030000,6.444030029296875,9.509077072143555,2.2235305309295654,-0.20877377688884735
1772572762887867100,6.4618671875,9.609575271606445,2.090130567550659,-0.24646073579788208
1772572762905683200,6.47968310546875,9.394221305847168,2.117648124694824,-0.3284149169921875
1772572762923536100,6.4975361328125,9.322437286376953,2.3084757328033447,-0.21415762603282928
1772572762941365000,6.515364990234375,9.475577354431152,2.328814744949341,-0.17108681797981262
1772572762959207200,6.533207275390625,9.675976753234863,2.1577277183532715,-0.2183450609445572
1772572762977038800,6.551038818359375,9.628718376159668,2.0614166259765625,-0.34695929288864136
1772572762994873900,6.568873779296875,9.518648147583008,2.11824631690979,-0.3613162338733673
1772572763012710100,6.586710205078125,9.418149948120117,2.194218397140503,-0.3044866919517517
1772572763030545000,6.604544921875,9.403793334960938,2.2085752487182617,-0.3044866919517517
1772572763048380000,6.6223798828125,9.523433685302734,2.108675003051758,-0.380458801984787
1772572763066214400,6.64021435546875,9.652647018432617,2.0709879398345947,-0.36610186100006104
1772572763084048600,6.658048583984375,9.81954574584961,2.0817556381225586,-0.29431718587875366
1772572763101890300,6.675890380859375,9.742975234985352,2.042872428894043,-0.3086741268634796
1772572763119719200,6.69371923828125,9.404391288757324,2.069791555404663,-0.41934216022491455
1772572763137557000,6.711556884765625,9.318249702453613,2.1649062633514404,-0.39541393518447876
1772572763155391200,6.72939111328125,9.53779125213623,2.1134605407714844,-0.28534409403800964
1772572763173227000,6.74722705078125,9.595218658447266,2.094916343688965,-0.30927231907844543
1772572763191061800,6.765061767578125,9.45164966583252,2.0554347038269043,-0.3858426511287689
1772572763208897500,6.7828974609375,9.428318977355957,2.0410776138305664,-0.34277185797691345
1772572763226732500,6.800732666015625,9.346963882446289,2.1511476039886475,-0.30927231907844543
1772572763244568000,6.818568115234375,9.494720458984375,2.1948165893554688,-0.2757728099822998
1772572763262402800,6.83640283203125,9.675976753234863,2.0859432220458984,-0.3038884699344635
1772572763280238300,6.85423828125,9.623932838439941,2.0470597743988037,-0.2799602448940277
1772572763298073900,6.872073974609375,9.475577354431152,2.103889226913452,-0.3188436031341553
1772572763315909400,6.889909423828125,9.504291534423828,2.1278176307678223,-0.2997010350227356
1772572763333744000,6.907744140625,9.68076229095459,2.0955145359039307,-0.29431718587875366
1772572763351580000,6.925579833984375,9.757332801818848,2.038684844970703,-0.2847459018230438
1772572763369410600,6.94341064453125,9.585647583007812,2.0039889812469482,-0.3756731450557709
1772572763387250200,6.961250244140625,9.399605751037598,2.0745773315429688,-0.3810569941997528
1772572763405085200,6.979085205078125,9.332606315612793,2.145763635635376,-0.3475574851036072
1772572763422921000,6.9969208984375,9.480362892150879,2.18045973777771,-0.2997010350227356
1772572763440755200,7.014755126953125,9.671789169311523,2.0715861320495605,-0.275174617767334
1772572763458591500,7.032591552734375,9.638289451599121,2.008774518966675,-0.3517449200153351
1772572763476424400,7.050424560546875,9.513862609863281,2.0608184337615967,-0.34277185797691345
1772572763494251000,7.0682509765625,9.470791816711426,2.1278176307678223,-0.3044866919517517
1772572763512083200,7.086083251953125,9.53779125213623,2.084746837615967,-0.31405797600746155
1772572763529934800,7.103934814453125,9.509077072143555,2.022533416748047,-0.37148571014404297
1772572763547764000,7.121763916015625,9.40917682647705,1.9980069398880005,-0.37148571014404297
1772572763565606100,7.139606201171875,9.327820777893066,2.1607189178466797,-0.2667997181415558
1772572763583437600,7.1574375,9.375677108764648,2.1750757694244385,-0.25244277715682983
1772572763601273000,7.175273193359375,9.499505996704102,2.0895323753356934,-0.2949153780937195
1772572763619108000,7.193108154296875,9.571290969848633,2.0470597743988037,-0.3044866919517517
1772572763636944000,7.21094384765625,9.647860527038574,2.0811574459075928,-0.2273181527853012
1772572763654778600,7.228778564453125,9.528220176696777,2.1230318546295166,-0.26141586899757385
1772572763672614100,7.2466142578125,9.461220741271973,2.1230318546295166,-0.3188436031341553
1772572763690449000,7.264448974609375,9.485149383544922,2.142174482345581,-0.26620152592658997
1772572763708284400,7.282284423828125,9.403793334960938,2.1750757694244385,-0.29012975096702576
1772572763726119400,7.300119384765625,9.380462646484375,2.132004976272583,-0.3284149169921875
1772572763743955700,7.317955810546875,9.499505996704102,2.1278176307678223,-0.2805584669113159
1772572763761790000,7.3357900390625,9.489934921264648,2.2331018447875977,-0.22791635990142822
1772572763779625700,7.353625732421875,9.623334884643555,2.166700839996338,-0.23748764395713806
1772572763797460700,7.371460693359375,9.595218658447266,2.0853450298309326,-0.3278166949748993
1772572763815296500,7.389296630859375,9.55214786529541,2.070389747619629,-0.37088751792907715
1772572763833131300,7.40713134765625,9.518648147583008,2.132603168487549,-0.3284149169921875
1772572763850966800,7.424966796875,9.504291534423828,2.1948165893554688,-0.29012975096702576
1772572763868801800,7.4428017578125,9.494720458984375,2.0895323753356934,-0.357128769159317
1772572763886638300,7.460638427734375,9.509077072143555,2.032104730606079,-0.4139583110809326
1772572763904471300,7.47847119140625,9.600004196166992,2.0470597743988037,-0.37088751792907715
1772572763922307800,7.496307861328125,9.652647018432617,2.104487419128418,-0.2847459018230438
1772572763940142600,7.514142578125,9.53779125213623,2.108675003051758,-0.36191442608833313
1772572763957978000,7.53197802734375,9.489934921264648,2.0751755237579346,-0.42352959513664246
1772572763975812900,7.549812744140625,9.489934921264648,2.103889226913452,-0.3762713670730591
1772572763993648600,7.567648681640625,9.509077072143555,2.1613171100616455,-0.3236292600631714
1772572764011483100,7.585483154296875,9.389435768127441,2.170290231704712,-0.36191442608833313
1772572764029315000,7.603315185546875,9.403793334960938,2.1511476039886475,-0.3762713670730591
1772572764047154200,7.621154296875,9.509077072143555,2.1517457962036133,-0.3523431420326233
1772572764064987100,7.638987060546875,9.475577354431152,2.1708884239196777,-0.33798620104789734
1772572764082827000,7.656826904296875,9.327820777893066,2.1984057426452637,-0.3529413342475891
1772572764100660200,7.67466015625,9.136395454406738,2.1828525066375732,-0.381655216217041
1772572764118495000,7.692494873046875,9.203393936157227,2.173879384994507,-0.4055834412574768
1772572764136330500,7.71033056640625,9.494720458984375,2.05603289604187,-0.3332005441188812
1772572764154165200,7.728165283203125,9.46181869506836,2.079961061477661,-0.30927231907844543
1772572764172001000,7.7460009765625,9.42772102355957,2.1415762901306152,-0.2997010350227356
1772572764189824300,7.76382421875,9.609575271606445,2.1571295261383057,-0.2566302418708801
1772572764207654100,7.781654052734375,9.753145217895508,2.0673987865448,-0.22791635990142822
1772572764225489000,7.799489013671875,9.633503913879395,2.0518453121185303,-0.31405797600746155
1772572764243342000,7.817342041015625,9.55214786529541,2.1278176307678223,-0.2757728099822998
1772572764261175600,7.835175537109375,9.657432556152344,2.162513494491577,-0.18963119387626648
1772572764279014000,7.853013916015625,9.714262008666992,2.152942180633545,-0.23270200192928314
1772572764296847400,7.870847412109375,9.480362892150879,2.1708884239196777,-0.2709871530532837
1772572764314683100,7.88868310546875,9.30867862701416,2.160120725631714,-0.3529413342475891
1772572764332517600,7.906517578125,9.390034675598145,2.146361827850342,-0.34277185797691345
1772572764350353200,7.924353271484375,9.485149383544922,2.1230318546295166,-0.3523431420326233
1772572764368188400,7.9421884765625,9.53779125213623,2.1708884239196777,-0.2949153780937195
1772572764386021000,7.960021240234375,9.623932838439941,2.1619153022766113,-0.24227328598499298
1772572764403861500,7.977861572265625,9.56650447845459,2.0614166259765625,-0.3517449200153351
1772572764421691100,7.995691162109375,9.56650447845459,2.0368902683258057,-0.39481574296951294
1772572764439532000,8.013531982421876,9.523433685302734,2.0656042098999023,-0.37088751792907715
1772572764457364700,8.03136474609375,9.494720458984375,2.190030813217163,-0.2566302418708801
1772572764475199500,8.049199462890625,9.45164966583252,2.15653133392334,-0.2949153780937195
1772572764493035500,8.067035400390624,9.475577354431152,2.108675003051758,-0.3523431420326233
1772572764510869800,8.084869873046875,9.628718376159668,2.1092731952667236,-0.2566302418708801
1772572764528705800,8.102705810546874,9.494720458984375,2.1948165893554688,-0.24287149310112
1772572764546540800,8.120540771484375,9.939187049865723,2.077568292617798,-0.24646073579788208
1772572764564376300,8.138376220703124,9.475577354431152,2.069791555404663,-0.4049852192401886
1772572764582210800,8.1562109375,9.456435203552246,2.1607189178466797,-0.36670008301734924
1772572764600046600,8.174046630859374,9.4660062789917,2.132004976272583,-0.3858426511287689
1772572764617881600,8.191881591796875,9.638289451599121,2.090130567550659,-0.4618147611618042
1772572764635705000,8.209705078125,9.771689414978027,2.1003000736236572,-0.3613162338733673
1772572764653540400,8.227540283203124,9.742975234985352,2.1481566429138184,-0.3326023519039154
1772572764671387600,8.2453876953125,9.4660062789917,2.1415762901306152,-0.4863412082195282
1772572764689218800,8.26321875,9.40917682647705,2.073979139328003,-0.6149554252624512
1772572764707058200,8.28105810546875,9.542576789855957,2.0171494483947754,-0.6622136831283569
