time,seconds_elapsed,z,y,x
1772536712741211600,0.068211669921875,-1.0177459716796875,-0.274261474609375,-0.0082244873046875
1772536712751260700,0.0782607421875,-1.0099029541015625,-0.26531982421875,0.00054931640625
1772536712761309700,0.088309814453125,-1.0079193115234375,-0.264678955078125,0.0123748779296875
1772536712771358700,0.098358642578125,-1.00030517578125,-0.2686614990234375,0.0096282958984375
1772536712781407500,0.108407470703125,-0.9726409912109375,-0.2662200927734375,0.011260986328125
1772536712791456800,0.118456787109375,-0.9442138671875,-0.264007568359375,0.016693115234375
1772536712801504500,0.12850439453125,-0.927154541015625,-0.266357421875,0.0184783935546875
1772536712811553800,0.1385537109375,-0.9095611572265625,-0.2655792236328125,0.025299072265625
1772536712821602600,0.1486025390625,-0.891082763671875,-0.265411376953125,0.0484161376953125
1772536712831651600,0.158651611328125,-0.8900146484375,-0.269622802734375,0.0663604736328125
1772536712841700600,0.16870068359375,-0.8920440673828125,-0.2779083251953125,0.071563720703125
1772536712851749600,0.17874951171875,-0.879974365234375,-0.28033447265625,0.0771636962890625
1772536712861797600,0.188797607421875,-0.87664794921875,-0.2791595458984375,0.094482421875
1772536712871846700,0.1988466796875,-0.8917236328125,-0.2938690185546875,0.102325439453125
1772536712881895700,0.208895751953125,-0.900787353515625,-0.3076934814453125,0.10296630859375
1772536712891944700,0.21894482421875,-0.904022216796875,-0.309906005859375,0.1023101806640625
1772536712901993700,0.22899365234375,-0.9013214111328125,-0.3110809326171875,0.1018218994140625
1772536712912042500,0.23904248046875,-0.9128265380859375,-0.312347412109375,0.10504150390625
1772536712922090800,0.2490908203125,-0.938812255859375,-0.309112548828125,0.102996826171875
1772536712932139500,0.259139404296875,-0.9419708251953125,-0.302001953125,0.0848388671875
1772536712942188800,0.269188720703125,-0.9319610595703125,-0.28948974609375,0.0727081298828125
1772536712952237600,0.279237548828125,-0.937530517578125,-0.278717041015625,0.0694427490234375
1772536712962286600,0.28928662109375,-0.944732666015625,-0.274139404296875,0.0630340576171875
1772536712972335600,0.299335693359375,-0.938507080078125,-0.271270751953125,0.0556793212890625
1772536712982383600,0.309383544921875,-0.9327850341796875,-0.270294189453125,0.0599212646484375
1772536712992432600,0.3194326171875,-0.9353790283203125,-0.2744293212890625,0.065155029296875
1772536713002481700,0.329481689453125,-0.9164581298828125,-0.2794952392578125,0.05816650390625
1772536713012530700,0.33953076171875,-0.889251708984375,-0.283416748046875,0.0644378662109375
1772536713022579700,0.349579833984375,-0.8889007568359375,-0.2885589599609375,0.0740509033203125
1772536713032628700,0.359628662109375,-0.890533447265625,-0.29901123046875,0.07861328125
1772536713042676700,0.3696767578125,-0.879730224609375,-0.306549072265625,0.0859375
1772536713052725500,0.3797255859375,-0.8756866455078125,-0.3119354248046875,0.0964813232421875
1772536713062774800,0.38977490234375,-0.8824920654296875,-0.316009521484375,0.0977935791015625
1772536713072823800,0.39982373046875,-0.8715362548828125,-0.31536865234375,0.0878753662109375
1772536713082872600,0.40987255859375,-0.8587493896484375,-0.31353759765625,0.0850677490234375
1772536713092921900,0.419921875,-0.8710784912109375,-0.3148651123046875,0.085968017578125
1772536713102969600,0.429969482421875,-0.8845977783203125,-0.319091796875,0.0823974609375
1772536713113018600,0.4400185546875,-0.87811279296875,-0.32037353515625,0.074249267578125
1772536713123067600,0.450067626953125,-0.863372802734375,-0.3238525390625,0.0753326416015625
1772536713133116700,0.46011669921875,-0.8722686767578125,-0.329315185546875,0.0792388916015625
1772536713143165700,0.470165771484375,-0.890533447265625,-0.34033203125,0.0760498046875
1772536713153214700,0.480214599609375,-0.90185546875,-0.3497161865234375,0.071868896484375
1772536713163263500,0.490263427734375,-0.896881103515625,-0.3466949462890625,0.064056396484375
1772536713173311700,0.500311767578125,-0.8889312744140625,-0.348358154296875,0.0621185302734375
1772536713183360500,0.510360595703125,-0.89764404296875,-0.3564605712890625,0.06011962890625
1772536713193409800,0.520409912109375,-0.9078521728515625,-0.3594512939453125,0.059906005859375
1772536713203458600,0.53045849609375,-0.904327392578125,-0.35736083984375,0.05517578125
1772536713213507600,0.540507568359375,-0.9008026123046875,-0.360137939453125,0.05010986328125
1772536713223556900,0.550556884765625,-0.9071197509765625,-0.37237548828125,0.0468902587890625
1772536713233604600,0.5606044921875,-0.9173126220703125,-0.392303466796875,0.065460205078125
1772536713243654000,0.57065380859375,-0.946380615234375,-0.407257080078125,0.0677337646484375
1772536713253702700,0.58070263671875,-0.9634552001953125,-0.415863037109375,0.0685882568359375
1772536713263751700,0.590751708984375,-0.9738311767578125,-0.412078857421875,0.06195068359375
1772536713273800700,0.60080078125,-0.9893646240234375,-0.406982421875,0.050750732421875
1772536713283849700,0.610849609375,-1.009124755859375,-0.3962249755859375,0.0444183349609375
1772536713293897700,0.620897705078125,-1.0238037109375,-0.3821258544921875,0.0330047607421875
1772536713303946800,0.63094677734375,-1.0242462158203125,-0.3671417236328125,0.0137481689453125
1772536713313995500,0.64099560546875,-1.0233306884765625,-0.352294921875,-0.0023651123046875
1772536713324044800,0.651044921875,-1.030517578125,-0.3502655029296875,-0.0054168701171875
1772536713334093600,0.661093505859375,-1.024810791015625,-0.358978271484375,-0.0037384033203125
1772536713344142600,0.671142578125,-1.0201416015625,-0.3693389892578125,0.0061492919921875
1772536713354190600,0.681190673828125,-1.0369110107421875,-0.3782958984375,0.0176849365234375
1772536713364239600,0.691239501953125,-1.0654296875,-0.389862060546875,0.0293121337890625
1772536713374288600,0.70128857421875,-1.0803070068359375,-0.3978271484375,0.0296478271484375
1772536713384337700,0.711337646484375,-1.0753936767578125,-0.394073486328125,0.021636962890625
1772536713394386700,0.72138671875,-1.0705718994140625,-0.3802947998046875,0.000732421875
1772536713404435700,0.731435791015625,-1.068084716796875,-0.346710205078125,-0.0138397216796875
1772536713414486800,0.74148681640625,-1.0594940185546875,-0.317474365234375,-0.0382080078125
1772536713424535800,0.751535888671875,-1.0343780517578125,-0.3065948486328125,-0.0549468994140625
1772536713434584800,0.761584716796875,-1.010406494140625,-0.294219970703125,-0.056396484375
1772536713444633600,0.771633544921875,-0.9947052001953125,-0.28497314453125,-0.0555267333984375
1772536713454683000,0.781682861328125,-0.9792938232421875,-0.271514892578125,-0.0550384521484375
1772536713464731600,0.791731689453125,-0.974090576171875,-0.2588348388671875,-0.04388427734375
1772536713474780000,0.80177978515625,-0.961517333984375,-0.254425048828125,-0.03143310546875
1772536713484828700,0.81182861328125,-0.9445648193359375,-0.2552642822265625,-0.0214996337890625
1772536713494877700,0.821877685546875,-0.9361724853515625,-0.26007080078125,-0.0124053955078125
1772536713504926700,0.8319267578125,-0.9368438720703125,-0.2676239013671875,-0.007537841796875
1772536713514975700,0.841975830078125,-0.947235107421875,-0.273284912109375,-0.0120849609375
1772536713525024800,0.852024658203125,-0.9527435302734375,-0.278411865234375,-0.017181396484375
1772536713535073800,0.86207373046875,-0.9542388916015625,-0.2819671630859375,-0.025726318359375
1772536713545121800,0.872121826171875,-0.955657958984375,-0.2855987548828125,-0.036285400390625
1772536713555170800,0.8821708984375,-0.9573974609375,-0.2847137451171875,-0.044464111328125
1772536713565219800,0.8922197265625,-0.9593048095703125,-0.27899169921875,-0.05072021484375
1772536713575268900,0.902268798828125,-0.9748687744140625,-0.2777862548828125,-0.061004638671875
1772536713585318000,0.91231787109375,-0.9747314453125,-0.2730712890625,-0.062957763671875
1772536713595366700,0.92236669921875,-0.9739227294921875,-0.2702789306640625,-0.0649261474609375
1772536713605415000,0.932414794921875,-0.9676971435546875,-0.27313232421875,-0.0611572265625
1772536713615463700,0.942463623046875,-0.9514617919921875,-0.27752685546875,-0.060394287109375
1772536713625513000,0.952512939453125,-0.92987060546875,-0.276336669921875,-0.0535888671875
1772536713635561700,0.962561767578125,-0.9196624755859375,-0.278900146484375,-0.0425262451171875
1772536713645610800,0.97261083984375,-0.9159698486328125,-0.2873687744140625,-0.0342559814453125
1772536713655659800,0.98265966796875,-0.903961181640625,-0.298797607421875,-0.02874755859375
1772536713665707800,0.992707763671875,-0.884735107421875,-0.3091888427734375,-0.0261383056640625
1772536713675756800,1.0027568359375,-0.86431884765625,-0.3185882568359375,-0.0286712646484375
1772536713685805800,1.012805908203125,-0.860382080078125,-0.332305908203125,-0.019775390625
1772536713695854800,1.022854736328125,-0.85540771484375,-0.3489837646484375,-0.0182647705078125
1772536713705903900,1.03290380859375,-0.8465728759765625,-0.353118896484375,-0.011383056640625
1772536713715953000,1.042952880859375,-0.8381805419921875,-0.3609771728515625,-0.0101776123046875
1772536713726001700,1.053001708984375,-0.8506927490234375,-0.3740081787109375,-0.00372314453125
1772536713736050000,1.0630498046875,-0.8518524169921875,-0.3831939697265625,-0.0035400390625
1772536713746098700,1.0730986328125,-0.86309814453125,-0.3878173828125,0.0017242431640625
1772536713756148000,1.08314794921875,-0.875335693359375,-0.3946380615234375,0.00531005859375
1772536713766196700,1.09319677734375,-0.88348388671875,-0.3950347900390625,0.00531005859375
1772536713776245800,1.103245849609375,-0.90283203125,-0.3898773193359375,0.000518798828125
1772536713786294800,1.113294677734375,-0.9098358154296875,-0.3825225830078125,-0.006103515625
1772536713796342800,1.1233427734375,-0.910888671875,-0.3768310546875,-0.0142364501953125
1772536713806391800,1.133391845703125,-0.9140472412109375,-0.37689208984375,-0.0273284912109375
1772536713816440800,1.14344091796875,-0.917877197265625,-0.37371826171875,-0.035369873046875
1772536713826489600,1.153489501953125,-0.9121246337890625,-0.3735504150390625,-0.038055419921875
1772536713836539000,1.163538818359375,-0.90386962890625,-0.3778533935546875,-0.031951904296875
1772536713846588000,1.173587890625,-0.908721923828125,-0.38092041015625,-0.023651123046875
1772536713856636000,1.183635986328125,-0.911163330078125,-0.388702392578125,-0.0118408203125
1772536713866684700,1.1936845703125,-0.9075469970703125,-0.392242431640625,-0.005523681640625
1772536713876733700,1.203733642578125,-0.8970947265625,-0.3940582275390625,0.0008544921875
1772536713886783000,1.213782958984375,-0.8971405029296875,-0.4003143310546875,0.005950927734375
1772536713896831700,1.223831787109375,-0.9142913818359375,-0.4116973876953125,0.008941650390625
1772536713906880800,1.233880859375,-0.9251708984375,-0.420074462890625,0.0099945068359375
1772536713916928800,1.2439287109375,-0.9269561767578125,-0.4232940673828125,0.00860595703125
1772536713926977800,1.253977783203125,-0.9364776611328125,-0.42279052734375,0.00494384765625
1772536713937026800,1.26402685546875,-0.9544219970703125,-0.424530029296875,-0.00537109375
1772536713947075800,1.274075927734375,-0.9645233154296875,-0.422637939453125,-0.01385498046875
1772536713957124600,1.28412451171875,-0.9702911376953125,-0.4149627685546875,-0.0229034423828125
1772536713967174000,1.294173828125,-0.9788055419921875,-0.41064453125,-0.0287933349609375
1772536713977222700,1.30422265625,-0.996246337890625,-0.4086761474609375,-0.0325775146484375
1772536713987271000,1.31427099609375,-1.011077880859375,-0.4005279541015625,-0.037994384765625
1772536713997319700,1.324319580078125,-1.01531982421875,-0.3914947509765625,-0.0400543212890625
1772536714007368700,1.33436865234375,-1.012420654296875,-0.3843841552734375,-0.0352630615234375
1772536714017418000,1.34441796875,-1.00445556640625,-0.393829345703125,-0.0225067138671875
1772536714027466800,1.354466796875,-1.0066070556640625,-0.3993072509765625,-0.015289306640625
1772536714037515800,1.364515869140625,-1.0336456298828125,-0.3858184814453125,-0.007049560546875
1772536714047563800,1.374563720703125,-1.0524749755859375,-0.3759002685546875,-0.00103759765625
1772536714057612800,1.38461279296875,-1.0489349365234375,-0.3798370361328125,0.001953125
1772536714067661800,1.394661865234375,-1.0506134033203125,-0.3780059814453125,0.0037994384765625
1772536714077710800,1.4047109375,-1.0661163330078125,-0.36163330078125,0.0045928955078125
1772536714087759600,1.414759521484375,-1.0772552490234375,-0.34320068359375,-0.0019989013671875
1772536714097809000,1.424808837890625,-1.07733154296875,-0.3236541748046875,-0.0110931396484375
1772536714107857700,1.434857666015625,-1.055450439453125,-0.3020172119140625,-0.026123046875
1772536714117906000,1.444906005859375,-1.0396270751953125,-0.280792236328125,-0.0230255126953125
1772536714127954700,1.45495458984375,-1.0199432373046875,-0.273651123046875,-0.0195770263671875
1772536714138003700,1.465003662109375,-1.0038299560546875,-0.2617645263671875,-0.0186767578125
1772536714148052700,1.475052734375,-0.995849609375,-0.251129150390625,-0.0160064697265625
1772536714158101800,1.485101806640625,-0.9842376708984375,-0.2449798583984375,-0.0059356689453125
1772536714168150800,1.49515087890625,-0.974151611328125,-0.242431640625,0.0115966796875
1772536714178198800,1.50519873046875,-0.9596099853515625,-0.2502593994140625,0.0232391357421875
1772536714188247800,1.515247802734375,-0.93585205078125,-0.256683349609375,0.0293121337890625
1772536714198296800,1.525296875,-0.9211578369140625,-0.258270263671875,0.0389251708984375
1772536714208345900,1.535345947265625,-0.9249267578125,-0.2660980224609375,0.047332763671875
1772536714218395000,1.545394775390625,-0.923675537109375,-0.2752838134765625,0.0435333251953125
1772536714228444000,1.55544384765625,-0.9132080078125,-0.2796173095703125,0.0461273193359375
1772536714238492700,1.56549267578125,-0.9055938720703125,-0.2820587158203125,0.044891357421875
1772536714248541000,1.575541015625,-0.9115447998046875,-0.2856903076171875,0.05084228515625
1772536714258589700,1.585589599609375,-0.911102294921875,-0.29150390625,0.0457000732421875
1772536714268639000,1.595638916015625,-0.8985748291015625,-0.2908477783203125,0.050994873046875
1772536714278687700,1.605687744140625,-0.904388427734375,-0.2914886474609375,0.0599517822265625
1772536714288736800,1.61573681640625,-0.9192352294921875,-0.294921875,0.065216064453125
1772536714298785800,1.625785888671875,-0.9229278564453125,-0.2945556640625,0.063018798828125
1772536714308833800,1.635833740234375,-0.918731689453125,-0.2862396240234375,0.0581512451171875
1772536714318882800,1.6458828125,-0.919189453125,-0.2758331298828125,0.049530029296875
1772536714328931800,1.655931884765625,-0.92767333984375,-0.27117919921875,0.041046142578125
1772536714338980600,1.665980712890625,-0.9348907470703125,-0.2720489501953125,0.034454345703125
1772536714349030000,1.67602978515625,-0.9322967529296875,-0.2740631103515625,0.028289794921875
1772536714359079000,1.686078857421875,-0.92626953125,-0.2781982421875,0.0257568359375
1772536714369127000,1.696126953125,-0.92364501953125,-0.2830657958984375,0.0254058837890625
1772536714379176000,1.706176025390625,-0.9249420166015625,-0.2847137451171875,0.0268096923828125
1772536714389224700,1.716224609375,-0.9152069091796875,-0.285675048828125,0.0292205810546875
1772536714399274000,1.72627392578125,-0.8992156982421875,-0.285888671875,0.0341033935546875
1772536714409323000,1.736322998046875,-0.8839111328125,-0.292449951171875,0.0394134521484375
1772536714419372000,1.7463720703125,-0.8748321533203125,-0.29791259765625,0.0479583740234375
1772536714429421000,1.756421142578125,-0.8688812255859375,-0.3067169189453125,0.0553436279296875
1772536714439469000,1.766468994140625,-0.871185302734375,-0.316802978515625,0.05987548828125
1772536714449518000,1.77651806640625,-0.8787689208984375,-0.326019287109375,0.0641021728515625
1772536714459567000,1.786567138671875,-0.8835906982421875,-0.3291778564453125,0.063262939453125
1772536714469615900,1.796615966796875,-0.884735107421875,-0.32965087890625,0.06390380859375
1772536714479665200,1.8066650390625,-0.890472412109375,-0.33123779296875,0.063446044921875
1772536714489714000,1.8167138671875,-0.900482177734375,-0.329925537109375,0.05615234375
1772536714499762200,1.82676220703125,-0.9073486328125,-0.32537841796875,0.0484771728515625
1772536714509811000,1.83681103515625,-0.90887451171875,-0.3212432861328125,0.0449676513671875
1772536714519860000,1.84685986328125,-0.91802978515625,-0.319000244140625,0.0418853759765625
1772536714529909000,1.856908935546875,-0.9275360107421875,-0.31903076171875,0.038177490234375
1772536714539958000,1.8669580078125,-0.92822265625,-0.3172607421875,0.0328826904296875
1772536714550007000,1.877007080078125,-0.9256439208984375,-0.3237762451171875,0.0330810546875
1772536714560056000,1.88705615234375,-0.9259490966796875,-0.3291168212890625,0.0345916748046875
1772536714570103800,1.897103759765625,-0.938751220703125,-0.332611083984375,0.0361328125
1772536714580153000,1.907153076171875,-0.9439849853515625,-0.340667724609375,0.0383148193359375
1772536714590202000,1.9172021484375,-0.9490509033203125,-0.346099853515625,0.0389404296875
1772536714600251000,1.9272509765625,-0.9568939208984375,-0.3494415283203125,0.0379791259765625
1772536714610300200,1.937300048828125,-0.9576873779296875,-0.35528564453125,0.0355682373046875
1772536714620349000,1.947348876953125,-0.9527435302734375,-0.3606109619140625,0.0314788818359375
1772536714630398000,1.95739794921875,-0.950927734375,-0.3648834228515625,0.0324859619140625
1772536714640446000,1.967446044921875,-0.9568939208984375,-0.3675689697265625,0.0331573486328125
1772536714650495000,1.977494873046875,-0.9672393798828125,-0.3668365478515625,0.0267181396484375
1772536714660544000,1.9875439453125,-0.970977783203125,-0.361572265625,0.0244903564453125
1772536714670593000,1.997593017578125,-0.9693603515625,-0.3603363037109375,0.0268707275390625
1772536714680641800,2.007641845703125,-0.968505859375,-0.3612213134765625,0.0327911376953125
1772536714690691000,2.017691162109375,-0.9676055908203125,-0.35858154296875,0.032318115234375
1772536714700738800,2.02773876953125,-0.9608001708984375,-0.352447509765625,0.026397705078125
1772536714710788000,2.0377880859375,-0.9544525146484375,-0.3496246337890625,0.0276947021484375
1772536714720837000,2.047837158203125,-0.9572906494140625,-0.3633270263671875,0.0424041748046875
1772536714730886000,2.057885986328125,-0.9634246826171875,-0.391937255859375,0.05987548828125
1772536714740935200,2.06793505859375,-0.9817657470703125,-0.407501220703125,0.064483642578125
1772536714750984000,2.07798388671875,-1.009307861328125,-0.407501220703125,0.0603179931640625
1772536714761032200,2.0880322265625,-1.0387725830078125,-0.4013671875,0.04315185546875
1772536714771081000,2.0980810546875,-1.0613250732421875,-0.3961334228515625,0.01995849609375
1772536714781130000,2.1081298828125,-1.07061767578125,-0.385040283203125,-0.000396728515625
1772536714791179000,2.118178955078125,-1.0756988525390625,-0.3607177734375,-0.0226898193359375
1772536714801228000,2.12822802734375,-1.073272705078125,-0.3379058837890625,-0.0457305908203125
1772536714811276800,2.13827685546875,-1.0529022216796875,-0.3185882568359375,-0.059783935546875
1772536714821326000,2.148326171875,-1.0283355712890625,-0.3058624267578125,-0.0607147216796875
1772536714831373800,2.158373779296875,-0.999237060546875,-0.2984161376953125,-0.05694580078125
1772536714841423000,2.168423095703125,-0.9741058349609375,-0.2895660400390625,-0.04632568359375
1772536714851472000,2.178471923828125,-0.96148681640625,-0.2870941162109375,-0.0323333740234375
1772536714861521000,2.18852099609375,-0.9532623291015625,-0.2906036376953125,-0.017547607421875
1772536714871570200,2.198570068359375,-0.951751708984375,-0.2884521484375,-0.0085906982421875
1772536714881619000,2.208618896484375,-0.95220947265625,-0.283111572265625,-0.0056610107421875
1772536714891668000,2.21866796875,-0.9400177001953125,-0.2782135009765625,-0.00836181640625
1772536714901716000,2.228716064453125,-0.929229736328125,-0.2747955322265625,-0.0142822265625
1772536714911765000,2.238764892578125,-0.92071533203125,-0.273468017578125,-0.0241546630859375
1772536714921814000,2.24881396484375,-0.9155731201171875,-0.2738800048828125,-0.031524658203125
1772536714931863000,2.258863037109375,-0.9107818603515625,-0.28302001953125,-0.035797119140625
1772536714941911800,2.268911865234375,-0.9095916748046875,-0.2950592041015625,-0.032623291015625
1772536714951961000,2.278961181640625,-0.9124603271484375,-0.3057403564453125,-0.0302276611328125
1772536714962008800,2.2890087890625,-0.9117431640625,-0.3178253173828125,-0.0299530029296875
1772536714972058000,2.29905810546875,-0.9036865234375,-0.3244781494140625,-0.033355712890625
1772536714982107000,2.30910693359375,-0.913482666015625,-0.326934814453125,-0.0229949951171875
1772536714992156000,2.319156005859375,-0.92376708984375,-0.332427978515625,-0.020721435546875
1772536715002205000,2.329204833984375,-0.9280242919921875,-0.3323516845703125,-0.0188446044921875
1772536715012254000,2.33925390625,-0.92816162109375,-0.3289794921875,-0.02264404296875
1772536715022303200,2.34930322265625,-0.93304443359375,-0.32354736328125,-0.01812744140625
1772536715032351000,2.35935107421875,-0.94122314453125,-0.31890869140625,-0.0235137939453125
1772536715042400000,2.36939990234375,-0.92626953125,-0.314361572265625,-0.030426025390625
1772536715052449000,2.379448974609375,-0.9056396484375,-0.3081512451171875,-0.030303955078125
1772536715062498000,2.389498046875,-0.9021453857421875,-0.3112335205078125,-0.0253448486328125
1772536715072547000,2.399547119140625,-0.90576171875,-0.32452392578125,-0.0193328857421875
1772536715082596000,2.40959619140625,-0.9160308837890625,-0.3382415771484375,-0.005950927734375
1772536715092644900,2.419644775390625,-0.921112060546875,-0.3477325439453125,-0.0001068115234375
1772536715102693000,2.429693115234375,-0.9241485595703125,-0.3540802001953125,0.0023040771484375
1772536715112742000,2.439741943359375,-0.9218597412109375,-0.358184814453125,0.00238037109375
1772536715122791200,2.449791259765625,-0.924530029296875,-0.3607330322265625,0.0028533935546875
1772536715132840000,2.45983984375,-0.9338836669921875,-0.361358642578125,0.0044097900390625
1772536715142889000,2.469888916015625,-0.9352264404296875,-0.3603515625,-0.00164794921875
1772536715152938000,2.47993798828125,-0.924407958984375,-0.3517913818359375,-0.00732421875
1772536715162987000,2.489987060546875,-0.9304046630859375,-0.3451690673828125,-0.0124969482421875
1772536715173035000,2.500034912109375,-0.939300537109375,-0.3483734130859375,-0.018890380859375
1772536715183084000,2.510083984375,-0.9337615966796875,-0.35247802734375,-0.022308349609375
1772536715193133000,2.520133056640625,-0.92352294921875,-0.3478546142578125,-0.023956298828125
1772536715203182000,2.53018212890625,-0.91644287109375,-0.3480987548828125,-0.024169921875
1772536715213231000,2.540231201171875,-0.9143524169921875,-0.3545379638671875,-0.022064208984375
1772536715223279900,2.55027978515625,-0.9089508056640625,-0.3593902587890625,-0.0161895751953125
1772536715233329200,2.5603291015625,-0.894805908203125,-0.3666534423828125,-0.008514404296875
1772536715243377000,2.570376953125,-0.884124755859375,-0.37176513671875,-0.0063018798828125
1772536715253426200,2.58042626953125,-0.8779144287109375,-0.37359619140625,-0.003936767578125
1772536715263475000,2.590474853515625,-0.8724822998046875,-0.3747100830078125,0.002227783203125
1772536715273524000,2.60052392578125,-0.869293212890625,-0.3778839111328125,0.0082550048828125
1772536715283573000,2.610572998046875,-0.8624725341796875,-0.383636474609375,0.0139617919921875
1772536715293622000,2.6206220703125,-0.86334228515625,-0.387969970703125,0.02032470703125
1772536715303670000,2.630669921875,-0.8832244873046875,-0.3907318115234375,0.0250396728515625
1772536715313719000,2.640718994140625,-0.9091644287109375,-0.3953704833984375,0.02325439453125
1772536715323767800,2.650767822265625,-0.9310150146484375,-0.3995513916015625,0.0157318115234375
1772536715333817000,2.660817138671875,-0.945587158203125,-0.3964996337890625,0.0074920654296875
1772536715343866000,2.6708662109375,-0.959808349609375,-0.39227294921875,-0.004852294921875
1772536715353915000,2.680914794921875,-0.9810028076171875,-0.388458251953125,-0.019989013671875
1772536715363964200,2.690964111328125,-1.00787353515625,-0.38629150390625,-0.0312347412109375
1772536715374012000,2.701011962890625,-1.0328826904296875,-0.3858795166015625,-0.037689208984375
1772536715384061200,2.711061279296875,-1.040740966796875,-0.3838653564453125,-0.0559844970703125
1772536715394110000,2.72110986328125,-1.0354461669921875,-0.3702239990234375,-0.0666046142578125
1772536715404159000,2.731158935546875,-1.0293731689453125,-0.3585357666015625,-0.0702667236328125
1772536715414208300,2.741208251953125,-1.02386474609375,-0.3554534912109375,-0.06646728515625
1772536715424257300,2.75125732421875,-1.0018310546875,-0.357086181640625,-0.0517578125
1772536715434306300,2.761306396484375,-0.981353759765625,-0.3700714111328125,-0.024566650390625
1772536715444354300,2.771354248046875,-0.985076904296875,-0.38006591796875,-0.0044403076171875
1772536715454403300,2.7814033203125,-0.9985504150390625,-0.3774261474609375,0.0107269287109375
1772536715464452400,2.791452392578125,-1.0053558349609375,-0.37274169921875,0.030242919921875
1772536715474501400,2.80150146484375,-1.0117645263671875,-0.3787841796875,0.0417022705078125
1772536715484550100,2.811550048828125,-1.0118408203125,-0.3806610107421875,0.0377960205078125
1772536715494599400,2.821599365234375,-1.0142059326171875,-0.3645782470703125,0.02587890625
1772536715504648200,2.831648193359375,-1.019134521484375,-0.3425140380859375,0.0114593505859375
1772536715514696400,2.841696533203125,-1.029541015625,-0.3204498291015625,-0.0057373046875
1772536715524745200,2.8517451171875,-1.0206146240234375,-0.3028564453125,-0.01953125
1772536715534794200,2.861794189453125,-1.002777099609375,-0.288177490234375,-0.0292816162109375
1772536715544843300,2.87184326171875,-0.9910430908203125,-0.2740936279296875,-0.028472900390625
1772536715554892300,2.881892333984375,-0.9857025146484375,-0.263397216796875,-0.0254364013671875
1772536715564941300,2.89194140625,-0.979217529296875,-0.25433349609375,-0.0204925537109375
1772536715574989300,2.9019892578125,-0.969512939453125,-0.248809814453125,-0.014007568359375
1772536715585038000,2.9120380859375,-0.9584503173828125,-0.246856689453125,-0.00311279296875
1772536715595087400,2.92208740234375,-0.951416015625,-0.2509918212890625,0.0101470947265625
1772536715605136400,2.932136474609375,-0.943695068359375,-0.2554168701171875,0.015045166015625
1772536715615185200,2.94218505859375,-0.9301910400390625,-0.2569732666015625,0.0130157470703125
1772536715625234400,2.952234375,-0.93310546875,-0.2600555419921875,0.01171875
1772536715635283200,2.962283203125,-0.9476776123046875,-0.2661285400390625,0.0079193115234375
1772536715645331500,2.97233154296875,-0.956939697265625,-0.2724151611328125,0.0028076171875
1772536715655380200,2.982380126953125,-0.9492645263671875,-0.2713470458984375,-0.0052947998046875
1772536715665429200,2.99242919921875,-0.9370574951171875,-0.267547607421875,-0.011322021484375
1772536715675478300,3.002478271484375,-0.9368438720703125,-0.2718505859375,-0.01531982421875
1772536715685527300,3.01252734375,-0.9342041015625,-0.2813873291015625,-0.014617919921875
1772536715695576000,3.022576171875,-0.9378509521484375,-0.283111572265625,-0.011993408203125
1772536715705625300,3.032625244140625,-0.9376983642578125,-0.2947845458984375,-0.0111083984375
1772536715715673000,3.042673095703125,-0.9361114501953125,-0.3052520751953125,-0.013153076171875
1772536715725722400,3.052722412109375,-0.938232421875,-0.3055419921875,-0.0120849609375
1772536715735771100,3.062771240234375,-0.94061279296875,-0.3073883056640625,-0.01116943359375
1772536715745820200,3.072820068359375,-0.9408416748046875,-0.3119049072265625,-0.0157470703125
1772536715755869400,3.082869384765625,-0.93896484375,-0.3140716552734375,-0.0236358642578125
1772536715765918200,3.092918212890625,-0.9292755126953125,-0.314544677734375,-0.026336669921875
1772536715775967200,3.10296728515625,-0.9162445068359375,-0.3162078857421875,-0.029541015625
1772536715786015200,3.11301513671875,-0.9130706787109375,-0.3206329345703125,-0.03173828125
1772536715796064300,3.123064208984375,-0.909332275390625,-0.318206787109375,-0.0281524658203125
1772536715806113300,3.13311328125,-0.9037628173828125,-0.313934326171875,-0.024658203125
1772536715816162300,3.143162353515625,-0.8946990966796875,-0.308837890625,-0.0209197998046875
1772536715826211300,3.15321142578125,-0.8826751708984375,-0.30810546875,-0.0160369873046875
1772536715836260400,3.16326025390625,-0.8662567138671875,-0.311126708984375,-0.0068511962890625
1772536715846309000,3.17330908203125,-0.8565826416015625,-0.3171234130859375,0.0056610107421875
1772536715856357400,3.183357421875,-0.856475830078125,-0.32568359375,0.0182037353515625
1772536715866406100,3.19340625,-0.8629302978515625,-0.3342132568359375,0.0262603759765625
1772536715876455400,3.203455322265625,-0.8660430908203125,-0.336883544921875,0.026397705078125
1772536715886504200,3.213504150390625,-0.869781494140625,-0.334747314453125,0.0337982177734375
1772536715896553200,3.22355322265625,-0.887115478515625,-0.3422088623046875,0.03460693359375
1772536715906602500,3.2336025390625,-0.8992919921875,-0.3450927734375,0.026824951171875
1772536715916651300,3.2436513671875,-0.89544677734375,-0.339874267578125,0.0207977294921875
1772536715926699500,3.253699462890625,-0.89971923828125,-0.3365631103515625,0.015655517578125
1772536715936748300,3.263748291015625,-0.922210693359375,-0.3385467529296875,0.0164947509765625
1772536715946797300,3.27379736328125,-0.9429168701171875,-0.3422393798828125,0.0118865966796875
1772536715956846300,3.283846435546875,-0.952484130859375,-0.3410186767578125,0.01025390625
1772536715966895400,3.293895263671875,-0.9530792236328125,-0.3431549072265625,0.0069122314453125
1772536715976944000,3.303944091796875,-0.951171875,-0.346527099609375,0.0014801025390625
1772536715986993400,3.313993408203125,-0.9553985595703125,-0.352630615234375,0.004669189453125
1772536715997041200,3.324041259765625,-0.956146240234375,-0.3582305908203125,0.00048828125
1772536716007090400,3.33409033203125,-0.959716796875,-0.3575592041015625,0.0068511962890625
1772536716017139200,3.34413916015625,-0.963134765625,-0.36419677734375,0.0086669921875
1772536716027188200,3.354188232421875,-0.9586029052734375,-0.372406005859375,0.0071868896484375
1772536716037237500,3.364237548828125,-0.9511566162109375,-0.3746185302734375,0.006805419921875
1772536716047286300,3.374286376953125,-0.953826904296875,-0.3800811767578125,0.0126495361328125
1772536716057335300,3.384335205078125,-0.9695587158203125,-0.38629150390625,0.01336669921875
1772536716067383300,3.39438330078125,-0.9766082763671875,-0.384796142578125,0.008026123046875
1772536716077432300,3.404432373046875,-0.9763946533203125,-0.3790435791015625,0.0037689208984375
1772536716087481300,3.4144814453125,-0.9786376953125,-0.3738555908203125,-0.004913330078125
1772536716097530400,3.4245302734375,-0.9774017333984375,-0.368682861328125,-0.013031005859375
1772536716107579100,3.4345791015625,-0.97613525390625,-0.3620147705078125,-0.012603759765625
1772536716117628400,3.44462841796875,-0.9738922119140625,-0.359771728515625,-0.01348876953125
1772536716127677200,3.45467724609375,-0.9690399169921875,-0.35791015625,-0.014312744140625
1772536716137725400,3.464725341796875,-0.9647979736328125,-0.3518218994140625,-0.016998291015625
1772536716147774200,3.474774169921875,-0.959381103515625,-0.3487548828125,-0.0190887451171875
1772536716157823200,3.4848232421875,-0.9523468017578125,-0.348968505859375,-0.017913818359375
1772536716167872300,3.494872314453125,-0.951141357421875,-0.355072021484375,-0.015869140625
1772536716177921300,3.50492138671875,-0.9496612548828125,-0.3662567138671875,-0.0094146728515625
1772536716187970300,3.51497021484375,-0.9430999755859375,-0.380584716796875,-0.0001373291015625
1772536716198019300,3.525019287109375,-0.9439239501953125,-0.392120361328125,0.0057830810546875
1772536716208067000,3.535067138671875,-0.9568634033203125,-0.400848388671875,0.0052337646484375
1772536716218116400,3.545116455078125,-0.96966552734375,-0.4069976806640625,0.0069427490234375
1772536716228165400,3.555165283203125,-0.986297607421875,-0.41259765625,0.0105438232421875
1772536716238214100,3.565214111328125,-0.9936065673828125,-0.4132232666015625,-0.0000457763671875
1772536716248263400,3.575263427734375,-0.9984588623046875,-0.400970458984375,-0.000762939453125
1772536716258312200,3.585312255859375,-1.0020904541015625,-0.38348388671875,-0.0182342529296875
1772536716268360400,3.5953603515625,-0.9980621337890625,-0.361602783203125,-0.0351715087890625
1772536716278409200,3.6054091796875,-0.9973297119140625,-0.3447265625,-0.046600341796875
1772536716288458200,3.615458251953125,-0.992919921875,-0.32708740234375,-0.0523529052734375
1772536716298507300,3.62550732421875,-0.98468017578125,-0.3076171875,-0.05889892578125
1772536716308556300,3.635556396484375,-0.9746246337890625,-0.29217529296875,-0.06317138671875
1772536716318605300,3.645605224609375,-0.970123291015625,-0.2814178466796875,-0.0611114501953125
1772536716328654300,3.655654296875,-0.96343994140625,-0.27679443359375,-0.05615234375
1772536716338703400,3.665703369140625,-0.9518585205078125,-0.275665283203125,-0.0514678955078125
1772536716348751400,3.67575146484375,-0.94866943359375,-0.2757415771484375,-0.043701171875
1772536716358800100,3.685800048828125,-0.963897705078125,-0.2794647216796875,-0.0359039306640625
1772536716368849200,3.69584912109375,-0.974029541015625,-0.285919189453125,-0.037445068359375
1772536716378898400,3.7058984375,-0.969757080078125,-0.290496826171875,-0.045013427734375
1772536716388947200,3.715947265625,-0.9723663330078125,-0.291717529296875,-0.0471343994140625
1772536716398996500,3.72599658203125,-0.9835052490234375,-0.29791259765625,-0.0532073974609375
1772536716409044200,3.736044189453125,-0.986328125,-0.3042755126953125,-0.0598297119140625
1772536716419092700,3.7460927734375,-0.9820709228515625,-0.30389404296875,-0.0592193603515625
1772536716429141800,3.756141845703125,-0.9766845703125,-0.30560302734375,-0.056976318359375
1772536716439190800,3.766190673828125,-0.968414306640625,-0.3095245361328125,-0.0529327392578125
1772536716449239800,3.77623974609375,-0.9540863037109375,-0.3096923828125,-0.045989990234375
1772536716459288800,3.786288818359375,-0.933990478515625,-0.3105316162109375,-0.0351409912109375
1772536716469337600,3.796337646484375,-0.9208831787109375,-0.3152618408203125,-0.0233612060546875
1772536716479387000,3.806386962890625,-0.9100189208984375,-0.3200225830078125,-0.012939453125
1772536716489434600,3.8164345703125,-0.8941802978515625,-0.32159423828125,-0.009674072265625
1772536716499484000,3.82648388671875,-0.88134765625,-0.3233489990234375,-0.0050506591796875
1772536716509532700,3.83653271484375,-0.8725128173828125,-0.3327484130859375,0.0003204345703125
1772536716519581700,3.846581787109375,-0.8681182861328125,-0.3406524658203125,0.005279541015625
1772536716529630700,3.856630615234375,-0.869293212890625,-0.34332275390625,0.0054473876953125
1772536716539679700,3.8666796875,-0.867919921875,-0.3451690673828125,0.0047760009765625
1772536716549728500,3.876728515625,-0.8652496337890625,-0.34765625,0.002838134765625
1772536716559776800,3.88677685546875,-0.869049072265625,-0.3482513427734375,-0.0008544921875
1772536716569825500,3.896825439453125,-0.86761474609375,-0.345489501953125,-0.008209228515625
1772536716579874800,3.906874755859375,-0.864227294921875,-0.341033935546875,-0.017242431640625
1772536716589923800,3.916923828125,-0.8617706298828125,-0.338958740234375,-0.0243072509765625
1772536716599972600,3.92697265625,-0.859954833984375,-0.339019775390625,-0.0287933349609375
1772536716610022000,3.93702197265625,-0.8584136962890625,-0.3411712646484375,-0.0305633544921875
1772536716620070700,3.947070556640625,-0.8634490966796875,-0.3437652587890625,-0.03271484375
1772536716630119000,3.957118896484375,-0.87396240234375,-0.3512115478515625,-0.0322265625
1772536716640167700,3.967167724609375,-0.8856048583984375,-0.359344482421875,-0.0294036865234375
1772536716650216700,3.977216796875,-0.8900604248046875,-0.3653106689453125,-0.0335235595703125
1772536716660265700,3.987265625,-0.8916778564453125,-0.3709259033203125,-0.033660888671875
1772536716670314800,3.997314697265625,-0.89794921875,-0.37457275390625,-0.0340423583984375
1772536716680363800,4.00736376953125,-0.903717041015625,-0.37506103515625,-0.03338623046875
1772536716690411800,4.017411865234375,-0.9077301025390625,-0.3753814697265625,-0.031463623046875
1772536716700460800,4.027460693359375,-0.917816162109375,-0.371307373046875,-0.0335235595703125
1772536716710509800,4.037509765625,-0.9273834228515625,-0.37359619140625,-0.03216552734375
1772536716720558600,4.04755859375,-0.9293975830078125,-0.3772430419921875,-0.0250396728515625
1772536716730607900,4.05760791015625,-0.937347412109375,-0.3825531005859375,-0.022308349609375
1772536716740657000,4.067656982421875,-0.9481201171875,-0.3844757080078125,-0.021820068359375
1772536716750705700,4.07770556640625,-0.9604949951171875,-0.384185791015625,-0.022552490234375
1772536716760753700,4.087753662109375,-0.9714508056640625,-0.385467529296875,-0.0237579345703125
1772536716770802700,4.097802734375,-0.9798736572265625,-0.3880157470703125,-0.0250396728515625
1772536716780852000,4.10785205078125,-0.989288330078125,-0.3885955810546875,-0.0254364013671875
1772536716790900700,4.117900634765625,-0.9955596923828125,-0.3959197998046875,-0.0366363525390625
1772536716800949800,4.12794970703125,-0.9979248046875,-0.3899078369140625,-0.046295166015625
1772536716810998800,4.137998779296875,-1.0144195556640625,-0.38226318359375,-0.04937744140625
1772536716821047800,4.1480478515625,-1.0369110107421875,-0.3797607421875,-0.0530242919921875
1772536716831096600,4.1580966796875,-1.0437774658203125,-0.3746490478515625,-0.0656585693359375
1772536716841144800,4.168144775390625,-1.034423828125,-0.36163330078125,-0.0596923828125
1772536716851193600,4.178193603515625,-1.0114898681640625,-0.3669586181640625,-0.0606689453125
1772536716861243000,4.188242919921875,-0.9942169189453125,-0.3701324462890625,-0.04547119140625
1772536716871291600,4.198291748046875,-1.0119476318359375,-0.3679962158203125,-0.027252197265625
1772536716881340700,4.208340576171875,-1.0341033935546875,-0.368682861328125,-0.0133819580078125
1772536716891390000,4.218389892578125,-1.045501708984375,-0.3654327392578125,-0.004425048828125
1772536716901437700,4.228437744140625,-1.037567138671875,-0.3613739013671875,-0.001800537109375
1772536716911487000,4.238487060546875,-1.023895263671875,-0.3518829345703125,-0.003021240234375
1772536716921535700,4.24853564453125,-1.02520751953125,-0.3314208984375,-0.0081634521484375
1772536716931584800,4.258584716796875,-1.0356292724609375,-0.3061676025390625,-0.0173797607421875
1772536716941633800,4.2686337890625,-1.032379150390625,-0.2846221923828125,-0.0291290283203125
1772536716951682800,4.278682861328125,-1.010986328125,-0.269500732421875,-0.03558349609375
1772536716961731600,4.288731689453125,-0.98687744140625,-0.259063720703125,-0.0360565185546875
1772536716971779800,4.29877978515625,-0.972412109375,-0.2455596923828125,-0.039947509765625
1772536716981828600,4.30882861328125,-0.96441650390625,-0.2370147705078125,-0.03741455078125
1772536716991878000,4.3188779296875,-0.953155517578125,-0.23468017578125,-0.0340576171875
1772536717001926700,4.3289267578125,-0.936859130859375,-0.2358551025390625,-0.0305328369140625
1772536717011975700,4.3389755859375,-0.91461181640625,-0.249267578125,-0.0184326171875
1772536717022024700,4.349024658203125,-0.8963775634765625,-0.2690277099609375,0.0004425048828125
1772536717032073700,4.35907373046875,-0.9005126953125,-0.2863922119140625,0.008331298828125
1772536717042121700,4.369121826171875,-0.907745361328125,-0.296600341796875,0.0184326171875
1772536717052170800,4.379170654296875,-0.9272613525390625,-0.3105316162109375,0.02972412109375
1772536717062219800,4.3892197265625,-0.933441162109375,-0.315673828125,0.0287017822265625
1772536717072268800,4.399268798828125,-0.9217529296875,-0.311981201171875,0.024810791015625
1772536717082317800,4.40931787109375,-0.9120941162109375,-0.3079376220703125,0.0175628662109375
1772536717092366600,4.41936669921875,-0.9099273681640625,-0.30389404296875,0.013214111328125
1772536717102416000,4.429415771484375,-0.919952392578125,-0.300506591796875,0.014556884765625
1772536717112463600,4.439463623046875,-0.9266815185546875,-0.300933837890625,0.0130615234375
1772536717122513000,4.449512939453125,-0.9300079345703125,-0.3004913330078125,0.01104736328125
1772536717132561700,4.459561767578125,-0.9314422607421875,-0.297119140625,0.002288818359375
1772536717142610700,4.469610595703125,-0.93670654296875,-0.291961669921875,-0.004547119140625
1772536717152659700,4.47965966796875,-0.9472198486328125,-0.28900146484375,-0.008209228515625
1772536717162708700,4.489708740234375,-0.95697021484375,-0.290130615234375,-0.0087738037109375
1772536717172757800,4.4997578125,-0.954620361328125,-0.2892608642578125,-0.0159759521484375
1772536717182806800,4.509806884765625,-0.941619873046875,-0.2866668701171875,-0.0201416015625
1772536717192854500,4.5198544921875,-0.929840087890625,-0.2881317138671875,-0.0235595703125
1772536717202903800,4.52990380859375,-0.9280853271484375,-0.2861480712890625,-0.0222320556640625
1772536717212952800,4.539952880859375,-0.9251861572265625,-0.2879486083984375,-0.0219879150390625
1772536717223001600,4.550001708984375,-0.9132080078125,-0.292388916015625,-0.0225982666015625
1772536717233051000,4.56005078125,-0.90936279296875,-0.2928924560546875,-0.0154571533203125
1772536717243099600,4.570099609375,-0.915771484375,-0.3032989501953125,-0.00958251953125
1772536717253148000,4.58014794921875,-0.9149017333984375,-0.31640625,-0.002593994140625
1772536717263196700,4.59019677734375,-0.90948486328125,-0.32513427734375,0.0040435791015625
1772536717273245700,4.60024560546875,-0.90447998046875,-0.32952880859375,0.00933837890625
1772536717283294700,4.610294677734375,-0.89410400390625,-0.3352203369140625,0.013427734375
1772536717293343700,4.62034375,-0.88446044921875,-0.34039306640625,0.01812744140625
1772536717303392800,4.630392822265625,-0.88958740234375,-0.344085693359375,0.0240631103515625
1772536717313441800,4.64044189453125,-0.9032440185546875,-0.3477935791015625,0.0303192138671875
1772536717323489800,4.65048974609375,-0.912689208984375,-0.35162353515625,0.0296783447265625
1772536717333538800,4.660538818359375,-0.9150848388671875,-0.3517608642578125,0.025848388671875
1772536717343587600,4.670587646484375,-0.9220123291015625,-0.3512420654296875,0.023651123046875
1772536717353636900,4.680636962890625,-0.9261627197265625,-0.3523712158203125,0.0204315185546875
1772536717363686000,4.690685791015625,-0.9353485107421875,-0.34954833984375,0.0203399658203125
1772536717373734700,4.700734619140625,-0.9402618408203125,-0.3544769287109375,0.010986328125
1772536717383784000,4.710783935546875,-0.9304046630859375,-0.3531646728515625,0.00189208984375
1772536717393831700,4.720831787109375,-0.9324798583984375,-0.357879638671875,0.0037078857421875
1772536717403881000,4.730880859375,-0.935211181640625,-0.378509521484375,-0.0028228759765625
1772536717413926400,4.740926513671875,-0.923004150390625,-0.3820953369140625,0.00762939453125
1772536717423975400,4.750975341796875,-0.92767333984375,-0.387908935546875,0.0124969482421875
1772536717434024400,4.7610244140625,-0.9301605224609375,-0.399932861328125,0.0234375
1772536717444073500,4.771073486328125,-0.9398040771484375,-0.4082489013671875,0.0349884033203125
1772536717454122200,4.781122314453125,-0.949737548828125,-0.4099578857421875,0.039825439453125
1772536717464170500,4.79117041015625,-0.9525299072265625,-0.4074554443359375,0.039886474609375
1772536717474219300,4.80121923828125,-0.9603118896484375,-0.403564453125,0.035675048828125
1772536717484268500,4.8112685546875,-0.9632110595703125,-0.3972320556640625,0.02789306640625
1772536717494317600,4.821317626953125,-0.9697265625,-0.3845672607421875,0.024444580078125
1772536717504366300,4.831366455078125,-0.9741363525390625,-0.3712310791015625,0.011444091796875
1772536717514415600,4.84141552734375,-0.96588134765625,-0.3604583740234375,0.0093536376953125
1772536717524464400,4.85146435546875,-0.9636383056640625,-0.3513031005859375,0.0082855224609375
1772536717534512600,4.8615126953125,-0.97491455078125,-0.3461761474609375,0.002593994140625
1772536717544561400,4.8715615234375,-0.9827117919921875,-0.339996337890625,-0.003204345703125
1772536717554610400,4.8816103515625,-0.98919677734375,-0.3374786376953125,-0.0053863525390625
1772536717564659500,4.891659423828125,-0.9931182861328125,-0.3473968505859375,0.00677490234375
1772536717574708500,4.90170849609375,-1.0075836181640625,-0.3665008544921875,0.0121917724609375
1772536717584757200,4.91175732421875,-1.0229644775390625,-0.3791656494140625,0.011566162109375
1772536717594806500,4.921806640625,-1.035858154296875,-0.387725830078125,0.0056304931640625
1772536717604854300,4.931854248046875,-1.0519561767578125,-0.3885650634765625,-0.0006561279296875
1772536717614903600,4.941903564453125,-1.0579071044921875,-0.388641357421875,-0.0099639892578125
1772536717624952300,4.951952392578125,-1.04840087890625,-0.3892822265625,-0.01995849609375
1772536717635001300,4.96200146484375,-1.0537567138671875,-0.37274169921875,-0.036773681640625
1772536717645050600,4.972050537109375,-1.050811767578125,-0.3508758544921875,-0.0501251220703125
1772536717655099400,4.982099365234375,-1.030517578125,-0.339080810546875,-0.0559844970703125
1772536717665148400,4.9921484375,-1.0157623291015625,-0.327972412109375,-0.0565032958984375
1772536717675196400,5.002196533203125,-0.9944305419921875,-0.3173980712890625,-0.057220458984375
1772536717685245400,5.012245361328125,-0.9746856689453125,-0.3018951416015625,-0.0556182861328125
1772536717695294500,5.02229443359375,-0.967803955078125,-0.2839813232421875,-0.0561370849609375
1772536717705343500,5.032343505859375,-0.9623565673828125,-0.265960693359375,-0.053985595703125
1772536717715392300,5.042392333984375,-0.952117919921875,-0.2525634765625,-0.053558349609375
1772536717725441500,5.052441650390625,-0.931793212890625,-0.2491302490234375,-0.0467071533203125
1772536717735490300,5.062490234375,-0.9197845458984375,-0.2534637451171875,-0.0377960205078125
1772536717745538600,5.07253857421875,-0.92291259765625,-0.260406494140625,-0.0357818603515625
1772536717755587300,5.08258740234375,-0.9267120361328125,-0.26873779296875,-0.0379638671875
1772536717765636400,5.09263623046875,-0.9329986572265625,-0.2736053466796875,-0.0394744873046875
1772536717775685400,5.102685302734375,-0.943450927734375,-0.278076171875,-0.0427398681640625
1772536717785734400,5.112734375,-0.941925048828125,-0.2863311767578125,-0.04791259765625
1772536717795783400,5.122783447265625,-0.9345855712890625,-0.2923736572265625,-0.0558929443359375
1772536717805832400,5.13283251953125,-0.927703857421875,-0.29229736328125,-0.059326171875
1772536717815880200,5.142880126953125,-0.9239959716796875,-0.2942657470703125,-0.0549774169921875
1772536717825929500,5.152929443359375,-0.9264068603515625,-0.2984771728515625,-0.0479736328125
1772536717835978500,5.162978515625,-0.9263458251953125,-0.2993621826171875,-0.041595458984375
1772536717846027300,5.17302734375,-0.91131591796875,-0.2956085205078125,-0.0342559814453125
1772536717856076500,5.18307666015625,-0.8996429443359375,-0.295196533203125,-0.0236053466796875
1772536717866125300,5.193125244140625,-0.8975372314453125,-0.29559326171875,-0.0168609619140625
1772536717876174300,5.20317431640625,-0.8913726806640625,-0.29510498046875,-0.0124969482421875
1772536717886222300,5.213222412109375,-0.8831634521484375,-0.29864501953125,-0.0112152099609375
1772536717896271400,5.223271240234375,-0.883392333984375,-0.3067779541015625,-0.007293701171875
1772536717906320400,5.2333203125,-0.887451171875,-0.318084716796875,-0.00396728515625
1772536717916369400,5.243369384765625,-0.8884429931640625,-0.326416015625,-0.0033416748046875
1772536717926418400,5.25341845703125,-0.8868865966796875,-0.3289337158203125,-0.00518798828125
1772536717936467500,5.263467529296875,-0.885498046875,-0.32855224609375,-0.00811767578125
1772536717946516500,5.2735166015625,-0.879547119140625,-0.329345703125,-0.0114288330078125
1772536717956564500,5.283564453125,-0.8772125244140625,-0.33154296875,-0.0154266357421875
1772536717966613500,5.293613525390625,-0.86981201171875,-0.3375396728515625,-0.01544189453125
1772536717976662300,5.303662353515625,-0.8717041015625,-0.3487701416015625,-0.008087158203125
1772536717986711600,5.313711669921875,-0.8825836181640625,-0.352203369140625,-0.0121002197265625
1772536717996760300,5.32376025390625,-0.88897705078125,-0.357421875,-0.01141357421875
1772536718006808600,5.33380859375,-0.890777587890625,-0.360382080078125,-0.0100555419921875
1772536718016857300,5.343857421875,-0.8990020751953125,-0.3643951416015625,-0.0102691650390625
1772536718026906400,5.35390625,-0.90399169921875,-0.3706512451171875,-0.009033203125
1772536718036955400,5.363955322265625,-0.911346435546875,-0.37762451171875,-0.01031494140625
1772536718047004400,5.37400439453125,-0.918121337890625,-0.381072998046875,-0.0183868408203125
1772536718057053400,5.384053466796875,-0.91717529296875,-0.3838958740234375,-0.0254058837890625
1772536718067101400,5.394101318359375,-0.9243316650390625,-0.3844757080078125,-0.027618408203125
1772536718077150500,5.404150390625,-0.9311065673828125,-0.3826904296875,-0.0312042236328125
1772536718087199500,5.414199462890625,-0.9270172119140625,-0.384002685546875,-0.0363006591796875
1772536718097248300,5.424248291015625,-0.9136962890625,-0.3812103271484375,-0.0392608642578125
1772536718107297500,5.434297607421875,-0.9060211181640625,-0.3806610107421875,-0.0359039306640625
1772536718117346600,5.4443466796875,-0.9128570556640625,-0.390533447265625,-0.0284576416015625
1772536718127395300,5.454395263671875,-0.9246063232421875,-0.40716552734375,-0.022491455078125
1772536718137443300,5.464443359375,-0.934234619140625,-0.419921875,-0.0186920166015625
1772536718147492400,5.474492431640625,-0.947021484375,-0.4284210205078125,-0.0145416259765625
1772536718157541600,5.484541748046875,-0.9568023681640625,-0.434600830078125,-0.0171661376953125
1772536718167590400,5.49459033203125,-0.9649505615234375,-0.4349822998046875,-0.0190887451171875
1772536718177639400,5.504639404296875,-0.9767913818359375,-0.429473876953125,-0.025482177734375
1772536718187688400,5.5146884765625,-0.9875335693359375,-0.4188690185546875,-0.037994384765625
1772536718197737500,5.524737548828125,-0.999176025390625,-0.404632568359375,-0.05169677734375
1772536718207785500,5.534785400390625,-1.0146484375,-0.396148681640625,-0.0592193603515625
1772536718217834500,5.54483447265625,-1.012908935546875,-0.3919525146484375,-0.0528411865234375
1772536718227883300,5.55488330078125,-1.014129638671875,-0.39971923828125,-0.044708251953125
1772536718237932500,5.5649326171875,-1.01983642578125,-0.4010467529296875,-0.039337158203125
1772536718247981300,5.574981201171875,-1.05035400390625,-0.3906097412109375,-0.0303192138671875
1772536718258030300,5.5850302734375,-1.076324462890625,-0.37744140625,-0.0343475341796875
1772536718268079600,5.59507958984375,-1.0876922607421875,-0.357269287109375,-0.0404510498046875
1772536718278127400,5.60512744140625,-1.0859375,-0.3381195068359375,-0.0522003173828125
1772536718288176400,5.61517626953125,-1.0748138427734375,-0.31884765625,-0.0595550537109375
1772536718298225400,5.625225341796875,-1.064117431640625,-0.302032470703125,-0.0606536865234375
1772536718308274400,5.6352744140625,-1.051025390625,-0.284912109375,-0.0573577880859375
1772536718318323500,5.645323486328125,-1.031158447265625,-0.2822723388671875,-0.0528106689453125
1772536718328372500,5.65537255859375,-0.995025634765625,-0.2850494384765625,-0.0482177734375
1772536718338421200,5.665421142578125,-0.9780731201171875,-0.2853546142578125,-0.0240325927734375
1772536718348469500,5.675469482421875,-0.9883575439453125,-0.287933349609375,-0.004425048828125
1772536718358518300,5.685518310546875,-1.00238037109375,-0.2942657470703125,0.009857177734375
1772536718368567600,5.695567626953125,-1.0009765625,-0.292938232421875,0.0257720947265625
1772536718378616300,5.7056162109375,-0.9990234375,-0.2848358154296875,0.0361785888671875
1772536718388665300,5.715665283203125,-0.98126220703125,-0.2803497314453125,0.0292510986328125
1772536718398714400,5.72571435546875,-0.9570465087890625,-0.270599365234375,0.0222320556640625
1772536718408763400,5.735763427734375,-0.945648193359375,-0.261199951171875,0.0112762451171875
1772536718418815200,5.745815185546875,-0.938995361328125,-0.2628631591796875,0.00323486328125
1772536718428864000,5.755864013671875,-0.9351806640625,-0.2659912109375,0.0026397705078125
1772536718438913000,5.7659130859375,-0.93255615234375,-0.2695465087890625,0.0064697265625
1772536718448962000,5.775962158203125,-0.9283447265625,-0.276031494140625,0.0119781494140625
1772536718459011000,5.786010986328125,-0.923492431640625,-0.2821807861328125,0.0186767578125
1772536718469059800,5.796059814453125,-0.919891357421875,-0.288421630859375,0.0298614501953125
1772536718479109000,5.806109130859375,-0.920745849609375,-0.2939300537109375,0.0373687744140625
1772536718489156900,5.816156982421875,-0.9172821044921875,-0.29144287109375,0.0366058349609375
1772536718499206100,5.8262060546875,-0.9083404541015625,-0.285888671875,0.0413055419921875
1772536718509255000,5.8362548828125,-0.90863037109375,-0.2855377197265625,0.0464630126953125
1772536718519304000,5.846303955078125,-0.9234161376953125,-0.2844390869140625,0.0530548095703125
1772536718529353200,5.856353271484375,-0.92889404296875,-0.27813720703125,0.052032470703125
1772536718539402000,5.866402099609375,-0.9208221435546875,-0.2694244384765625,0.042755126953125
1772536718549451000,5.876450927734375,-0.91802978515625,-0.2604217529296875,0.034576416015625
1772536718559499000,5.8864990234375,-0.9225311279296875,-0.2609710693359375,0.0301971435546875
1772536718569548000,5.896548095703125,-0.92413330078125,-0.2657012939453125,0.0260772705078125
1772536718579597000,5.90659716796875,-0.9188385009765625,-0.2708892822265625,0.0263519287109375
1772536718589646000,5.91664599609375,-0.914642333984375,-0.2800140380859375,0.0295562744140625
1772536718599694800,5.92669482421875,-0.9175872802734375,-0.2921600341796875,0.031646728515625
1772536718609744100,5.936744140625,-0.914703369140625,-0.3030548095703125,0.0374755859375
1772536718619793000,5.94679296875,-0.906402587890625,-0.3118438720703125,0.0457305908203125
1772536718629841200,5.956841064453125,-0.899200439453125,-0.31829833984375,0.0525970458984375
1772536718639890000,5.966889892578125,-0.8990478515625,-0.3223114013671875,0.0560760498046875
1772536718649939000,5.97693896484375,-0.8978271484375,-0.326019287109375,0.0588531494140625
1772536718659988000,5.986988037109375,-0.892425537109375,-0.3264617919921875,0.0625457763671875
1772536718670037000,5.997037109375,-0.889984130859375,-0.3274688720703125,0.0650482177734375
1772536718680086000,6.0070859375,-0.8927001953125,-0.326812744140625,0.065185546875
1772536718690135000,6.017135009765625,-0.8969268798828125,-0.325775146484375,0.0660247802734375
1772536718700184000,6.02718408203125,-0.8967742919921875,-0.3289031982421875,0.0637969970703125
1772536718710233000,6.037233154296875,-0.8988800048828125,-0.3292083740234375,0.0616302490234375
1772536718720281000,6.047281005859375,-0.9036407470703125,-0.3324737548828125,0.0566864013671875
1772536718730330000,6.057330078125,-0.908477783203125,-0.3361663818359375,0.0522613525390625
1772536718740379100,6.067379150390625,-0.9143524169921875,-0.3421783447265625,0.0507049560546875
1772536718750428000,6.077427978515625,-0.9157257080078125,-0.3459014892578125,0.0472564697265625
1772536718760477200,6.087477294921875,-0.916351318359375,-0.3461761474609375,0.0467987060546875
1772536718770526000,6.09752587890625,-0.923370361328125,-0.3489990234375,0.048431396484375
1772536718780575000,6.107574951171875,-0.930419921875,-0.353485107421875,0.0440521240234375
1772536718790623000,6.117623046875,-0.928955078125,-0.3523406982421875,0.042236328125
1772536718800672000,6.127672119140625,-0.9337005615234375,-0.3547515869140625,0.040313720703125
1772536718810721300,6.13772119140625,-0.9405517578125,-0.3658905029296875,0.03564453125
1772536718820770000,6.14777001953125,-0.939300537109375,-0.3725738525390625,0.0308380126953125
1772536718830819000,6.157819091796875,-0.942962646484375,-0.375335693359375,0.0286712646484375
1772536718840868000,6.1678681640625,-0.954193115234375,-0.3795928955078125,0.0332794189453125
1772536718850917000,6.177917236328125,-0.9605865478515625,-0.381256103515625,0.0363006591796875
1772536718860965000,6.187965087890625,-0.9518585205078125,-0.3773193359375,0.0372161865234375
1772536718871014100,6.19801416015625,-0.9450531005859375,-0.3708953857421875,0.03656005859375
1772536718881063000,6.20806298828125,-0.9531402587890625,-0.3675079345703125,0.0375518798828125
1772536718891112200,6.2181123046875,-0.961181640625,-0.366943359375,0.0412139892578125
1772536718901161000,6.228160888671875,-0.961395263671875,-0.364959716796875,0.041412353515625
1772536718911210000,6.2382099609375,-0.9624176025390625,-0.360626220703125,0.039031982421875
1772536718921258000,6.248258056640625,-0.962677001953125,-0.350006103515625,0.0366973876953125
1772536718931307000,6.25830712890625,-0.9721832275390625,-0.3458251953125,0.030242919921875
1772536718941356000,6.26835595703125,-0.9753875732421875,-0.33770751953125,0.0279083251953125
1772536718951405000,6.278405029296875,-0.9781494140625,-0.331573486328125,0.0158843994140625
1772536718961454000,6.2884541015625,-0.9802398681640625,-0.3287506103515625,0.0079803466796875
1772536718971503000,6.298503173828125,-0.9756622314453125,-0.331512451171875,0.00396728515625
1772536718981552000,6.30855224609375,-0.9810028076171875,-0.3495330810546875,0.0039825439453125
1772536718991600000,6.31860009765625,-0.9840240478515625,-0.3586578369140625,0.0099334716796875
1772536719001649200,6.328649169921875,-0.988189697265625,-0.3692626953125,0.0054473876953125
1772536719011698000,6.338697998046875,-0.9915924072265625,-0.3780670166015625,0.0018463134765625
1772536719021747200,6.348747314453125,-1.009124755859375,-0.3825225830078125,-0.0068817138671875
1772536719031796000,6.3587958984375,-1.0192413330078125,-0.3857879638671875,-0.0170440673828125
1772536719041845000,6.368844970703125,-1.022247314453125,-0.3815155029296875,-0.0306854248046875
1772536719051894000,6.37889404296875,-1.0240936279296875,-0.36798095703125,-0.0460052490234375
1772536719061942000,6.38894189453125,-1.0173187255859375,-0.34600830078125,-0.06195068359375
1772536719071991000,6.398990966796875,-1.004150390625,-0.330291748046875,-0.070343017578125
1772536719082040000,6.4090400390625,-0.9887237548828125,-0.3183135986328125,-0.0753631591796875
1772536719092088800,6.4190888671875,-0.975006103515625,-0.303375244140625,-0.0756072998046875
1772536719102138000,6.42913818359375,-0.9667205810546875,-0.291259765625,-0.07598876953125
1772536719112187100,6.439187255859375,-0.9619293212890625,-0.28704833984375,-0.0730743408203125
1772536719122236000,6.44923583984375,-0.9526519775390625,-0.2912445068359375,-0.0690765380859375
1772536719132284000,6.459283935546875,-0.9447784423828125,-0.2978363037109375,-0.060791015625
1772536719142333000,6.4693330078125,-0.943145751953125,-0.3047943115234375,-0.0547332763671875
1772536719152382200,6.47938232421875,-0.9435882568359375,-0.3085174560546875,-0.0517120361328125
1772536719162431000,6.489430908203125,-0.9419097900390625,-0.3085479736328125,-0.052703857421875
1772536719172480000,6.49947998046875,-0.943115234375,-0.3109588623046875,-0.05609130859375
1772536719182529000,6.509529052734375,-0.9463958740234375,-0.312591552734375,-0.0597076416015625
1772536719192578000,6.519578125,-0.94622802734375,-0.3120880126953125,-0.0656890869140625
1772536719202626000,6.5296259765625,-0.9448394775390625,-0.3106231689453125,-0.0766754150390625
1772536719212675000,6.539675048828125,-0.9382781982421875,-0.3112640380859375,-0.08209228515625
1772536719222723800,6.549723876953125,-0.934661865234375,-0.3134613037109375,-0.0798187255859375
1772536719232773000,6.559773193359375,-0.9362640380859375,-0.319976806640625,-0.07342529296875
1772536719242822000,6.56982177734375,-0.9397125244140625,-0.3250579833984375,-0.0656890869140625
1772536719252871000,6.579870849609375,-0.9348297119140625,-0.3259124755859375,-0.0598602294921875
1772536719262919000,6.5899189453125,-0.9178924560546875,-0.3231658935546875,-0.0546722412109375
1772536719272968000,6.599968017578125,-0.90618896484375,-0.3181304931640625,-0.04766845703125
1772536719283017200,6.610017333984375,-0.8957672119140625,-0.316558837890625,-0.0423431396484375
1772536719293066000,6.62006591796875,-0.884552001953125,-0.318145751953125,-0.034942626953125
1772536719303115000,6.630114990234375,-0.88238525390625,-0.3180694580078125,-0.0312652587890625
1772536719313164000,6.6401640625,-0.8760986328125,-0.322113037109375,-0.0311279296875
1772536719323213000,6.650213134765625,-0.8760528564453125,-0.331268310546875,-0.023834228515625
1772536719333262000,6.660261962890625,-0.8838043212890625,-0.345123291015625,-0.0192413330078125
1772536719343310000,6.67031005859375,-0.8800506591796875,-0.3559417724609375,-0.012237548828125
1772536719353359000,6.680359130859375,-0.87579345703125,-0.36041259765625,-0.0083160400390625
1772536719363408100,6.690408203125,-0.8823089599609375,-0.364410400390625,-0.00421142578125
1772536719373457000,6.700456787109375,-0.891265869140625,-0.36822509765625,-0.000946044921875
1772536719383506200,6.710506103515625,-0.8969879150390625,-0.3670501708984375,-0.0029754638671875
1772536719393555000,6.720554931640625,-0.8971099853515625,-0.3673248291015625,-0.008392333984375
1772536719403603200,6.730603271484375,-0.89947509765625,-0.3668670654296875,-0.0131988525390625
1772536719413648400,6.7406484375,-0.9040679931640625,-0.36553955078125,-0.0171966552734375
1772536719423697200,6.750697265625,-0.9079437255859375,-0.3669281005859375,-0.0183868408203125
1772536719433746400,6.760746337890625,-0.9192962646484375,-0.3687591552734375,-0.019256591796875
1772536719443795200,6.770795166015625,-0.927001953125,-0.3703460693359375,-0.021697998046875
1772536719453844200,6.78084423828125,-0.9267120361328125,-0.3718109130859375,-0.0227508544921875
1772536719463893200,6.790893310546875,-0.9229888916015625,-0.3764495849609375,-0.0255279541015625
1772536719473941200,6.800941162109375,-0.9191741943359375,-0.380645751953125,-0.0253753662109375
1772536719483990300,6.810990234375,-0.9093170166015625,-0.3828582763671875,-0.025604248046875
1772536719494039300,6.821039306640625,-0.9067840576171875,-0.381439208984375,-0.0181121826171875
1772536719504088000,6.831088134765625,-0.906951904296875,-0.3834228515625,-0.0127716064453125
1772536719514137300,6.841137451171875,-0.8917999267578125,-0.3840179443359375,-0.005401611328125
1772536719524186000,6.85118603515625,-0.90478515625,-0.391448974609375,-0.002685546875
1772536719534235100,6.861235107421875,-0.909698486328125,-0.397430419921875,0.0096435546875
1772536719544283100,6.871283203125,-0.90850830078125,-0.3992156982421875,0.0125885009765625
1772536719554332200,6.881332275390625,-0.9154205322265625,-0.4035797119140625,0.007568359375
1772536719564381400,6.89138134765625,-0.9316864013671875,-0.404754638671875,0.0052642822265625
1772536719574430200,6.90143017578125,-0.94989013671875,-0.40618896484375,0.001495361328125
1772536719584479200,6.911479248046875,-0.9630126953125,-0.3997650146484375,-0.00775146484375
1772536719594528300,6.9215283203125,-0.9800872802734375,-0.3906097412109375,-0.019622802734375
1772536719604576300,6.931576171875,-0.993011474609375,-0.3768310546875,-0.031951904296875
1772536719614625300,6.941625244140625,-0.997833251953125,-0.37017822265625,-0.0416259765625
1772536719624674300,6.95167431640625,-0.9988555908203125,-0.3603363037109375,-0.03497314453125
1772536719634723000,6.96172314453125,-0.9730224609375,-0.3597259521484375,-0.0466461181640625
1772536719644772400,6.9717724609375,-0.9594573974609375,-0.3589019775390625,-0.0563812255859375
1772536719654821000,6.981821044921875,-0.9426116943359375,-0.3624420166015625,-0.027801513671875
1772536719664870100,6.9918701171875,-0.9424285888671875,-0.383819580078125,0.0011749267578125
1772536719674919400,7.00191943359375,-0.966156005859375,-0.4030303955078125,0.0118408203125
1772536719684967200,7.01196728515625,-0.98736572265625,-0.40185546875,0.025177001953125
1772536719695016200,7.02201611328125,-0.991485595703125,-0.3989715576171875,0.0322113037109375
1772536719705065200,7.032065185546875,-0.9965667724609375,-0.4120635986328125,0.0405120849609375
1772536719715114200,7.0421142578125,-1.0139007568359375,-0.4047088623046875,0.0337982177734375
1772536719725163300,7.052163330078125,-1.0177001953125,-0.3908538818359375,0.019073486328125
1772536719735212300,7.06221240234375,-1.0264129638671875,-0.371002197265625,0.00653076171875
1772536719745260300,7.07226025390625,-1.0342254638671875,-0.3489532470703125,-0.001495361328125
1772536719755309300,7.082309326171875,-1.038116455078125,-0.3325653076171875,-0.005950927734375
1772536719765358300,7.0923583984375,-1.035797119140625,-0.3177337646484375,-0.0073699951171875
1772536719775407400,7.102407470703125,-1.0262908935546875,-0.3028717041015625,-0.00750732421875
1772536719785456000,7.1124560546875,-1.0129547119140625,-0.290130615234375,-0.00640869140625
1772536719795505400,7.12250537109375,-1.0019073486328125,-0.2833404541015625,-0.008026123046875
1772536719805553200,7.13255322265625,-0.99188232421875,-0.282379150390625,-0.0091705322265625
1772536719815602200,7.142602294921875,-0.9742889404296875,-0.2817535400390625,-0.00701904296875
1772536719825651200,7.152651123046875,-0.9600372314453125,-0.2834930419921875,-0.0038604736328125
1772536719835700200,7.1627001953125,-0.943511962890625,-0.291046142578125,0.0010986328125
1772536719845749200,7.172749267578125,-0.9353790283203125,-0.296051025390625,0.011199951171875
1772536719855798300,7.18279833984375,-0.9302978515625,-0.295654296875,0.017242431640625
1772536719865847300,7.192847412109375,-0.9242706298828125,-0.2944793701171875,0.028076171875
1772536719875895300,7.202895263671875,-0.9176483154296875,-0.291351318359375,0.033599853515625
1772536719885944300,7.2129443359375,-0.904937744140625,-0.2859954833984375,0.037567138671875
1772536719895993300,7.222993408203125,-0.8954620361328125,-0.2820281982421875,0.040618896484375
1772536719906042400,7.23304248046875,-0.896728515625,-0.2777557373046875,0.0414886474609375
1772536719916091100,7.243091064453125,-0.899078369140625,-0.2745513916015625,0.0416412353515625
1772536719926140400,7.253140380859375,-0.8984222412109375,-0.28125,0.0439910888671875
1772536719936189200,7.263189208984375,-0.9026947021484375,-0.2875213623046875,0.044830322265625
1772536719946237400,7.273237548828125,-0.908843994140625,-0.2951202392578125,0.0455474853515625
1772536719956286200,7.2832861328125,-0.9151153564453125,-0.3067779541015625,0.0494842529296875
1772536719966335200,7.293335205078125,-0.9290924072265625,-0.3159332275390625,0.0487518310546875
1772536719976384300,7.30338427734375,-0.9457244873046875,-0.3181915283203125,0.04425048828125
1772536719986433300,7.313433349609375,-0.959381103515625,-0.318359375,0.040252685546875
1772536719996482000,7.32348193359375,-0.9599761962890625,-0.31793212890625,0.036651611328125
1772536720006531300,7.33353125,-0.954132080078125,-0.312255859375,0.032958984375
1772536720016579000,7.3435791015625,-0.9473114013671875,-0.3090972900390625,0.0251312255859375
1772536720026628400,7.35362841796875,-0.9402618408203125,-0.310302734375,0.027984619140625
1772536720036677400,7.363677490234375,-0.9422760009765625,-0.3073272705078125,0.035491943359375
1772536720046726100,7.37372607421875,-0.93743896484375,-0.310760498046875,0.033782958984375
1772536720056775400,7.383775390625,-0.921661376953125,-0.3127899169921875,0.031646728515625
1772536720066824200,7.39382421875,-0.905548095703125,-0.3128662109375,0.03076171875
1772536720076872400,7.40387255859375,-0.8978729248046875,-0.314849853515625,0.0363616943359375
1772536720086921200,7.413921142578125,-0.891693115234375,-0.3212127685546875,0.0419769287109375
1772536720096970200,7.42397021484375,-0.8819427490234375,-0.3255157470703125,0.0497589111328125
1772536720107019300,7.434019287109375,-0.8761138916015625,-0.3285064697265625,0.05084228515625
1772536720117068300,7.444068359375,-0.872222900390625,-0.3333740234375,0.04888916015625
1772536720127117000,7.454116943359375,-0.8648681640625,-0.3353729248046875,0.0495758056640625
1772536720137166300,7.464166259765625,-0.862884521484375,-0.3350982666015625,0.0470733642578125
1772536720147214000,7.474214111328125,-0.8684844970703125,-0.3363494873046875,0.042938232421875
1772536720157263400,7.484263427734375,-0.8718109130859375,-0.3363037109375,0.0396881103515625
1772536720167312100,7.49431201171875,-0.871734619140625,-0.3347930908203125,0.034942626953125
1772536720177361200,7.504361083984375,-0.8714752197265625,-0.3354034423828125,0.03240966796875
1772536720187410400,7.514410400390625,-0.87939453125,-0.339630126953125,0.0351715087890625
1772536720197459200,7.524459228515625,-0.887786865234375,-0.3465118408203125,0.037750244140625
1772536720207508200,7.53450830078125,-0.888031005859375,-0.3539886474609375,0.0395355224609375
1772536720217556200,7.54455615234375,-0.8935089111328125,-0.3587646484375,0.0391693115234375
1772536720227605200,7.554605224609375,-0.9045257568359375,-0.36444091796875,0.041168212890625
1772536720237654300,7.564654296875,-0.9126434326171875,-0.3720855712890625,0.045989990234375
1772536720247703300,7.574703369140625,-0.9218292236328125,-0.3739166259765625,0.0435028076171875
1772536720257752000,7.584751953125,-0.9222412109375,-0.373382568359375,0.0356903076171875
1772536720267801300,7.59480126953125,-0.9224090576171875,-0.3747406005859375,0.0272674560546875
1772536720277850000,7.60485009765625,-0.9298858642578125,-0.37579345703125,0.0264892578125
1772536720287898400,7.6148984375,-0.9332733154296875,-0.383575439453125,0.0292816162109375
1772536720297947100,7.624947021484375,-0.9340362548828125,-0.3944091796875,0.0317535400390625
1772536720307996200,7.63499609375,-0.9517669677734375,-0.397064208984375,0.0367889404296875
1772536720318045200,7.645045166015625,-0.9616851806640625,-0.403076171875,0.040008544921875
1772536720328094200,7.65509423828125,-0.9731903076171875,-0.402740478515625,0.0415191650390625
1772536720338143200,7.665143310546875,-0.9763031005859375,-0.4000244140625,0.036834716796875
1772536720348191200,7.675191162109375,-0.984893798828125,-0.3881378173828125,0.0295562744140625
1772536720358240300,7.685240234375,-0.99017333984375,-0.3782501220703125,0.0213623046875
1772536720368289300,7.695289306640625,-0.9895172119140625,-0.3707122802734375,0.0187225341796875
1772536720378338300,7.70533837890625,-0.9846038818359375,-0.3624420166015625,0.007568359375
1772536720388387300,7.71538720703125,-0.9882354736328125,-0.364501953125,0.0101165771484375
1772536720398436400,7.725436279296875,-1.0011444091796875,-0.3819427490234375,0.026092529296875
1772536720408485000,7.735485107421875,-1.014404296875,-0.3946685791015625,0.03045654296875
1772536720418533400,7.745533447265625,-1.03466796875,-0.4004669189453125,0.024749755859375
1772536720428582400,7.75558251953125,-1.0583343505859375,-0.396240234375,0.0223846435546875
1772536720438631400,7.76563134765625,-1.0706787109375,-0.3905181884765625,0.0025482177734375
1772536720448680400,7.775680419921875,-1.0746612548828125,-0.375091552734375,-0.019439697265625
1772536720458729200,7.785729248046875,-1.077423095703125,-0.34613037109375,-0.050872802734375
1772536720468778500,7.795778564453125,-1.080047607421875,-0.3204498291015625,-0.07098388671875
1772536720478826200,7.805826171875,-1.0586090087890625,-0.30389404296875,-0.090911865234375
1772536720488875300,7.815875244140625,-1.0234527587890625,-0.2943572998046875,-0.109527587890625
1772536720498924300,7.82592431640625,-0.9850006103515625,-0.2857818603515625,-0.1076507568359375
1772536720508973300,7.835973388671875,-0.9699249267578125,-0.277130126953125,-0.0941314697265625
1772536720519022600,7.846022705078125,-0.9886322021484375,-0.274017333984375,-0.069366455078125
1772536720529071400,7.8560712890625,-0.999359130859375,-0.27923583984375,-0.0573577880859375
1772536720539120400,7.866120361328125,-0.984283447265625,-0.2787322998046875,-0.049041748046875
1772536720549168400,7.87616845703125,-0.967315673828125,-0.2760467529296875,-0.043731689453125
1772536720559217400,7.886217529296875,-0.9675750732421875,-0.274017333984375,-0.0388336181640625
1772536720569266400,7.896266357421875,-0.9787750244140625,-0.2769012451171875,-0.05340576171875
1772536720579315500,7.9063154296875,-0.9882354736328125,-0.274566650390625,-0.0635986328125
1772536720589364200,7.9163642578125,-0.997344970703125,-0.2751617431640625,-0.0725860595703125
1772536720599413500,7.92641357421875,-1.0008392333984375,-0.28009033203125,-0.078277587890625
1772536720609462300,7.936462158203125,-0.9926910400390625,-0.2860870361328125,-0.086700439453125
1772536720619510500,7.946510498046875,-0.9881439208984375,-0.287506103515625,-0.08868408203125
1772536720629559300,7.956559326171875,-0.9910430908203125,-0.2890777587890625,-0.085845947265625
1772536720639608300,7.9666083984375,-0.9929046630859375,-0.2887115478515625,-0.0789337158203125
1772536720649657600,7.97665771484375,-0.9911346435546875,-0.28424072265625,-0.068328857421875
1772536720659706400,7.986706298828125,-0.9692535400390625,-0.2820587158203125,-0.0687103271484375
1772536720669755400,7.99675537109375,-0.93963623046875,-0.275726318359375,-0.064605712890625
1772536720679803400,8.006803466796875,-0.923797607421875,-0.27044677734375,-0.05645751953125
1772536720689852400,8.016852294921875,-0.9051666259765625,-0.2786712646484375,-0.0475616455078125
1772536720699901400,8.0269013671875,-0.8982391357421875,-0.2875518798828125,-0.0396270751953125
1772536720709950500,8.036950439453125,-0.88909912109375,-0.29498291015625,-0.031982421875
1772536720719999200,8.046999267578125,-0.87646484375,-0.301239013671875,-0.0339813232421875
1772536720730048500,8.057048583984376,-0.8644256591796875,-0.30859375,-0.032989501953125
1772536720740097300,8.06709716796875,-0.8577423095703125,-0.3236236572265625,-0.028900146484375
1772536720750145500,8.0771455078125,-0.8484344482421875,-0.328643798828125,-0.02630615234375
1772536720760194300,8.0871943359375,-0.8355865478515625,-0.3400421142578125,-0.0276031494140625
1772536720770243300,8.097243408203125,-0.8370208740234375,-0.338775634765625,-0.0198974609375
1772536720780292400,8.107292236328124,-0.8591766357421875,-0.348541259765625,-0.0190277099609375
1772536720790341400,8.11734130859375,-0.8637237548828125,-0.3590240478515625,-0.0229949951171875
1772536720800390400,8.127390380859374,-0.862091064453125,-0.357208251953125,-0.029052734375
1772536720810439400,8.137439453125,-0.8622283935546875,-0.359893798828125,-0.037811279296875
1772536720820487200,8.147487060546876,-0.8734893798828125,-0.3662567138671875,-0.0458526611328125
1772536720830536400,8.157536376953125,-0.88079833984375,-0.3701629638671875,-0.0516815185546875
1772536720840585500,8.16758544921875,-0.8863372802734375,-0.37554931640625,-0.053924560546875
1772536720850634200,8.17763427734375,-0.892913818359375,-0.378448486328125,-0.0551910400390625
1772536720860683500,8.18768359375,-0.89385986328125,-0.3791961669921875,-0.0508880615234375
1772536720870732300,8.197732177734375,-0.8914947509765625,-0.3766937255859375,-0.0460052490234375
1772536720880780500,8.207780517578126,-0.89483642578125,-0.383453369140625,-0.04058837890625
1772536720890829300,8.217829345703125,-0.898956298828125,-0.3847503662109375,-0.0352783203125
1772536720900878300,8.22787841796875,-0.8933258056640625,-0.38232421875,-0.0337371826171875
1772536720910927400,8.23792724609375,-0.885009765625,-0.3801422119140625,-0.03021240234375
1772536720920976400,8.247976318359376,-0.9040985107421875,-0.388153076171875,-0.027587890625
1772536720931025200,8.258025146484375,-0.9064178466796875,-0.39117431640625,-0.0148773193359375
1772536720941073400,8.268073486328126,-0.9066009521484375,-0.3935699462890625,-0.01226806640625
1772536720951122200,8.2781220703125,-0.910400390625,-0.40093994140625,-0.01531982421875
1772536720961171500,8.28817138671875,-0.9196624755859375,-0.4140472412109375,-0.0111236572265625
1772536720971220500,8.298220458984375,-0.9384002685546875,-0.4249725341796875,-0.0079345703125
1772536720981269200,8.308269287109376,-0.9527130126953125,-0.4288482666015625,-0.0074615478515625
1772536720991318500,8.318318603515625,-0.95416259765625,-0.4344329833984375,-0.0145111083984375
1772536721001367300,8.3283671875,-0.9632415771484375,-0.435211181640625,-0.0190582275390625
1772536721011415600,8.33841552734375,-0.9759979248046875,-0.433929443359375,-0.0229949951171875
1772536721021464300,8.34846435546875,-0.9846954345703125,-0.4385986328125,-0.0283966064453125
1772536721031513300,8.358513427734374,-0.9807891845703125,-0.4333953857421875,-0.035369873046875
1772536721041562400,8.368562255859375,-0.98577880859375,-0.4219512939453125,-0.03753662109375
1772536721051611400,8.378611328125,-0.988861083984375,-0.4246978759765625,-0.03369140625
1772536721061660400,8.388660400390625,-0.9835662841796875,-0.43505859375,-0.0140228271484375
1772536721071709400,8.39870947265625,-0.9793701171875,-0.449981689453125,0.002655029296875
1772536721081757200,8.408757080078125,-0.99371337890625,-0.4519195556640625,0.0054168701171875
1772536721091806500,8.418806396484374,-1.020904541015625,-0.4409942626953125,0.013336181640625
1772536721101855200,8.428855224609375,-1.0362701416015625,-0.4331207275390625,0.0156707763671875
1772536721111904300,8.438904296875,-1.040130615234375,-0.4221343994140625,0.00555419921875
1772536721121953500,8.44895361328125,-1.045623779296875,-0.397003173828125,-0.0129852294921875
1772536721132002300,8.459002197265624,-1.0503692626953125,-0.36468505859375,-0.0320587158203125
1772536721142050300,8.46905029296875,-1.0467529296875,-0.32708740234375,-0.0428314208984375
1772536721152099300,8.479099365234376,-1.0327911376953125,-0.308868408203125,-0.0600128173828125
1772536721162148400,8.4891484375,-0.993865966796875,-0.2830963134765625,-0.055816650390625
1772536721172197400,8.499197265625,-0.97906494140625,-0.2740020751953125,-0.029266357421875
1772536721182246400,8.509246337890625,-0.976593017578125,-0.274505615234375,-0.0201873779296875
1772536721192295400,8.51929541015625,-0.976593017578125,-0.2685546875,-0.0169219970703125
1772536721202344400,8.529344482421875,-0.9631500244140625,-0.25921630859375,-0.0108642578125
1772536721212392400,8.539392333984376,-0.9607391357421875,-0.2584075927734375,0.00067138671875
1772536721222441500,8.54944140625,-0.9640045166015625,-0.2646942138671875,0.011993408203125
1772536721232490200,8.559490234375,-0.9482574462890625,-0.2714385986328125,0.0164031982421875
1772536721242539500,8.56953955078125,-0.9252471923828125,-0.273773193359375,0.0157623291015625
1772536721252588300,8.57958837890625,-0.9178924560546875,-0.2742156982421875,0.01873779296875
1772536721262637300,8.58963720703125,-0.9214630126953125,-0.277435302734375,0.01666259765625
1772536721272685300,8.599685302734375,-0.9087677001953125,-0.276763916015625,0.01263427734375
1772536721282734300,8.609734375,-0.9024200439453125,-0.27044677734375,0.024749755859375
1772536721292783400,8.619783447265625,-0.9094085693359375,-0.2722625732421875,0.033172607421875
1772536721302832400,8.629832275390624,-0.919677734375,-0.26904296875,0.0350189208984375
1772536721312881400,8.63988134765625,-0.91253662109375,-0.264892578125,0.0275421142578125
1772536721322930400,8.649930419921875,-0.8883819580078125,-0.26751708984375,0.0279083251953125
1772536721332979500,8.6599794921875,-0.883331298828125,-0.2781982421875,0.02508544921875
1772536721343027500,8.67002734375,-0.8916168212890625,-0.27313232421875,0.0335235595703125
1772536721353076500,8.680076416015625,-0.8635406494140625,-0.295318603515625,0.039581298828125
1772536721363125200,8.690125244140624,-0.932403564453125,-0.2931365966796875,0.064788818359375
1772536721373174500,8.700174560546875,-0.982696533203125,-0.302581787109375,0.05450439453125
1772536721383223300,8.710223388671874,-0.9397125244140625,-0.2910614013671875,0.0225677490234375
1772536721393272300,8.720272216796875,-0.922576904296875,-0.2659912109375,0.002044677734375
1772536721403320300,8.7303203125,-0.9438934326171875,-0.2643280029296875,0.0005950927734375
1772536721413369300,8.740369384765625,-0.9620513916015625,-0.271240234375,0.00640869140625
1772536721423418000,8.750418212890626,-0.9637298583984375,-0.2733154296875,0.004547119140625
1772536721433467000,8.760466796875,-0.9510345458984375,-0.2774810791015625,0.0058135986328125
1772536721443516000,8.770515869140626,-0.9327850341796875,-0.284881591796875,0.0152130126953125
1772536721453565000,8.78056494140625,-0.9249420166015625,-0.287322998046875,0.024139404296875
