time,seconds_elapsed,z,y,x
1772536712758797600,0.085797607421875,0.3736620545387268,0.16969610750675201,-0.07684550434350967
1772536712768845600,0.095845458984375,0.3734780550003052,0.09988268464803696,-0.06929890811443329
1772536712778894600,0.10589453125,0.3595220446586609,0.07304272055625916,-0.016943035647273064
1772536712788944000,0.11594384765625,0.32687434554100037,0.09045446664094925,0.06047239527106285
1772536712798992600,0.12599267578125,0.3042519688606262,0.12910287082195282,0.13490338623523712
1772536712809041700,0.136041748046875,0.2848321795463562,0.16489017009735107,0.19871298968791962
1772536712819090700,0.146090576171875,0.27001121640205383,0.19648216664791107,0.24663542211055756
1772536712829138700,0.156138671875,0.2671038508415222,0.19305308163166046,0.2556108236312866
1772536712839187700,0.166187744140625,0.2911433279514313,0.1969618946313858,0.22709672152996063
1772536712849236700,0.17623681640625,0.3117356598377228,0.17837250232696533,0.19754868745803833
1772536712859285500,0.186285400390625,0.30512312054634094,0.13199691474437714,0.1626286655664444
1772536712869334800,0.196334716796875,0.29551976919174194,0.05879966914653778,0.11650510877370834
1772536712879383600,0.206383544921875,0.27698442339897156,-0.004159457050263882,0.07629255205392838
1772536712889431800,0.216431884765625,0.2512263357639313,-0.0434541329741478,0.047604985535144806
1772536712899480600,0.22648046875,0.2137944996356964,-0.06869547069072723,0.03502853959798813
1772536712909529600,0.236529541015625,0.16587810218334198,-0.11584567278623581,0.025668060407042503
1772536712919578600,0.24657861328125,0.12736815214157104,-0.1757778823375702,0.002280397340655327
1772536712929627600,0.256627685546875,0.10267132520675659,-0.18703745305538177,-0.021602829918265343
1772536712939676700,0.2666767578125,0.08155502378940582,-0.15627016127109528,-0.040322739630937576
1772536712949725700,0.2767255859375,0.06115760654211044,-0.12987743318080902,-0.07042871415615082
1772536712959773700,0.286773681640625,0.05636388808488846,-0.10133566707372665,-0.10281386971473694
1772536712969822700,0.29682275390625,0.06274349242448807,-0.05562437325716019,-0.1347438395023346
1772536712979871700,0.306871826171875,0.06345346570014954,-0.005080768372863531,-0.16302764415740967
1772536712989920500,0.31692041015625,0.08669008314609528,0.03894075006246567,-0.18559794127941132
1772536712999969800,0.3269697265625,0.12125492095947266,0.1090116873383522,-0.18467065691947937
1772536713010018600,0.3370185546875,0.1421934962272644,0.18508008122444153,-0.17246538400650024
1772536713020066800,0.34706689453125,0.147145614027977,0.20092718303203583,-0.1657298505306244
1772536713030115600,0.357115478515625,0.14831554889678955,0.17222124338150024,-0.16706861555576324
1772536713040164600,0.36716455078125,0.13552232086658478,0.1269221007823944,-0.1681276112794876
1772536713050213600,0.377213623046875,0.11437202990055084,0.07178027927875519,-0.17690911889076233
1772536713060262700,0.3872626953125,0.10195789486169815,0.017308618873357773,-0.18757416307926178
1772536713070311700,0.397311767578125,0.10641682893037796,0.003219164442270994,-0.18657547235488892
1772536713080359700,0.407359619140625,0.10583049803972244,0.0034705069847404957,-0.1819213181734085
1772536713090408400,0.417408447265625,0.10565952211618423,-0.017057938501238823,-0.1834518313407898
1772536713100457700,0.427457763671875,0.11238279938697815,-0.04018853232264519,-0.18579553067684174
1772536713110506800,0.4375068359375,0.12068919837474823,-0.026928920298814774,-0.1737537831068039
1772536713120555500,0.447555419921875,0.11580996215343475,0.007137845270335674,-0.14546489715576172
1772536713130604800,0.457604736328125,0.1118040382862091,0.004994533024728298,-0.1248493641614914
1772536713140652500,0.467652587890625,0.10365569591522217,-0.029108243063092232,-0.11749736219644547
1772536713150701800,0.477701904296875,0.09049887955188751,-0.07271058857440948,-0.10682634264230728
1772536713160750600,0.48775048828125,0.062142807990312576,-0.09462576359510422,-0.07401756942272186
1772536713170799600,0.497799560546875,0.029866095632314682,-0.10656072199344635,-0.020771391689777374
1772536713180848600,0.5078486328125,0.007507122587412596,-0.12325335294008255,0.03749731928110123
1772536713190897700,0.517897705078125,-0.015538008883595467,-0.14110450446605682,0.09305112063884735
1772536713200945700,0.527945556640625,-0.03281131386756897,-0.131493479013443,0.15002724528312683
1772536713210994700,0.53799462890625,-0.03619246929883957,-0.09518953412771225,0.1900111436843872
1772536713221043700,0.548043701171875,-0.03091304749250412,-0.05918269604444504,0.20571476221084595
1772536713231092700,0.5580927734375,-0.04598307982087135,-0.046841077506542206,0.20135250687599182
1772536713241141500,0.5681416015625,-0.06617501378059387,-0.10865001380443573,0.16850820183753967
1772536713251190800,0.578190673828125,-0.10166909545660019,-0.16620011627674103,0.13548794388771057
1772536713261238500,0.588238525390625,-0.15616069734096527,-0.22195759415626526,0.09379091113805771
1772536713271287600,0.59828759765625,-0.21808505058288574,-0.28900158405303955,0.05247410014271736
1772536713281336800,0.6083369140625,-0.2989156246185303,-0.3475784957408905,0.016599342226982117
1772536713291385600,0.618385498046875,-0.3634674549102783,-0.36253082752227783,-0.009639452211558819
1772536713301435000,0.628434814453125,-0.40510115027427673,-0.3185606598854065,-0.014326718635857105
1772536713311483600,0.638483642578125,-0.42317789793014526,-0.24731552600860596,-0.016322225332260132
1772536713321531600,0.64853173828125,-0.4060712158679962,-0.14859895408153534,-0.0010911260033026338
1772536713331580700,0.65858056640625,-0.3641117811203003,-0.03235436975955963,0.03692283481359482
1772536713341629700,0.668629638671875,-0.3168627917766571,0.04515281319618225,0.06646227091550827
1772536713351678700,0.6786787109375,-0.2965913414955139,0.022258944809436798,0.06051197648048401
1772536713361727700,0.688727783203125,-0.3049882650375366,-0.08428126573562622,0.013913996517658234
1772536713371776500,0.698776611328125,-0.3324124217033386,-0.20416344702243805,-0.05116460472345352
1772536713381825800,0.70882568359375,-0.37319016456604004,-0.2674201726913452,-0.13130681216716766
1772536713391873500,0.71887353515625,-0.4115748405456543,-0.2985312044620514,-0.20143476128578186
1772536713401922800,0.7289228515625,-0.46194761991500854,-0.2847133278846741,-0.27640366554260254
1772536713411975000,0.738974853515625,-0.48089680075645447,-0.21428149938583374,-0.33492183685302734
1772536713422023700,0.749023681640625,-0.4624972939491272,-0.07404658943414688,-0.3608861565589905
1772536713432073000,0.759072998046875,-0.4228731691837311,0.08891117572784424,-0.3578086197376251
1772536713442121700,0.769121826171875,-0.3570820093154907,0.23116518557071686,-0.34175601601600647
1772536713452170000,0.779169921875,-0.3005790412425995,0.32104501128196716,-0.3024429380893707
1772536713462218800,0.78921875,-0.25834357738494873,0.3354949355125427,-0.24047625064849854
1772536713472267800,0.799267822265625,-0.22697368264198303,0.3083741068840027,-0.1432572901248932
1772536713482316800,0.80931689453125,-0.2007940709590912,0.25786447525024414,-0.033049557358026505
1772536713492365800,0.81936572265625,-0.18477967381477356,0.1958674192428589,0.0789765790104866
1772536713502414600,0.82941455078125,-0.16449210047721863,0.10783988237380981,0.17766056954860687
1772536713512462800,0.839462890625,-0.1479930281639099,0.012995928525924683,0.2417929619550705
1772536713522511600,0.84951171875,-0.13570517301559448,-0.0475451834499836,0.2728336453437805
1772536713532561000,0.859560791015625,-0.11998745799064636,-0.07135384529829025,0.274219274520874
1772536713542609700,0.869609619140625,-0.10026729851961136,-0.07176463305950165,0.2542273700237274
1772536713552658700,0.87965869140625,-0.09842599183320999,-0.06202865019440651,0.20712482929229736
1772536713562708000,0.8897080078125,-0.10843080282211304,-0.0559866726398468,0.1450798660516739
1772536713572755700,0.899755615234375,-0.13229326903820038,-0.06788940727710724,0.06445825845003128
1772536713582804700,0.9098046875,-0.17446313798427582,-0.06498615443706512,-0.012800322845578194
1772536713592853800,0.919853759765625,-0.21633948385715485,-0.04039771482348442,-0.08663726598024368
1772536713602902800,0.92990283203125,-0.23310257494449615,0.026734953746199608,-0.13995082676410675
1772536713612951800,0.939951904296875,-0.22456207871437073,0.12463834136724472,-0.16993801295757294
1772536713623000800,0.950000732421875,-0.18647705018520355,0.21850433945655823,-0.17830334603786469
1772536713633049600,0.960049560546875,-0.14278656244277954,0.2575553357601166,-0.17952440679073334
1772536713643097900,0.970097900390625,-0.09876282513141632,0.2430526465177536,-0.1779351532459259
1772536713653146600,0.980146728515625,-0.06969601660966873,0.2097940295934677,-0.15031097829341888
1772536713663196000,0.99019580078125,-0.04025169461965561,0.19297675788402557,-0.11122451722621918
1772536713673244700,1.00024462890625,-0.031868331134319305,0.1764550358057022,-0.062114227563142776
1772536713683293700,1.010293701171875,-0.030591070652008057,0.14904484152793884,-0.020007938146591187
1772536713693342700,1.0203427734375,-0.029903441667556763,0.10453438013792038,0.014961231499910355
1772536713703390700,1.030390625,-0.03834392875432968,0.07783372700214386,0.036374565213918686
1772536713713439700,1.040439697265625,-0.0511513352394104,0.03817152976989746,0.04273499175906181
1772536713723488800,1.05048876953125,-0.06442490220069885,-0.025060508400201797,0.02906007319688797
1772536713733537800,1.060537841796875,-0.07696093618869781,-0.0663062185049057,0.005507875233888626
1772536713743586800,1.0705869140625,-0.09874885529279709,-0.13392789661884308,-0.02981420047581196
1772536713753635800,1.0806357421875,-0.12737862765789032,-0.1996544450521469,-0.05996837466955185
1772536713763683800,1.090683837890625,-0.1514618694782257,-0.26197537779808044,-0.09200513362884521
1772536713773732900,1.10073291015625,-0.1700102537870407,-0.30605947971343994,-0.11895658820867538
1772536713783782000,1.110781982421875,-0.17635738849639893,-0.30669939517974854,-0.13405081629753113
1772536713793831000,1.120830810546875,-0.1648961901664734,-0.263394296169281,-0.14946305751800537
1772536713803879700,1.130879638671875,-0.139761283993721,-0.18195867538452148,-0.15516237914562225
1772536713813929000,1.140928955078125,-0.10380673408508301,-0.07869593799114227,-0.15414026379585266
1772536713823977700,1.150977783203125,-0.07049277424812317,0.041153594851493835,-0.13650181889533997
1772536713834026000,1.16102587890625,-0.0394432507455349,0.14569759368896484,-0.114825539290905
1772536713844074800,1.17107470703125,-0.016512183472514153,0.193201944231987,-0.08731481432914734
1772536713854123800,1.181123779296875,0.00398989487439394,0.19647231698036194,-0.057255443185567856
1772536713864172800,1.1911728515625,0.026007961481809616,0.18013210594654083,-0.01023409329354763
1772536713874221800,1.201221923828125,0.046340394765138626,0.1585192233324051,0.04359957575798035
1772536713884270800,1.211270751953125,0.07054759562015533,0.11252575367689133,0.08847543597221375
1772536713894318800,1.22131884765625,0.09574855864048004,0.03294410929083824,0.11896862834692001
1772536713904367600,1.23136767578125,0.11527205258607864,-0.03963525965809822,0.1425529420375824
1772536713914417000,1.2414169921875,0.12327618151903152,-0.08912424743175507,0.16738399863243103
1772536713924466000,1.2514658203125,0.13577799499034882,-0.1209312453866005,0.19325092434883118
1772536713934514700,1.2615146484375,0.1506325751543045,-0.13454453647136688,0.20594382286071777
1772536713944564000,1.27156396484375,0.1682061105966568,-0.11241621524095535,0.21389362215995789
1772536713954611700,1.28161181640625,0.18371956050395966,-0.061153825372457504,0.21318282186985016
1772536713964661000,1.291660888671875,0.19216808676719666,-0.012414854019880295,0.1914278268814087
1772536713974709800,1.301709716796875,0.19752076268196106,0.022841669619083405,0.14441744983196259
1772536713984758800,1.3117587890625,0.19812394678592682,0.03596373274922371,0.08597616851329803
1772536713994807800,1.321807861328125,0.1926785707473755,0.04750640690326691,0.04514378309249878
1772536714004856800,1.33185693359375,0.19552548229694366,0.0734097808599472,0.0340590663254261
1772536714014905600,1.341905517578125,0.23098281025886536,0.11437425762414932,0.06577837467193604
1772536714024953900,1.351953857421875,0.26296037435531616,0.1128624826669693,0.10493331402540207
1772536714035002600,1.362002685546875,0.2742207646369934,0.037427641451358795,0.12729240953922272
1772536714045052000,1.372052001953125,0.2850983142852783,-0.05275118723511696,0.15051445364952087
1772536714055100700,1.3821005859375,0.3028387129306793,-0.09392312169075012,0.16573122143745422
1772536714065149700,1.392149658203125,0.30921831727027893,-0.12292946875095367,0.16193461418151855
1772536714075199000,1.402198974609375,0.29785221815109253,-0.1616118848323822,0.1334475874900818
1772536714085246700,1.412246826171875,0.277980774641037,-0.20612528920173645,0.0734657421708107
1772536714095296000,1.4222958984375,0.2536333501338959,-0.22140251100063324,0.02064327523112297
1772536714105344800,1.4323447265625,0.2377316653728485,-0.17779061198234558,-0.012710301205515862
1772536714115393800,1.442393798828125,0.2043776959180832,-0.1037326231598854,-0.01733993925154209
1772536714125442800,1.45244287109375,0.1981326788663864,-0.002827238757163286,0.006726161576807499
1772536714135491800,1.462491943359375,0.2010778784751892,0.08490314334630966,0.04131556302309036
1772536714145539800,1.472539794921875,0.21521872282028198,0.12518198788166046,0.08248814195394516
1772536714155588900,1.4825888671875,0.23588991165161133,0.11479779332876205,0.12520204484462738
1772536714165637600,1.4926376953125,0.2604903280735016,0.06890536099672318,0.186521977186203
1772536714175687000,1.50268701171875,0.29127541184425354,0.03614555299282074,0.257243812084198
1772536714185735700,1.512735595703125,0.3167284429073334,0.034143272787332535,0.3245998024940491
1772536714195784700,1.52278466796875,0.31615400314331055,0.02840735763311386,0.3666926622390747
1772536714205833700,1.532833740234375,0.30323073267936707,0.017225231975317,0.3630027174949646
1772536714215881700,1.5428818359375,0.28580671548843384,0.0012052529491484165,0.3291960060596466
1772536714225930800,1.5529306640625,0.26281681656837463,-0.0010762475430965424,0.2766033709049225
1772536714235979800,1.562979736328125,0.2222270518541336,-0.00038515729829669,0.205718532204628
1772536714246028800,1.57302880859375,0.18350085616111755,0.0012218989431858063,0.11031468212604523
1772536714256077800,1.583077880859375,0.15325213968753815,0.020652588456869125,0.03084702417254448
1772536714266126800,1.593126953125,0.13004231452941895,0.04364665225148201,-0.030978761613368988
1772536714276174800,1.6031748046875,0.10506851971149445,0.03172554448246956,-0.0722188800573349
1772536714286224000,1.613223876953125,0.09675043076276779,-0.023119289427995682,-0.09378210455179214
1772536714296272600,1.623272705078125,0.09572670608758926,-0.0717448815703392,-0.09156795591115952
1772536714306322000,1.633322021484375,0.0972926989197731,-0.10767985135316849,-0.06052026152610779
1772536714316370700,1.64337060546875,0.09075570106506348,-0.14914368093013763,-0.024222174659371376
1772536714326419700,1.653419677734375,0.07652856409549713,-0.1876457929611206,0.00671576801687479
1772536714336467700,1.6634677734375,0.06053042411804199,-0.19838818907737732,0.022981025278568268
1772536714346516700,1.673516845703125,0.04615825042128563,-0.16759878396987915,0.020206933841109276
1772536714356565800,1.683565673828125,0.03227865323424339,-0.09876911342144012,0.0011626689229160547
1772536714366614800,1.69361474609375,0.018094398081302643,-0.022025778889656067,-0.04786701500415802
1772536714376663800,1.703663818359375,0.009153899736702442,0.045200660824775696,-0.10392122715711594
1772536714386712800,1.713712890625,0.0016187243163585663,0.11114763468503952,-0.15475738048553467
1772536714396761900,1.723761962890625,0.002779862377792597,0.18252408504486084,-0.18875768780708313
1772536714406809900,1.733809814453125,0.016510101035237312,0.23592369258403778,-0.20305480062961578
1772536714416859000,1.74385888671875,0.030059199780225754,0.27484846115112305,-0.2060987949371338
1772536714426908000,1.753907958984375,0.03308505564928055,0.2729488015174866,-0.207301065325737
1772536714436957000,1.76395703125,0.023391151800751686,0.2374376654624939,-0.20257101953029633
1772536714447006000,1.774005859375,0.010784132406115532,0.16887319087982178,-0.19946208596229553
1772536714457055000,1.784054931640625,-0.015056786127388477,0.08529892563819885,-0.1988796591758728
1772536714467103000,1.79410302734375,-0.05119107663631439,0.012180907651782036,-0.18929986655712128
1772536714477152000,1.804152099609375,-0.08296072483062744,-0.04563844949007034,-0.18422654271125793
1772536714487201000,1.814200927734375,-0.1013069823384285,-0.08759695291519165,-0.18651539087295532
1772536714497250000,1.82425,-0.11929290741682053,-0.09965894371271133,-0.18529140949249268
1772536714507299000,1.834299072265625,-0.12647919356822968,-0.08168366551399231,-0.17707902193069458
1772536714517348000,1.84434814453125,-0.12947311997413635,-0.059855867177248,-0.16393499076366425
1772536714527396900,1.85439697265625,-0.1210753545165062,-0.021501552313566208,-0.14202728867530823
1772536714537445000,1.864445068359375,-0.10167914628982544,0.024767473340034485,-0.11920555680990219
1772536714547494000,1.874493896484375,-0.0718076080083847,0.07374577224254608,-0.07796239107847214
1772536714557543000,1.88454296875,-0.051962532103061676,0.09943275898694992,-0.03826318681240082
1772536714567592000,1.894592041015625,-0.041007138788700104,0.08338730782270432,0.009373649023473263
1772536714577641000,1.904640869140625,-0.04170036315917969,0.043732039630413055,0.058944396674633026
1772536714587690200,1.914690185546875,-0.0652102455496788,-0.006727798841893673,0.09917642921209335
1772536714597739000,1.924739013671875,-0.09478677809238434,-0.059244804084300995,0.13506253063678741
1772536714607787000,1.934787109375,-0.11708970367908478,-0.08461425453424454,0.1626531332731247
1772536714617836000,1.9448359375,-0.13459892570972443,-0.08121339231729507,0.18442261219024658
1772536714627885000,1.954885009765625,-0.14441853761672974,-0.055159952491521835,0.1889396458864212
1772536714637934000,1.96493408203125,-0.14157427847385406,-0.03294119983911514,0.16911746561527252
1772536714647983000,1.974983154296875,-0.1387113481760025,-0.011441728100180626,0.1281927525997162
1772536714658031900,1.985031982421875,-0.1361272931098938,0.01086224615573883,0.08104574680328369
1772536714668080000,1.995080078125,-0.15064440667629242,0.04249437898397446,0.03304328769445419
1772536714678129000,2.00512890625,-0.162292018532753,0.06990150362253189,0.000047522829845547676
1772536714688178200,2.01517822265625,-0.16145534813404083,0.08474522829055786,-0.012425918132066727
1772536714698227000,2.02522705078125,-0.14782582223415375,0.0912124440073967,0.005568794906139374
1772536714708276000,2.03527587890625,-0.13119101524353027,0.0889696329832077,0.043789830058813095
1772536714718325000,2.045324951171875,-0.10908277332782745,0.08205872774124146,0.0996408462524414
1772536714728374000,2.0553740234375,-0.07486656308174133,0.04610709100961685,0.15328994393348694
1772536714738422000,2.065422119140625,-0.048822712153196335,-0.03874415159225464,0.19176436960697174
1772536714748471000,2.075470947265625,-0.04748940467834473,-0.1632481813430786,0.18458083271980286
1772536714758519800,2.085519775390625,-0.060965538024902344,-0.3026745319366455,0.1386154741048813
1772536714768569000,2.095569091796875,-0.09026899933815002,-0.39811185002326965,0.060330864042043686
1772536714778618000,2.1056181640625,-0.13718989491462708,-0.4178019165992737,-0.014434190467000008
1772536714788667000,2.1156669921875,-0.1910589188337326,-0.38659733533859253,-0.09895924478769302
1772536714798715100,2.125715087890625,-0.23173364996910095,-0.27952679991722107,-0.17325478792190552
1772536714808764000,2.135763916015625,-0.2547071874141693,-0.10892500728368759,-0.224858358502388
1772536714818813200,2.145813232421875,-0.24016714096069336,0.09970596432685852,-0.24159181118011475
1772536714828862000,2.155862060546875,-0.1930190622806549,0.2988189160823822,-0.22590194642543793
1772536714838911000,2.165910888671875,-0.14097636938095093,0.42160290479660034,-0.1946481615304947
1772536714848960000,2.1759599609375,-0.09331287443637848,0.44908106327056885,-0.1622372269630432
1772536714859009000,2.186009033203125,-0.06297734379768372,0.4021044969558716,-0.1311275064945221
1772536714869057000,2.19605712890625,-0.060365062206983566,0.281006395816803,-0.10883231461048126
1772536714879106000,2.20610595703125,-0.0726398378610611,0.12717343866825104,-0.07055842876434326
1772536714889154800,2.21615478515625,-0.09129500389099121,-0.008299123495817184,-0.00318856630474329
1772536714899204000,2.2262041015625,-0.10700952261686325,-0.09689876437187195,0.08400332927703857
1772536714909252900,2.2362529296875,-0.11569399386644363,-0.12805266678333282,0.17769064009189606
1772536714919302000,2.246302001953125,-0.10562697798013687,-0.11049070954322815,0.2483496218919754
1772536714929351200,2.25635107421875,-0.08221497386693954,-0.06314443796873093,0.2887173295021057
1772536714939399000,2.26639892578125,-0.0540832057595253,-0.009108101949095726,0.28652235865592957
1772536714949448200,2.2764482421875,-0.03328414261341095,0.03350704163312912,0.2374161332845688
1772536714959497000,2.2864970703125,-0.024295175448060036,0.0810742899775505,0.16836223006248474
1772536714969546000,2.2965458984375,-0.04845774918794632,0.11393290013074875,0.08406835794448853
1772536714979595000,2.306594970703125,-0.10036782175302505,0.09906899929046631,-0.009906340390443802
1772536714989644000,2.31664404296875,-0.1735122948884964,0.06568112224340439,-0.11486928164958954
1772536714999692000,2.326692138671875,-0.24893701076507568,0.008842874318361282,-0.21257905662059784
1772536715009741000,2.336740966796875,-0.3170478045940399,-0.04880840331315994,-0.29023897647857666
1772536715019789800,2.346789794921875,-0.37464025616645813,-0.09646914154291153,-0.3482990860939026
1772536715029839000,2.356839111328125,-0.39437127113342285,-0.1229359582066536,-0.37169337272644043
1772536715039888000,2.366887939453125,-0.3732883334159851,-0.09128588438034058,-0.34669429063796997
1772536715049937000,2.37693701171875,-0.33525460958480835,-0.02655070647597313,-0.29593196511268616
1772536715059986200,2.386986083984375,-0.28369688987731934,0.038567040115594864,-0.24077604711055756
1772536715070034000,2.397033935546875,-0.2304401695728302,0.08064811676740646,-0.20622298121452332
1772536715080083000,2.4070830078125,-0.194480299949646,0.08881070464849472,-0.1952345073223114
1772536715090132000,2.417132080078125,-0.18195565044879913,0.07272262871265411,-0.2044437974691391
1772536715100181000,2.427180908203125,-0.1931462585926056,0.050022371113300323,-0.21444237232208252
1772536715110230000,2.43722998046875,-0.2148856818675995,0.0129853505641222,-0.2262614369392395
1772536715120279000,2.447279052734375,-0.2453911155462265,-0.03636328876018524,-0.23269163072109222
1772536715130328000,2.457328125,-0.2714361846446991,-0.09960970282554626,-0.22174714505672455
1772536715140376000,2.4673759765625,-0.2744884490966797,-0.14998392760753632,-0.1914837807416916
1772536715150424800,2.4774248046875,-0.27625009417533875,-0.16643494367599487,-0.13662658631801605
1772536715160474000,2.48747412109375,-0.26924651861190796,-0.17832861840724945,-0.09440189599990845
1772536715170523000,2.49752294921875,-0.24512715637683868,-0.1734943389892578,-0.05418744683265686
1772536715180572200,2.507572265625,-0.21180382370948792,-0.13435226678848267,-0.023545650765299797
1772536715190621000,2.517620849609375,-0.1828441172838211,-0.07051926106214523,-0.010504791513085365
1772536715200670000,2.527669921875,-0.15754541754722595,0.0009085792116820812,-0.01708892360329628
1772536715210718000,2.537718017578125,-0.1370122730731964,0.0562204085290432,-0.049781739711761475
1772536715220767000,2.54776708984375,-0.12480808049440384,0.10045710951089859,-0.08472161740064621
1772536715230816000,2.55781591796875,-0.10772674530744553,0.14864256978034973,-0.10351566225290298
1772536715240865000,2.567864990234375,-0.0814882218837738,0.17335936427116394,-0.11491425335407257
1772536715250914000,2.5779140625,-0.053294528275728226,0.1669379621744156,-0.11213478446006775
1772536715260963000,2.587963134765625,-0.028800368309020996,0.13680481910705566,-0.08817858248949051
1772536715271011000,2.598010986328125,-0.004943304695188999,0.1023072749376297,-0.03437398001551628
1772536715281060000,2.60806005859375,0.03757459670305252,0.06914319097995758,0.03178559988737106
1772536715291109000,2.618109130859375,0.07167715579271317,0.0163380429148674,0.0957728698849678
1772536715301158000,2.628157958984375,0.10073170810937881,-0.06501886993646622,0.1369171142578125
1772536715311207200,2.638207275390625,0.13270093500614166,-0.17115873098373413,0.15802434086799622
1772536715321256000,2.648255859375,0.15640653669834137,-0.28645044565200806,0.18658913671970367
1772536715331305000,2.658304931640625,0.18344977498054504,-0.37234124541282654,0.22306501865386963
1772536715341353000,2.66835302734375,0.19836081564426422,-0.41416406631469727,0.26676827669143677
1772536715351402000,2.678402099609375,0.2007431983947754,-0.421774297952652,0.2909693419933319
1772536715361451000,2.688450927734375,0.18969614803791046,-0.4097863435745239,0.28631865978240967
1772536715371500000,2.6985,0.178172305226326,-0.36971530318260193,0.26207298040390015
1772536715381548800,2.708548828125,0.17869773507118225,-0.2778317332267761,0.23022343218326569
1772536715391598000,2.71859814453125,0.19367192685604095,-0.12674102187156677,0.2089758664369583
1772536715401647000,2.728647216796875,0.21342326700687408,0.02484743297100067,0.19441236555576324
1772536715411695400,2.7386953125,0.2556734085083008,0.16890393197536469,0.20118138194084167
1772536715421744400,2.748744384765625,0.3061474859714508,0.31298279762268066,0.23803900182247162
1772536715431793200,2.758793212890625,0.36060380935668945,0.3955293297767639,0.2808852791786194
1772536715441842400,2.768842529296875,0.3972523510456085,0.3581382930278778,0.29594331979751587
1772536715451891200,2.77889111328125,0.41374585032463074,0.23130059242248535,0.29166215658187866
1772536715461940200,2.788940185546875,0.3951532542705536,0.06165642291307449,0.2685847878456116
1772536715471989500,2.798989501953125,0.384906142950058,-0.09560886025428772,0.23341050744056702
1772536715482037200,2.809037353515625,0.3764921724796295,-0.2039337456226349,0.19851350784301758
1772536715492086300,2.819086181640625,0.36224818229675293,-0.2686188519001007,0.15758785605430603
1772536715502135300,2.82913525390625,0.34903839230537415,-0.3070858120918274,0.10864559561014175
1772536715512184300,2.839184326171875,0.3352716267108917,-0.30446696281433105,0.052326519042253494
1772536715522233300,2.8492333984375,0.3360484838485718,-0.2285338193178177,0.009116997942328453
1772536715532282400,2.859282470703125,0.3493620455265045,-0.09541685879230499,-0.014653387479484081
1772536715542331100,2.8693310546875,0.35959815979003906,0.036122530698776245,-0.024984322488307953
1772536715552379400,2.87937939453125,0.36992737650871277,0.12887601554393768,-0.018023449927568436
1772536715562428200,2.88942822265625,0.38402003049850464,0.16198548674583435,0.0018320127855986357
1772536715572477400,2.8994775390625,0.3959100842475891,0.13686072826385498,0.04472353681921959
1772536715582526200,2.909526123046875,0.4057267904281616,0.07118584215641022,0.1038542315363884
1772536715592575200,2.9195751953125,0.4069982171058655,-0.011715531349182129,0.17334531247615814
1772536715602624300,2.929624267578125,0.4111626148223877,-0.09092513471841812,0.24491137266159058
1772536715612672300,2.93967236328125,0.40406468510627747,-0.14250753819942474,0.2917519509792328
1772536715622721300,2.94972119140625,0.3856145739555359,-0.18729791045188904,0.29639625549316406
1772536715632770300,2.959770263671875,0.36425790190696716,-0.22812017798423767,0.25767388939857483
1772536715642819300,2.9698193359375,0.34285247325897217,-0.23822367191314697,0.19371993839740753
1772536715652868400,2.979868408203125,0.3316073417663574,-0.19639377295970917,0.1407061517238617
1772536715662917400,2.98991748046875,0.3246442377567291,-0.11389675736427307,0.09510590136051178
1772536715672966100,2.999966064453125,0.33018791675567627,-0.023953387513756752,0.05901253595948219
1772536715683014400,3.010014404296875,0.3341059684753418,0.056968625634908676,0.034960996359586716
1772536715693063200,3.020063232421875,0.32956135272979736,0.10284654051065445,0.011004979722201824
1772536715703112400,3.030112548828125,0.326337605714798,0.11043175309896469,-0.00830000825226307
1772536715713161200,3.0401611328125,0.3199462890625,0.08798995614051819,-0.022193899378180504
1772536715723210200,3.050210205078125,0.30062025785446167,0.036822643131017685,-0.026125257834792137
1772536715733259300,3.06025927734375,0.2639634311199188,-0.032434456050395966,-0.02154032699763775
1772536715743308300,3.070308349609375,0.22890610992908478,-0.08871237933635712,-0.024176057428121567
1772536715753356300,3.080356201171875,0.18577291071414948,-0.10366050153970718,-0.029538974165916443
1772536715763405300,3.0904052734375,0.14012153446674347,-0.06008239835500717,-0.0387393943965435
1772536715773454000,3.1004541015625,0.10178525745868683,0.018174156546592712,-0.06511363387107849
1772536715783503400,3.11050341796875,0.0717000663280487,0.0948588103055954,-0.10985686630010605
1772536715793552400,3.120552490234375,0.03850163146853447,0.16260243952274323,-0.1688629388809204
1772536715803601200,3.13060107421875,0.01136455312371254,0.2048255205154419,-0.22557522356510162
1772536715813650400,3.140650390625,0.0038092294707894325,0.2290978729724884,-0.2746870517730713
1772536715823698200,3.1506982421875,0.0017546005547046661,0.2455436885356903,-0.2972560226917267
1772536715833747500,3.16074755859375,0.005567621439695358,0.25888171792030334,-0.2941879332065582
1772536715843796200,3.170796142578125,0.005083725322037935,0.2586172819137573,-0.2709212303161621
1772536715853845200,3.18084521484375,0.0029852185398340225,0.22803862392902374,-0.2432730346918106
1772536715863894300,3.190894287109375,-0.003776547499001026,0.17334207892417908,-0.22685252130031586
1772536715873943300,3.200943359375,-0.016163595020771027,0.11463471502065659,-0.20491650700569153
1772536715883992300,3.210992431640625,-0.051124244928359985,0.043681178241968155,-0.20094865560531616
1772536715894040300,3.221040283203125,-0.08302194625139236,-0.020977938547730446,-0.20802167057991028
1772536715904089000,3.231089111328125,-0.10355651378631592,-0.05878017842769623,-0.2168697565793991
1772536715914138400,3.241138427734375,-0.11797487735748291,-0.05188032612204552,-0.2118852287530899
1772536715924187100,3.251187255859375,-0.12994739413261414,-0.03414180874824524,-0.20308774709701538
1772536715934236400,3.261236328125,-0.1311923861503601,-0.04118214175105095,-0.2069120854139328
1772536715944285400,3.271285400390625,-0.12154588103294373,-0.06076729670166969,-0.20553362369537354
1772536715954334200,3.281334228515625,-0.11764691770076752,-0.06829504668712616,-0.19510284066200256
1772536715964382200,3.29138232421875,-0.09755150973796844,-0.04194227233529091,-0.15948626399040222
1772536715974431200,3.30143115234375,-0.08841297030448914,0.00566365709528327,-0.11154588311910629
1772536715984480300,3.311480224609375,-0.07169418036937714,0.04832883179187775,-0.06358927488327026
1772536715994529300,3.321529296875,-0.06173479184508324,0.08200583606958389,-0.008559519425034523
1772536716004578300,3.331578369140625,-0.06889976561069489,0.08339307457208633,0.03887750208377838
1772536716014627300,3.34162744140625,-0.0774962455034256,0.06755070388317108,0.08780612796545029
1772536716024676400,3.35167626953125,-0.08553019911050797,0.06000383943319321,0.13828794658184052
1772536716034724400,3.361724365234375,-0.09811966866254807,0.05453839153051376,0.18005122244358063
1772536716044773400,3.3717734375,-0.11632929742336273,0.027060426771640778,0.2031823694705963
1772536716054822100,3.381822265625,-0.13193164765834808,-0.016926966607570648,0.205463707447052
1772536716064871400,3.391871337890625,-0.14586371183395386,-0.04605076462030411,0.1976422816514969
1772536716074920200,3.401920166015625,-0.15576106309890747,-0.04669485241174698,0.18312256038188934
1772536716084969200,3.41196923828125,-0.1569373905658722,-0.02606147900223732,0.16865120828151703
1772536716095018500,3.4220185546875,-0.15640372037887573,0.002826365642249584,0.1606777459383011
1772536716105066200,3.432066162109375,-0.1583789736032486,0.030762391164898872,0.1568364053964615
1772536716115115500,3.442115478515625,-0.15895408391952515,0.055727723985910416,0.15219563245773315
1772536716125164300,3.452164306640625,-0.16189420223236084,0.08517270535230637,0.15625454485416412
1772536716135213300,3.46221337890625,-0.15734638273715973,0.10552214831113815,0.16333292424678802
1772536716145262300,3.472262451171875,-0.15507204830646515,0.11460618674755096,0.17945677042007446
1772536716155311400,3.482311279296875,-0.1514667272567749,0.11032765358686447,0.2020827978849411
1772536716165360000,3.492360107421875,-0.1415158212184906,0.0928884744644165,0.22779402136802673
1772536716175408400,3.502408447265625,-0.12504500150680542,0.06626562029123306,0.2739052474498749
1772536716185457200,3.51245703125,-0.10443001240491867,0.045817598700523376,0.3258448839187622
1772536716195506400,3.52250634765625,-0.0878433883190155,0.015151578933000565,0.3662302494049072
1772536716205555200,3.53255517578125,-0.07814175635576248,-0.03643172234296799,0.3676995038986206
1772536716215604200,3.542604248046875,-0.09588994830846786,-0.1159624382853508,0.33977437019348145
1772536716225653500,3.552653564453125,-0.12635783851146698,-0.208528071641922,0.2767368257045746
1772536716235702300,3.562702392578125,-0.1720985323190689,-0.2609196603298187,0.20271028578281403
1772536716245750300,3.572750244140625,-0.2393694519996643,-0.3127801716327667,0.09661315381526947
1772536716255799300,3.58279931640625,-0.31224215030670166,-0.3291867673397064,-0.024080384522676468
1772536716265848300,3.592848388671875,-0.3751350939273834,-0.2999782860279083,-0.15398405492305756
1772536716275897300,3.6028974609375,-0.4253250062465668,-0.2512156665325165,-0.2657237946987152
1772536716285946400,3.6129462890625,-0.4625842273235321,-0.18054816126823425,-0.3492189645767212
1772536716295995100,3.6229951171875,-0.47743427753448486,-0.09335270524024963,-0.39620429277420044
1772536716306044400,3.63304443359375,-0.47075241804122925,-0.00666707893833518,-0.4149012863636017
1772536716316092200,3.643092041015625,-0.44239541888237,0.03701716288924217,-0.3865772783756256
1772536716326141400,3.653141357421875,-0.39124566316604614,0.06695109605789185,-0.3211279511451721
1772536716336190200,3.663190185546875,-0.33421245217323303,0.07624019682407379,-0.21549102663993835
1772536716346239200,3.6732392578125,-0.29329776763916016,0.03319632634520531,-0.09289798885583878
1772536716356288300,3.683288330078125,-0.27046680450439453,-0.058925479650497437,0.020744826644659042
1772536716366337300,3.693337158203125,-0.2430487424135208,-0.15133823454380035,0.11747190356254578
1772536716376386300,3.70338623046875,-0.225184366106987,-0.21004264056682587,0.18595978617668152
1772536716386434300,3.713434326171875,-0.22829200327396393,-0.22783415019512177,0.2157440483570099
1772536716396483000,3.723483154296875,-0.2303275167942047,-0.21565128862857819,0.19647124409675598
1772536716406532400,3.733532470703125,-0.23653055727481842,-0.17913588881492615,0.14016802608966827
1772536716416580600,3.74358056640625,-0.2623111605644226,-0.10141625255346298,0.06011693924665451
1772536716426630000,3.7536298828125,-0.28022730350494385,-0.012143096886575222,-0.03502209112048149
1772536716436678700,3.7636787109375,-0.29438316822052,0.08577300608158112,-0.1269686371088028
1772536716446727000,3.773726806640625,-0.28947657346725464,0.17885448038578033,-0.20275847613811493
1772536716456775700,3.783775634765625,-0.2819254696369171,0.2390444576740265,-0.24625812470912933
1772536716466824700,3.79382470703125,-0.25972670316696167,0.2582586407661438,-0.2649274170398712
1772536716476873700,3.803873779296875,-0.2344704568386078,0.23375068604946136,-0.2632218897342682
1772536716486922800,3.8139228515625,-0.20671099424362183,0.191977396607399,-0.23146848380565643
1772536716496971800,3.8239716796875,-0.19192548096179962,0.1455860435962677,-0.19163650274276733
1772536716507020800,3.834020751953125,-0.1838342547416687,0.0995599702000618,-0.1504208892583847
1772536716517068800,3.84406884765625,-0.1819726973772049,0.04355302080512047,-0.1228376179933548
1772536716527117800,3.854117919921875,-0.18498872220516205,-0.009688097983598709,-0.10932367295026779
1772536716537166800,3.864166748046875,-0.18830664455890656,-0.046994831413030624,-0.1154046505689621
1772536716547215600,3.874215576171875,-0.1837041825056076,-0.06502735614776611,-0.13047175109386444
1772536716557265000,3.884264892578125,-0.16859427094459534,-0.07465428113937378,-0.14831282198429108
1772536716567313700,3.894313720703125,-0.151060551404953,-0.06105937063694,-0.16143767535686493
1772536716577362700,3.90436279296875,-0.12648487091064453,-0.04488333687186241,-0.16267047822475433
1772536716587410700,3.91441064453125,-0.09867055714130402,-0.0283855851739645,-0.14591945707798004
1772536716597459700,3.924459716796875,-0.07179705798625946,-0.014838365837931633,-0.11999427527189255
1772536716607508700,3.9345087890625,-0.04929361119866371,-0.018171576783061028,-0.10017184168100357
1772536716617557800,3.944557861328125,-0.03173485025763512,-0.03473799303174019,-0.10043905675411224
1772536716627606500,3.9546064453125,-0.020777277648448944,-0.07324783504009247,-0.12558196485042572
1772536716637655800,3.96465576171875,-0.01275081280618906,-0.11417794972658157,-0.16045573353767395
1772536716647704800,3.974704833984375,-0.009916144423186779,-0.1337207555770874,-0.18877606093883514
1772536716657753600,3.984753662109375,-0.011346903629601002,-0.12368416786193848,-0.21246391534805298
1772536716667801900,3.9948017578125,-0.008363098837435246,-0.09466663748025894,-0.22200016677379608
1772536716677850600,4.0048505859375,-0.00014943070709705353,-0.05694126337766647,-0.21966581046581268
1772536716687900000,4.01489990234375,0.009026223793625832,-0.0088453758507967,-0.20698197185993195
1772536716697948700,4.02494873046875,0.03343590348958969,0.010193660855293274,-0.19091904163360596
1772536716707997700,4.034997802734375,0.061568472534418106,0.026158245280385017,-0.16245970129966736
1772536716718046700,4.045046630859375,0.08989671617746353,0.03330160677433014,-0.116852305829525
1772536716728094700,4.0550947265625,0.12129272520542145,0.03230585157871246,-0.05755462870001793
1772536716738143700,4.065143798828125,0.15272319316864014,0.012164304964244366,-0.0015893749659880996
1772536716748192800,4.07519287109375,0.1784472018480301,-0.027871794998645782,0.06584932655096054
1772536716758241500,4.085241455078125,0.2050934135913849,-0.08094410598278046,0.14190030097961426
1772536716768290800,4.095290771484375,0.22489748895168304,-0.13088183104991913,0.21840547025203705
1772536716778339800,4.10533984375,0.23725150525569916,-0.18603140115737915,0.2773450016975403
1772536716788388600,4.115388671875,0.2613126337528229,-0.19468320906162262,0.3258259892463684
1772536716798438000,4.12543798828125,0.2680889368057251,-0.17161405086517334,0.3557139039039612
1772536716808485600,4.135485595703125,0.27147701382637024,-0.1539469063282013,0.3532416820526123
1772536716818535000,4.145534912109375,0.26915261149406433,-0.15108667314052582,0.3225924074649811
1772536716828583700,4.155583740234375,0.2755380868911743,-0.11981050670146942,0.28871992230415344
1772536716838632700,4.1656328125,0.2813015580177307,-0.03635110333561897,0.2726719081401825
1772536716848681700,4.175681640625,0.32805439829826355,0.12760107219219208,0.29836875200271606
1772536716858730800,4.185730712890625,0.3789633512496948,0.27047157287597656,0.3295700252056122
1772536716868778800,4.19577880859375,0.415603905916214,0.29047271609306335,0.32834577560424805
1772536716878827800,4.205827880859375,0.4306139647960663,0.20836444199085236,0.29474368691444397
1772536716888876800,4.215876708984375,0.4225064814090729,0.08969584107398987,0.23844978213310242
1772536716898925800,4.22592578125,0.4038377106189728,0.004286408424377441,0.18245209753513336
1772536716908974600,4.235974609375,0.37075966596603394,-0.04818958416581154,0.13202939927577972
1772536716919023900,4.24602392578125,0.32644981145858765,-0.11176662892103195,0.07680939137935638
1772536716929073000,4.256072998046875,0.29352328181266785,-0.17648808658123016,0.020437726750969887
1772536716939121000,4.266120849609375,0.2841199040412903,-0.2021251916885376,-0.014769203029572964
1772536716949169700,4.276169677734375,0.2993624806404114,-0.1562839299440384,-0.012711644172668457
1772536716959218700,4.28621875,0.3269798755645752,-0.05921550467610359,0.023807942867279053
1772536716969268000,4.29626806640625,0.3613831400871277,0.03827749565243721,0.07306177914142609
1772536716979316700,4.306316650390625,0.3931392729282379,0.10699387639760971,0.12209874391555786
1772536716989365800,4.31636572265625,0.42901256680488586,0.1553739309310913,0.176070898771286
1772536716999414800,4.326414794921875,0.46750468015670776,0.19151295721530914,0.21981804072856903
1772536717009462800,4.336462890625,0.49694380164146423,0.2364940196275711,0.2637341022491455
1772536717019511800,4.34651171875,0.5070906281471252,0.2479579597711563,0.28428128361701965
1772536717029560800,4.356560791015625,0.5035776495933533,0.22795787453651428,0.26585114002227783
1772536717039609600,4.366609619140625,0.4676200747489929,0.16368615627288818,0.2044750452041626
1772536717049659000,4.376658935546875,0.40688803791999817,0.045620229095220566,0.1163550317287445
1772536717059707600,4.386707763671875,0.3356400728225708,-0.052528370171785355,0.03137313574552536
1772536717069756700,4.396756591796875,0.26353737711906433,-0.09866070747375488,-0.023870674893260002
1772536717079806000,4.406805908203125,0.2121085673570633,-0.09221040457487106,-0.04853222519159317
1772536717089853700,4.416853759765625,0.17069481313228607,-0.07475018501281738,-0.05844557657837868
1772536717099903000,4.426903076171875,0.1504308134317398,-0.0651974305510521,-0.06827849894762039
1772536717109951700,4.43695166015625,0.15045695006847382,-0.06902648508548737,-0.07739657163619995
1772536717120000800,4.447000732421875,0.15350677073001862,-0.06319832801818848,-0.09401064366102219
1772536717130049800,4.4570498046875,0.15299756824970245,-0.052842095494270325,-0.11597319692373276
1772536717140098800,4.467098876953125,0.1369921714067459,-0.06303790211677551,-0.151617631316185
1772536717150146800,4.477146728515625,0.10395698249340057,-0.09765740483999252,-0.18996156752109528
1772536717160195800,4.48719580078125,0.06737381964921951,-0.1365586668252945,-0.21978811919689178
1772536717170244600,4.49724462890625,0.041595492511987686,-0.1397494077682495,-0.23636630177497864
1772536717180294000,4.5072939453125,0.029838165268301964,-0.09139260649681091,-0.23050309717655182
1772536717190342700,4.5173427734375,0.029286358505487442,-0.006999427452683449,-0.22270828485488892
1772536717200391700,4.5273916015625,0.04427213966846466,0.06959328055381775,-0.2237212061882019
1772536717210440700,4.537440673828125,0.06283863633871078,0.1506950557231903,-0.22940412163734436
1772536717220488700,4.54748876953125,0.08175097405910492,0.2296052873134613,-0.2489226907491684
1772536717230537700,4.557537841796875,0.09956831485033035,0.2736619710922241,-0.2839334011077881
1772536717240586800,4.567586669921875,0.10798366367816925,0.2744424045085907,-0.32688796520233154
1772536717250635800,4.5776357421875,0.09791319072246552,0.2554183602333069,-0.3551454544067383
1772536717260684800,4.587684814453125,0.07911724597215652,0.22997255623340607,-0.3695932626724243
1772536717270733800,4.59773388671875,0.052694693207740784,0.19945620000362396,-0.34828823804855347
1772536717280782600,4.607782470703125,0.02716069668531418,0.18332433700561523,-0.2995821237564087
1772536717290830800,4.617830810546875,0.004232477396726608,0.17429248988628387,-0.24730615317821503
1772536717300879600,4.627879638671875,-0.019239768385887146,0.13347475230693817,-0.2084139585494995
1772536717310929000,4.637928955078125,-0.042639635503292084,0.07486630231142044,-0.1872900277376175
1772536717320977700,4.647977783203125,-0.05773469805717468,0.02100439742207527,-0.1741260290145874
1772536717331026700,4.658026611328125,-0.07295332849025726,-0.015087293460965157,-0.166721373796463
1772536717341075700,4.66807568359375,-0.07824316620826721,-0.036680467426776886,-0.15333233773708344
1772536717351124700,4.678124755859375,-0.07314880937337875,-0.04336713254451752,-0.12828902900218964
1772536717361172700,4.6881728515625,-0.0668012872338295,-0.06966818124055862,-0.09612838923931122
1772536717371221800,4.6982216796875,-0.049246788024902344,-0.07174757868051529,-0.04460713639855385
1772536717381270500,4.7082705078125,-0.04683548957109451,-0.029623661190271378,0.008152632042765617
1772536717391319800,4.71831982421875,-0.035661932080984116,0.006499188486486673,0.05647702142596245
1772536717401368800,4.728368896484375,-0.021607061848044395,0.059404656291007996,0.11161772906780243
1772536717411417600,4.73841748046875,-0.030454616993665695,0.10904837399721146,0.15340778231620789
1772536717421463600,4.748463623046875,-0.050485849380493164,0.1259802132844925,0.17713069915771484
1772536717431511300,4.75851123046875,-0.07192109525203705,0.10717643797397614,0.19120283424854279
1772536717441560600,4.768560546875,-0.09903329610824585,0.055227018892765045,0.18390481173992157
1772536717451609300,4.778609375,-0.12724123895168304,-0.010781554505228996,0.17057596147060394
1772536717461658400,4.788658447265625,-0.16085654497146606,-0.06164028123021126,0.1469719558954239
1772536717471707400,4.798707275390625,-0.1940499097108841,-0.09198114275932312,0.1137482225894928
1772536717481756400,4.80875634765625,-0.2239537239074707,-0.10700572282075882,0.08052018284797668
1772536717491805400,4.818805419921875,-0.24792003631591797,-0.10961508750915527,0.054380983114242554
1772536717501853400,4.828853515625,-0.25814899802207947,-0.0957372635602951,0.05122785270214081
1772536717511902200,4.838902099609375,-0.267411470413208,-0.045317765325307846,0.07716810703277588
1772536717521951500,4.848951416015625,-0.259173184633255,0.008297959342598915,0.11911281198263168
1772536717532000300,4.859000244140625,-0.2466110736131668,0.03927451744675636,0.16485846042633057
1772536717542049300,4.86904931640625,-0.2220263034105301,0.042828138917684555,0.20863193273544312
1772536717552098600,4.8790986328125,-0.19000232219696045,0.010052881203591824,0.26684117317199707
1772536717562147300,4.889147216796875,-0.15914732217788696,-0.038447875529527664,0.32359570264816284
1772536717572195600,4.899195556640625,-0.1335037499666214,-0.08188775926828384,0.3692244589328766
1772536717582244400,4.909244384765625,-0.11535618454217911,-0.11682137846946716,0.3940202593803406
1772536717592293400,4.91929345703125,-0.11761188507080078,-0.12285636365413666,0.38908275961875916
1772536717602342400,4.92934228515625,-0.13352493941783905,-0.12863335013389587,0.3556664288043976
1772536717612391400,4.939391357421875,-0.14902400970458984,-0.09323116391897202,0.30460163950920105
1772536717622440400,4.9494404296875,-0.17436951398849487,-0.04458822309970856,0.22631113231182098
1772536717632489500,4.959489501953125,-0.20989209413528442,-0.022730063647031784,0.11285381019115448
1772536717642537500,4.969537353515625,-0.26027923822402954,-0.0028152777813374996,-0.012061833404004574
1772536717652586500,4.97958642578125,-0.31603145599365234,0.04381374269723892,-0.12164771556854248
1772536717662635300,4.98963525390625,-0.36389651894569397,0.10076913982629776,-0.1985645890235901
1772536717672684500,4.9996845703125,-0.3872833251953125,0.17877952754497528,-0.2375175803899765
1772536717682733300,5.0097333984375,-0.40176117420196533,0.23595604300498962,-0.24463196098804474
1772536717692782300,5.0197822265625,-0.39783036708831787,0.24496817588806152,-0.22327207028865814
1772536717702831600,5.02983154296875,-0.38671693205833435,0.20310786366462708,-0.17407065629959106
1772536717712879400,5.03987939453125,-0.3603268563747406,0.15820324420928955,-0.08681459724903107
1772536717722928600,5.0499287109375,-0.333558052778244,0.15066902339458466,0.019595814868807793
1772536717732977400,5.059977294921875,-0.3055668771266937,0.1566491425037384,0.12441224604845047
1772536717743026400,5.0700263671875,-0.2713649272918701,0.1429741531610489,0.20989751815795898
1772536717753075500,5.080075439453125,-0.23108302056789398,0.10790006071329117,0.2557305097579956
1772536717763124500,5.09012451171875,-0.20286493003368378,0.03421331197023392,0.2550327181816101
1772536717773173200,5.10017333984375,-0.18724282085895538,-0.04920914024114609,0.22454404830932617
1772536717783221500,5.110221435546875,-0.1838456690311432,-0.09679819643497467,0.17399784922599792
1772536717793270300,5.120270263671875,-0.19298483431339264,-0.08874479681253433,0.113856740295887
1772536717803319600,5.130319580078125,-0.2281874120235443,-0.035797227174043655,0.04686402902007103
1772536717813368300,5.140368408203125,-0.2724262475967407,0.03722931072115898,-0.02857932820916176
1772536717823417300,5.150417236328125,-0.31676948070526123,0.092654749751091,-0.114191435277462
1772536717833466600,5.160466552734375,-0.344619482755661,0.12743110954761505,-0.19487881660461426
1772536717843515400,5.170515380859375,-0.3512252867221832,0.16286905109882355,-0.2543378472328186
1772536717853563400,5.1805634765625,-0.33838140964508057,0.17228998243808746,-0.2858816683292389
1772536717863612400,5.1906123046875,-0.30735376477241516,0.15777625143527985,-0.2805255353450775
1772536717873661400,5.200661376953125,-0.2635285258293152,0.13005994260311127,-0.24966351687908173
1772536717883710500,5.21071044921875,-0.21874356269836426,0.10090003162622452,-0.20317073166370392
1772536717893759500,5.220759521484375,-0.19040991365909576,0.07180233299732208,-0.15835745632648468
1772536717903808300,5.230808349609375,-0.17194393277168274,0.03772817924618721,-0.12601585686206818
1772536717913857500,5.240857421875,-0.16113150119781494,0.010612673126161098,-0.11402791738510132
1772536717923905300,5.2509052734375,-0.15372006595134735,-0.014378493651747704,-0.12203367054462433
1772536717933954600,5.26095458984375,-0.14215156435966492,-0.030410457402467728,-0.14147847890853882
1772536717944003300,5.27100341796875,-0.13041268289089203,-0.042617227882146835,-0.16040097177028656
1772536717954052400,5.28105224609375,-0.11291543394327164,-0.049533721059560776,-0.17890141904354095
1772536717964101400,5.291101318359375,-0.08328515291213989,-0.04670011252164841,-0.1913374960422516
1772536717974150400,5.301150390625,-0.052709661424160004,-0.04034234583377838,-0.21018123626708984
1772536717984199400,5.311199462890625,-0.01859421655535698,-0.052916161715984344,-0.23574943840503693
1772536717994247400,5.321247314453125,0.009127690456807613,-0.06774624437093735,-0.2425767183303833
1772536718004296200,5.331296142578125,0.028996046632528305,-0.09721511602401733,-0.2341250777244568
1772536718014345500,5.341345458984375,0.0428338348865509,-0.13923420011997223,-0.21379929780960083
1772536718024394500,5.35139453125,0.04351087287068367,-0.17060266435146332,-0.19119597971439362
1772536718034443300,5.361443359375,0.04713064059615135,-0.19359026849269867,-0.17615869641304016
1772536718044492500,5.371492431640625,0.0407615527510643,-0.18464313447475433,-0.17534101009368896
1772536718054540300,5.381540283203125,0.03611460328102112,-0.15948691964149475,-0.1730903834104538
1772536718064589600,5.391589599609375,0.030276212841272354,-0.12330228835344315,-0.1805846095085144
1772536718074638300,5.401638427734375,0.040580250322818756,-0.08848784863948822,-0.17368994653224945
1772536718084687400,5.411687255859375,0.07502114027738571,-0.04242058843374252,-0.13410301506519318
1772536718094736400,5.421736328125,0.12114975601434708,0.017541280016303062,-0.0653655007481575
1772536718104785400,5.431785400390625,0.15781067311763763,0.07341078668832779,0.01338309794664383
1772536718114834400,5.44183447265625,0.1878596544265747,0.10802415758371353,0.0812968984246254
1772536718124882400,5.45188232421875,0.20850098133087158,0.11238890886306763,0.12263108044862747
1772536718134931200,5.46193115234375,0.2124251425266266,0.09665175527334213,0.14440374076366425
1772536718144980500,5.47198046875,0.21445654332637787,0.051624592393636703,0.1655002236366272
1772536718155029200,5.482029296875,0.2196989804506302,-0.008624899201095104,0.19739024341106415
1772536718165078500,5.49207861328125,0.21914173662662506,-0.08602876961231232,0.2352115511894226
1772536718175127600,5.50212744140625,0.2111213654279709,-0.15339688956737518,0.2750106155872345
1772536718185176300,5.51217626953125,0.19825448095798492,-0.18752337992191315,0.2981675863265991
1772536718195224600,5.522224609375,0.18616026639938354,-0.18952420353889465,0.30148908495903015
1772536718205273300,5.5322734375,0.17584478855133057,-0.14248080551624298,0.29712921380996704
1772536718215322400,5.542322265625,0.17573213577270508,-0.06045277789235115,0.27211496233940125
1772536718225371400,5.552371337890625,0.2041826844215393,0.04575781524181366,0.23683980107307434
1772536718235420400,5.56242041015625,0.22578570246696472,0.11039246618747711,0.1810082197189331
1772536718245469400,5.572469482421875,0.23364154994487762,0.056772682815790176,0.09557115286588669
1772536718255518500,5.5825185546875,0.22200699150562286,-0.06500514596700668,0.004076655954122543
1772536718265566500,5.59256640625,0.18203537166118622,-0.19577555358409882,-0.05770353600382805
1772536718275615500,5.602615478515625,0.1402817964553833,-0.28025394678115845,-0.08195667713880539
1772536718285664300,5.612664306640625,0.09583549201488495,-0.3101111352443695,-0.056478872895240784
1772536718295713500,5.622713623046875,0.06790293008089066,-0.2904687225818634,-0.0021812804043293
1772536718305762600,5.632762451171875,0.051021821796894073,-0.2342110127210617,0.0661657527089119
1772536718315811300,5.642811279296875,0.08146122097969055,-0.10880303382873535,0.1392282396554947
1772536718325860600,5.652860595703125,0.13190661370754242,0.08212141692638397,0.19862796366214752
1772536718335908400,5.662908447265625,0.17201195657253265,0.2435678243637085,0.22115670144557953
1772536718345957600,5.67295751953125,0.20599833130836487,0.2878672182559967,0.18607263267040253
1772536718356006400,5.68300634765625,0.22489477694034576,0.24181903898715973,0.11648289859294891
1772536718366055400,5.693055419921875,0.2054327130317688,0.1424688845872879,0.05602683126926422
1772536718376104400,5.7031044921875,0.17414641380310059,0.02335446886718273,0.023090453818440437
1772536718386153500,5.713153564453125,0.14637382328510284,-0.042740024626255035,0.032308563590049744
1772536718396202200,5.7232021484375,0.1378898024559021,-0.06323491781949997,0.07788217812776566
1772536718406250500,5.73325048828125,0.15169890224933624,-0.055064573884010315,0.13949786126613617
1772536718416303000,5.74330322265625,0.17988286912441254,-0.04331923648715019,0.20020195841789246
1772536718426352000,5.75335205078125,0.20855608582496643,-0.03127225115895271,0.2378217726945877
1772536718436401200,5.763401123046875,0.21455033123493195,-0.01933463104069233,0.24843446910381317
1772536718446450000,5.773449951171875,0.20900751650333405,-0.011310664005577564,0.2264394909143448
1772536718456499200,5.783499267578125,0.1873035579919815,-0.003408532589673996,0.182061105966568
1772536718466547000,5.793546875,0.15552648901939392,0.00608287937939167,0.12116309255361557
1772536718476596200,5.80359619140625,0.1251017302274704,0.02871628664433956,0.04534129798412323
1772536718486645000,5.81364501953125,0.11116533726453781,0.07436198741197586,-0.03096776083111763
1772536718496694000,5.823694091796875,0.10752133280038834,0.11779948323965073,-0.09030831605195999
1772536718506743000,5.833742919921875,0.11539807915687561,0.11136125773191452,-0.1321718841791153
1772536718516792000,5.8437919921875,0.1242070198059082,0.05196690559387207,-0.14976419508457184
1772536718526840800,5.8538408203125,0.1309889256954193,-0.012474825605750084,-0.13827380537986755
1772536718536889000,5.86388916015625,0.13779489696025848,-0.05335488170385361,-0.10509028285741806
1772536718546937900,5.873937744140625,0.13651211559772491,-0.07134321331977844,-0.0624675527215004
1772536718556987100,5.883987060546875,0.13109363615512848,-0.06820014864206314,-0.02180321328341961
1772536718567036200,5.8940361328125,0.13310198485851288,-0.04263123869895935,0.00757989939302206
1772536718577085000,5.9040849609375,0.1338961273431778,0.0064478907734155655,0.023299474269151688
1772536718587134200,5.91413427734375,0.13658036291599274,0.07317250221967697,0.007185170892626047
1772536718597183000,5.924182861328125,0.14423508942127228,0.13240785896778107,-0.02934487722814083
1772536718607231200,5.934231201171875,0.14821279048919678,0.18786227703094482,-0.07988329976797104
1772536718617280000,5.944280029296875,0.1420033723115921,0.22753939032554626,-0.12571708858013153
1772536718627329000,5.9543291015625,0.1326904445886612,0.23582418262958527,-0.16111047565937042
1772536718637378000,5.9643779296875,0.11916585266590118,0.20869563519954681,-0.18694953620433807
1772536718647427000,5.974427001953125,0.1014985591173172,0.16908638179302216,-0.19576223194599152
1772536718657475800,5.984475830078125,0.07940097898244858,0.13174434006214142,-0.18594662845134735
1772536718667525000,5.994525146484375,0.0655059739947319,0.09795813262462616,-0.1689368039369583
1772536718677574100,6.00457421875,0.06038844585418701,0.06119053065776825,-0.14551031589508057
1772536718687622100,6.0146220703125,0.06331747770309448,0.025776952505111694,-0.12070069462060928
1772536718697671000,6.0246708984375,0.07386039942502975,0.006255449261516333,-0.09247012436389923
1772536718707720000,6.034719970703125,0.07833486050367355,-0.0025380123406648636,-0.07321812957525253
1772536718717769200,6.044769287109375,0.08157699555158615,0.004816306754946709,-0.05736539512872696
1772536718727818000,6.05481787109375,0.07349416613578796,0.012317297980189323,-0.05311533063650131
1772536718737867000,6.064866943359375,0.05924306437373161,0.022782988846302032,-0.04015053063631058
1772536718747916000,6.074916015625,0.04487954080104828,0.030569635331630707,-0.02911488711833954
1772536718757964000,6.084964111328125,0.02670000120997429,0.032062869518995285,-0.00754887517541647
1772536718768013000,6.095012939453125,0.016429012641310692,0.01453265082091093,0.014289427548646927
1772536718778062000,6.10506201171875,0.00940998550504446,-0.007182498462498188,0.04376848787069321
1772536718788110800,6.11511083984375,0.00267826858907938,-0.015505978837609291,0.07725207507610321
1772536718798160100,6.12516015625,-0.005346101708710194,-0.012614318169653416,0.10059068351984024
1772536718808209000,6.135208984375,-0.012065340764820576,0.009974583052098751,0.10848136246204376
1772536718818258000,6.1452578125,-0.01994696632027626,0.05228821933269501,0.1047915518283844
1772536718828306000,6.155305908203125,-0.041143257170915604,0.07987313717603683,0.08486513793468475
1772536718838355000,6.16535498046875,-0.06177610158920288,0.06363717466592789,0.06419048458337784
1772536718848404000,6.175404052734375,-0.08151915669441223,0.03217485547065735,0.06355847418308258
1772536718858453000,6.185452880859375,-0.0976315513253212,0.02049929089844227,0.080870620906353
1772536718868502000,6.195501953125,-0.10894804447889328,0.0210411436855793,0.10385971516370773
1772536718878551000,6.205551025390625,-0.1241413801908493,0.017470110207796097,0.10043489187955856
1772536718888599000,6.21559912109375,-0.1335671842098236,0.014477355405688286,0.08353409171104431
1772536718898648000,6.22564794921875,-0.13742771744728088,0.03189869225025177,0.0608745813369751
1772536718908697000,6.235697021484375,-0.12938237190246582,0.04191213846206665,0.03969016671180725
1772536718918746000,6.24574609375,-0.1067817211151123,0.036185815930366516,0.02667955681681633
1772536718928795100,6.255795166015625,-0.0809938907623291,0.010274957865476608,0.033868372440338135
1772536718938844000,6.265843994140625,-0.04652459919452667,-0.01438830979168415,0.05736597627401352
1772536718948893200,6.27589306640625,-0.013190986588597298,-0.047016896307468414,0.09903528541326523
1772536718958941000,6.28594091796875,0.01158759742975235,-0.050890468060970306,0.14604780077934265
1772536718968990200,6.295990234375,0.03384488821029663,-0.017343102023005486,0.19828005135059357
1772536718979039000,6.3060390625,0.063377745449543,0.003584283869713545,0.24831128120422363
1772536718989088000,6.316087890625,0.08601431548595428,0.014055438339710236,0.28319862484931946
1772536718999137000,6.326136962890625,0.1059398204088211,0.004813738167285919,0.29819461703300476
1772536719009186000,6.33618603515625,0.1185234859585762,-0.038465019315481186,0.28027161955833435
1772536719019235000,6.346235107421875,0.11027541011571884,-0.11577099561691284,0.22411006689071655
1772536719029283000,6.356282958984375,0.08029862493276596,-0.18412049114704132,0.14922568202018738
1772536719039332000,6.36633203125,0.02619224414229393,-0.22072990238666534,0.05492394044995308
1772536719049381000,6.376381103515625,-0.0352928601205349,-0.22123068571090698,-0.027069885283708572
1772536719059430100,6.38643017578125,-0.08820827305316925,-0.17953276634216309,-0.08929064869880676
1772536719069479000,6.39647900390625,-0.11500704288482666,-0.09912627190351486,-0.12133817374706268
1772536719079528200,6.406528076171875,-0.1182936429977417,0.007222007028758526,-0.12123563885688782
1772536719089577000,6.416576904296875,-0.1009732335805893,0.10312150418758392,-0.10620410740375519
1772536719099625200,6.426625244140625,-0.07180550694465637,0.1587783694267273,-0.08685944229364395
1772536719109674000,6.436674072265625,-0.04443133994936943,0.16956444084644318,-0.055381812155246735
1772536719119723000,6.446722900390625,-0.02571437880396843,0.1559666097164154,-0.012509710155427456
1772536719129772000,6.45677197265625,-0.020034022629261017,0.11928415298461914,0.03727596998214722
1772536719139821000,6.466821044921875,-0.026033058762550354,0.05507880821824074,0.08780865371227264
1772536719149870000,6.4768701171875,-0.04819509759545326,-0.017919369041919708,0.13998092710971832
1772536719159919000,6.486919189453125,-0.06989053636789322,-0.07762797176837921,0.1701233834028244
1772536719169966800,6.496966796875,-0.09022797644138336,-0.12152016162872314,0.18199408054351807
1772536719180016000,6.50701611328125,-0.11195804178714752,-0.14879785478115082,0.1695541888475418
1772536719190065200,6.517065185546875,-0.13421140611171722,-0.14489325881004333,0.13442347943782806
1772536719200114000,6.527114013671875,-0.15639367699623108,-0.10656212270259857,0.07617881894111633
1772536719210163200,6.5371630859375,-0.1875995397567749,-0.04546920582652092,0.006898283027112484
1772536719220212000,6.5472119140625,-0.22647316753864288,0.011151198297739029,-0.07563600689172745
1772536719230261000,6.557260986328125,-0.2660548686981201,0.050681598484516144,-0.16414906084537506
1772536719240309000,6.56730908203125,-0.303347647190094,0.06357529014348984,-0.2521771788597107
1772536719250358000,6.57735791015625,-0.3293810188770294,0.06493477523326874,-0.3096868097782135
1772536719260407000,6.587406982421875,-0.34609341621398926,0.07353172451257706,-0.3293968737125397
1772536719270456000,6.5974560546875,-0.353620320558548,0.06365486234426498,-0.3171127736568451
1772536719280504800,6.6075048828125,-0.34372374415397644,0.05243709310889244,-0.284206748008728
1772536719290554000,6.61755419921875,-0.32430797815322876,0.04709542170166969,-0.24225389957427979
1772536719300603100,6.62760302734375,-0.294999361038208,0.04730607941746712,-0.20457151532173157
1772536719310651100,6.637651123046875,-0.2645181715488434,0.04709222540259361,-0.17158399522304535
1772536719320700000,6.647699951171875,-0.23937366902828217,0.0381634458899498,-0.16252632439136505
1772536719330749000,6.6577490234375,-0.21614643931388855,0.01320826169103384,-0.15649136900901794
1772536719340798200,6.667798095703125,-0.2053270787000656,-0.007607006002217531,-0.1449018269777298
1772536719350847000,6.677846923828125,-0.20434874296188354,-0.03214197978377342,-0.12831176817417145
1772536719360896000,6.68789599609375,-0.21852394938468933,-0.0717541053891182,-0.12378866225481033
1772536719370945000,6.697945068359375,-0.23220348358154297,-0.12744130194187164,-0.11594001948833466
1772536719380993000,6.707992919921875,-0.24207717180252075,-0.17369134724140167,-0.10413049906492233
1772536719391042000,6.7180419921875,-0.24255728721618652,-0.19233642518520355,-0.09270744025707245
1772536719401091000,6.728091064453125,-0.23598994314670563,-0.18715551495552063,-0.07956980168819427
1772536719411139800,6.738139892578125,-0.22123773396015167,-0.1665838211774826,-0.07277566194534302
1772536719421185300,6.748185302734375,-0.20428112149238586,-0.13180692493915558,-0.0752721056342125
1772536719431234300,6.758234375,-0.18542304635047913,-0.10370142012834549,-0.09187684208154678
1772536719441282300,6.7682822265625,-0.16933701932430267,-0.06790054589509964,-0.12135403603315353
1772536719451331000,6.7783310546875,-0.15679609775543213,-0.022806232795119286,-0.14216439425945282
1772536719461380400,6.78838037109375,-0.14075054228305817,0.029136061668395996,-0.15780088305473328
1772536719471429400,6.798429443359375,-0.12072812765836716,0.07310027629137039,-0.1525851935148239
1772536719481478100,6.80847802734375,-0.1026386097073555,0.12050187587738037,-0.13360804319381714
1772536719491527400,6.81852734375,-0.09143661707639694,0.13604725897312164,-0.09542074799537659
1772536719501576200,6.828576171875,-0.07213535904884338,0.14149262011051178,-0.041687481105327606
1772536719511624400,6.83862451171875,-0.054779451340436935,0.1632823646068573,0.01182420365512371
1772536719521673200,6.848673095703125,-0.017481885850429535,0.1272900104522705,0.06051504611968994
1772536719531722200,6.85872216796875,0.014097809791564941,0.07773458957672119,0.11187464743852615
1772536719541771300,6.868771240234375,0.04492070525884628,0.02928236871957779,0.1617671102285385
1772536719551820300,6.8788203125,0.07223301380872726,-0.0144811337813735,0.19328811764717102
1772536719561869000,6.888869140625,0.0915454551577568,-0.06839390099048615,0.20856215059757233
1772536719571918300,6.89891845703125,0.10394218564033508,-0.1254262924194336,0.20739945769309998
1772536719581966000,6.908966064453125,0.11021499335765839,-0.16126924753189087,0.19785335659980774
1772536719592015400,6.919015380859375,0.10944385081529617,-0.17795999348163605,0.17647361755371094
1772536719602064100,6.929064208984375,0.10595537722110748,-0.17734187841415405,0.1409374624490738
1772536719612113200,6.939113037109375,0.11251600086688995,-0.14422328770160675,0.11363068222999573
1772536719622162400,6.949162353515625,0.1212887167930603,-0.06330154091119766,0.09972259402275085
1772536719632211200,6.959211181640625,0.17030134797096252,0.06452520936727524,0.10678786039352417
1772536719642259500,6.969259521484375,0.24375292658805847,0.2232711911201477,0.15061630308628082
1772536719652308200,6.97930810546875,0.29755479097366333,0.36813122034072876,0.2093566209077835
1772536719662357200,6.989357177734375,0.3584035038948059,0.4283974766731262,0.26001688838005066
1772536719672406300,6.99940625,0.41948309540748596,0.3523522615432739,0.26352107524871826
1772536719682455300,7.009455322265625,0.43767815828323364,0.19444508850574493,0.2350488156080246
1772536719692504000,7.019504150390625,0.42737749218940735,0.03995055332779884,0.2060704231262207
1772536719702553300,7.02955322265625,0.3998497426509857,-0.08783004432916641,0.1737830638885498
1772536719712601000,7.03960107421875,0.3679366409778595,-0.172080397605896,0.13096646964550018
1772536719722650400,7.049650390625,0.33902058005332947,-0.19337929785251617,0.07719484716653824
1772536719732699100,7.05969921875,0.30346551537513733,-0.1773899495601654,0.013865645043551922
1772536719742748200,7.069748046875,0.264595091342926,-0.13251088559627533,-0.05820402130484581
1772536719752797400,7.07979736328125,0.23329965770244598,-0.07231220602989197,-0.11509207636117935
1772536719762846200,7.08984619140625,0.21739846467971802,-0.012383362278342247,-0.1411290168762207
1772536719772895200,7.099895263671875,0.22080956399440765,0.02844034507870674,-0.13214406371116638
1772536719782943200,7.109943115234375,0.24314230680465698,0.05327059328556061,-0.09430454671382904
1772536719792992300,7.1199921875,0.2811361253261566,0.05525840073823929,-0.04449467733502388
1772536719803041300,7.130041259765625,0.313639760017395,0.049168817698955536,0.02043159119784832
1772536719813090300,7.14009033203125,0.32806769013404846,0.05452873930335045,0.08194805681705475
1772536719823139000,7.15013916015625,0.32646527886390686,0.07827827334403992,0.11646954715251923
1772536719833188400,7.160188232421875,0.31280386447906494,0.1108495220541954,0.1305793970823288
1772536719843237000,7.170237060546875,0.2931119203567505,0.11960120499134064,0.10943709313869476
1772536719853285400,7.180285400390625,0.26824891567230225,0.09903853386640549,0.06894596666097641
1772536719863334100,7.190334228515625,0.2414173036813736,0.06926386058330536,0.02328793704509735
1772536719873383200,7.200383056640625,0.22710107266902924,0.0475236177444458,-0.013444275595247746
1772536719883432200,7.21043212890625,0.2322731912136078,0.043040718883275986,-0.028638407588005066
1772536719893481200,7.220481201171875,0.24693749845027924,0.04732155054807663,-0.026089154183864594
1772536719903530200,7.2305302734375,0.2718183398246765,0.038990117609500885,-0.009290732443332672
1772536719913578200,7.240578125,0.2947291135787964,0.005252727773040533,0.024941617622971535
1772536719923627300,7.250627197265625,0.30982711911201477,-0.030892493203282356,0.06710025668144226
1772536719933676300,7.26067626953125,0.31376340985298157,-0.07016673684120178,0.1139877438545227
1772536719943725300,7.270725341796875,0.304994136095047,-0.10043036192655563,0.1526792198419571
1772536719953774300,7.2807744140625,0.28091222047805786,-0.11658216267824173,0.16320304572582245
1772536719963823400,7.2908232421875,0.2564694583415985,-0.13174700736999512,0.14517344534397125
1772536719973872000,7.3008720703125,0.22332876920700073,-0.1512134075164795,0.08546023815870285
1772536719983920400,7.31092041015625,0.19340255856513977,-0.17031919956207275,0.013121860101819038
1772536719993969200,7.32096923828125,0.1647612601518631,-0.1471337527036667,-0.049574315547943115
1772536720004018400,7.331018310546875,0.1457742601633072,-0.09701626002788544,-0.09973415732383728
1772536720014067200,7.341067138671875,0.1347082108259201,-0.03395560383796692,-0.1303955763578415
1772536720024116200,7.3511162109375,0.11670869588851929,0.020468490198254585,-0.141897514462471
1772536720034165200,7.361165283203125,0.09603900462388992,0.040081847459077835,-0.15031808614730835
1772536720044214300,7.37121435546875,0.09577721357345581,0.06427107006311417,-0.15041609108448029
1772536720054262300,7.38126220703125,0.1041337102651596,0.11530619859695435,-0.15024276077747345
1772536720064311300,7.391311279296875,0.11787401884794235,0.17384938895702362,-0.15589505434036255
1772536720074360000,7.401360107421875,0.13165158033370972,0.2055090218782425,-0.16449686884880066
1772536720084409300,7.411409423828125,0.1403486728668213,0.20054568350315094,-0.1718759536743164
1772536720094458400,7.421458251953125,0.14036604762077332,0.17927251756191254,-0.17486441135406494
1772536720104507100,7.431507080078125,0.1325664520263672,0.15372268855571747,-0.18116678297519684
1772536720114555400,7.441555419921875,0.12106746435165405,0.12782303988933563,-0.18358881771564484
1772536720124604200,7.451604248046875,0.10178777575492859,0.10282155871391296,-0.1780635565519333
1772536720134653400,7.4616533203125,0.08748835325241089,0.0792732834815979,-0.1768772453069687
1772536720144702200,7.4717021484375,0.07311101257801056,0.05803483724594116,-0.18008209764957428
1772536720154751200,7.481751220703125,0.07034441083669662,0.0382162369787693,-0.17649298906326294
1772536720164800300,7.49180029296875,0.0717172622680664,0.03198656812310219,-0.15677841007709503
1772536720174849300,7.501849365234375,0.07821665704250336,0.02906038612127304,-0.12894991040229797
1772536720184897300,7.511897216796875,0.07779880613088608,0.021624574437737465,-0.10361579060554504
1772536720194946300,7.5219462890625,0.07212818413972855,0.013836017809808254,-0.07877328991889954
1772536720204995000,7.5319951171875,0.06540077924728394,0.014873319305479527,-0.05893779546022415
1772536720215044400,7.54204443359375,0.048179082572460175,0.013960493728518486,-0.04415654391050339
1772536720225093400,7.55209326171875,0.027605634182691574,-0.00900953821837902,-0.03516171872615814
1772536720235142100,7.56214208984375,0.0021715424954891205,-0.040870558470487595,-0.02287277579307556
1772536720245191400,7.57219140625,-0.015394134446978569,-0.0771513283252716,-0.0016519108321517706
1772536720255239200,7.5822392578125,-0.02584598958492279,-0.09379035979509354,0.028814004734158516
1772536720265288400,7.592288330078125,-0.037300776690244675,-0.08173263072967529,0.06078791618347168
1772536720275337200,7.602337158203125,-0.05539992079138756,-0.07068441808223724,0.09145185351371765
1772536720285386200,7.61238623046875,-0.06721849739551544,-0.046325813978910446,0.12703408300876617
1772536720295435300,7.622435302734375,-0.08264341950416565,-0.015183270908892155,0.14149117469787598
1772536720305484300,7.632484375,-0.10192443430423737,-0.02054101973772049,0.1329813003540039
1772536720315532300,7.6425322265625,-0.12708117067813873,-0.030848253518342972,0.09677878767251968
1772536720325581300,7.652581298828125,-0.15429921448230743,-0.052901092916727066,0.05028212070465088
1772536720335630000,7.662630126953125,-0.18843001127243042,-0.0639546737074852,0.003845004830509424
1772536720345679400,7.672679443359375,-0.2178824543952942,-0.09039559960365295,-0.03501877188682556
1772536720355728100,7.68272802734375,-0.2438814789056778,-0.09646931290626526,-0.04774245247244835
1772536720365777200,7.692777099609375,-0.25214657187461853,-0.08843429386615753,-0.028656378388404846
1772536720375826400,7.702826416015625,-0.25909799337387085,-0.02709893323481083,0.0005712942220270634
1772536720385874200,7.712874267578125,-0.23877090215682983,0.01248922385275364,0.04723307117819786
1772536720395923200,7.722923095703125,-0.22747111320495605,-0.008280057460069656,0.08405134826898575
1772536720405972200,7.73297216796875,-0.19770096242427826,-0.061833031475543976,0.1105189099907875
1772536720416021200,7.743021240234375,-0.1981591135263443,-0.15058308839797974,0.10101056098937988
1772536720426070500,7.753070556640625,-0.21012629568576813,-0.26286250352859497,0.07896491885185242
1772536720436119300,7.763119384765625,-0.24059513211250305,-0.3284178674221039,0.03727150708436966
1772536720446168300,7.773168212890625,-0.2708345055580139,-0.32410967350006104,-0.00716253649443388
1772536720456216300,7.78321630859375,-0.31448984146118164,-0.28484174609184265,-0.07948349416255951
1772536720466265300,7.793265380859375,-0.3424953818321228,-0.23806120455265045,-0.1375097781419754
1772536720476314400,7.803314453125,-0.33955979347229004,-0.11889685690402985,-0.18889766931533813
1772536720486363400,7.81336328125,-0.2969937026500702,0.07545318454504013,-0.1989540308713913
1772536720496412200,7.823412109375,-0.2504826486110687,0.29683244228363037,-0.17607805132865906
1772536720506461400,7.83346142578125,-0.21958518028259277,0.4325721561908722,-0.1398199200630188
1772536720516509200,7.84350927734375,-0.20067335665225983,0.3999471962451935,-0.10725146532058716
1772536720526558500,7.853558349609375,-0.17905035614967346,0.27937257289886475,-0.07279601693153381
1772536720536607200,7.863607177734375,-0.16703008115291595,0.1484193205833435,0.0009567702654749155
1772536720546656300,7.87365625,-0.1706559658050537,0.04131069779396057,0.09205232560634613
1772536720556705500,7.88370556640625,-0.17681823670864105,-0.04856663942337036,0.17846064269542694
1772536720566754300,7.89375439453125,-0.1775362342596054,-0.1255466490983963,0.23173052072525024
1772536720576803300,7.90380322265625,-0.1713026463985443,-0.1832401603460312,0.2458019107580185
1772536720586851300,7.913851318359375,-0.15972881019115448,-0.20656491816043854,0.22258074581623077
1772536720596900400,7.923900390625,-0.14813929796218872,-0.17127087712287903,0.1774275004863739
1772536720606949400,7.933949462890625,-0.14451099932193756,-0.07835452258586884,0.11579929292201996
1772536720616998400,7.943998291015625,-0.1512700617313385,0.017616381868720055,0.04427018389105797
1772536720627047400,7.95404736328125,-0.16925863921642303,0.08218525350093842,-0.0358736515045166
1772536720637096400,7.964096435546875,-0.19456760585308075,0.09322932362556458,-0.1050141379237175
1772536720647145200,7.974145263671875,-0.21452081203460693,0.08101606369018555,-0.14431867003440857
1772536720657193500,7.984193359375,-0.21244168281555176,0.09992371499538422,-0.15094968676567078
1772536720667242200,7.9942421875,-0.1946786642074585,0.13019852340221405,-0.11785244196653366
1772536720677291500,8.00429150390625,-0.1690659373998642,0.15076157450675964,-0.07244990766048431
1772536720687340300,8.01434033203125,-0.13397400081157684,0.16654080152511597,-0.03144228085875511
1772536720697389300,8.024389404296874,-0.09792198240756989,0.15231767296791077,-0.00920408871024847
1772536720707438600,8.0344384765625,-0.07346644252538681,0.13701432943344116,-0.002669223817065358
1772536720717486300,8.044486328125,-0.05529075115919113,0.13683272898197174,-0.007472272962331772
1772536720727535400,8.054535400390625,-0.035700004547834396,0.14162136614322662,-0.02124001644551754
1772536720737584400,8.06458447265625,-0.02128680795431137,0.1373189091682434,-0.029663091525435448
1772536720747633400,8.07463330078125,-0.011745501309633255,0.12389951944351196,-0.02926415018737316
1772536720757682400,8.084682373046874,0.004194893874228001,0.1283147931098938,-0.013591893017292023
1772536720767731500,8.0947314453125,-0.0009766984730958939,0.06797369569540024,-0.01282037515193224
1772536720777780200,8.1047802734375,0.000012463890016078949,-0.047845277935266495,-0.011846950277686119
1772536720787828500,8.114828369140625,-0.00026663579046726227,-0.15807326138019562,-0.002325350884348154
1772536720797877200,8.124877197265626,-0.013441933318972588,-0.22968438267707825,0.01605619303882122
1772536720807926500,8.134926513671875,-0.0271803829818964,-0.2505401372909546,0.03820250928401947
1772536720817975300,8.144975341796876,-0.0373738668859005,-0.23209042847156525,0.040037743747234344
1772536720828024300,8.1550244140625,-0.05242285877466202,-0.17334535717964172,0.02213624119758606
1772536720838073600,8.165073486328126,-0.05507328733801842,-0.09828934818506241,-0.01999497041106224
1772536720848121300,8.175121337890625,-0.05057733878493309,-0.016187287867069244,-0.07530535757541656
1772536720858170400,8.18517041015625,-0.037606529891490936,0.05085545778274536,-0.12940558791160583
1772536720868219400,8.195219482421875,-0.024375412613153458,0.1135883554816246,-0.1746838390827179
1772536720878268400,8.205268310546876,0.0013267979957163334,0.13699091970920563,-0.19977207481861115
1772536720888317400,8.2153173828125,0.02753576636314392,0.13019293546676636,-0.20150233805179596
1772536720898366500,8.225366455078126,0.04787278175354004,0.1293558031320572,-0.17518185079097748
1772536720908415200,8.235415283203125,0.06489996612071991,0.1443432718515396,-0.14091628789901733
1772536720918463500,8.24546337890625,0.08513817191123962,0.12214767932891846,-0.09877345710992813
1772536720928512300,8.25551220703125,0.0954722985625267,0.11178559064865112,-0.037515684962272644
1772536720938561500,8.2655615234375,0.11710721254348755,0.11661000549793243,0.024307850748300552
1772536720948610300,8.2756103515625,0.15981793403625488,0.13086937367916107,0.08139084279537201
1772536720958659300,8.285659423828125,0.20421765744686127,0.12106084823608398,0.1328238695859909
1772536720968708400,8.295708251953124,0.2435442954301834,0.07578764855861664,0.17916393280029297
1772536720978756400,8.30575634765625,0.2776387333869934,0.019621916115283966,0.22305667400360107
1772536720988805400,8.315805419921874,0.29899701476097107,-0.01723783276975155,0.2624962329864502
1772536720998854400,8.3258544921875,0.302425742149353,-0.04265125095844269,0.29482781887054443
1772536721008903200,8.335903076171874,0.2853599190711975,-0.06380527466535568,0.2903566360473633
1772536721018952400,8.345952392578125,0.274361252784729,-0.03858867287635803,0.2749815285205841
1772536721029001500,8.35600146484375,0.2523438334465027,0.03494307026267052,0.24532295763492584
1772536721039050200,8.36605029296875,0.2366698533296585,0.11106250435113907,0.20828066766262054
1772536721049098500,8.376098388671876,0.23299628496170044,0.19000710546970367,0.18549279868602753
1772536721059147300,8.386147216796875,0.2523899972438812,0.2811450660228729,0.17622779309749603
1772536721069196500,8.396196533203126,0.2945696711540222,0.33175498247146606,0.17375291883945465
1772536721079245300,8.406245361328125,0.3336382210254669,0.2767396569252014,0.14797170460224152
1772536721089294300,8.41629443359375,0.3332083821296692,0.1220446228981018,0.10273445397615433
1772536721099343400,8.42634326171875,0.30052947998046875,-0.03773895278573036,0.05649550259113312
1772536721109392400,8.436392333984376,0.24387472867965698,-0.1536724716424942,0.028790906071662903
1772536721119440400,8.4464404296875,0.17866303026676178,-0.22484001517295837,0.012548021972179413
1772536721129489400,8.456489501953126,0.12135899066925049,-0.24387042224407196,0.011532025411725044
1772536721139538200,8.4665380859375,0.07107961177825928,-0.24305665493011475,0.006638723891228437
1772536721149587500,8.47658740234375,0.08338873833417892,-0.18149316310882568,0.04077325761318207
1772536721159636200,8.48663623046875,0.08771094679832458,-0.05590108409523964,0.10119635611772537
1772536721169685200,8.496685302734376,0.12282446026802063,0.06491747498512268,0.16186583042144775
1772536721179733200,8.506733154296874,0.17967179417610168,0.18496643006801605,0.1827707290649414
1772536721189782300,8.5167822265625,0.2465887814760208,0.27628302574157715,0.16208302974700928
1772536721199831600,8.52683154296875,0.2961694300174713,0.31447237730026245,0.13361558318138123
1772536721209880300,8.53688037109375,0.3212457597255707,0.2685326039791107,0.10519246011972427
1772536721219929300,8.546929443359375,0.3222973048686981,0.1730700433254242,0.0951753705739975
1772536721229978400,8.556978271484375,0.3065977096557617,0.0911424309015274,0.11450912058353424
1772536721240026400,8.5670263671875,0.2720699608325958,0.04981476813554764,0.15624035894870758
1772536721250075400,8.577075439453125,0.2294663041830063,0.025794116780161858,0.17655201256275177
1772536721260124400,8.58712451171875,0.1887046992778778,0.02976405806839466,0.17401450872421265
1772536721270173200,8.597173095703125,0.14653168618679047,0.07512674480676651,0.14522388577461243
1772536721280222500,8.607222412109374,0.11015866696834564,0.11813556402921677,0.10758079588413239
1772536721290271200,8.617271240234375,0.09304998815059662,0.11224252730607986,0.038025952875614166
1772536721300320500,8.627320556640624,0.10838711261749268,0.09093599766492844,-0.05295857414603233
1772536721310368300,8.6373681640625,0.12346619367599487,0.0919456034898758,-0.12416563928127289
1772536721320417300,8.647417236328126,0.13693571090698242,0.13243713974952698,-0.15882712602615356
1772536721330466300,8.65746630859375,0.1350400745868683,0.1281696856021881,-0.17216236889362335
1772536721340515300,8.667515380859374,0.1190127283334732,0.08344978839159012,-0.15100398659706116
1772536721350564400,8.677564453125,0.11184324324131012,0.0008262773044407368,-0.09420515596866608
1772536721360613400,8.68761328125,0.0722961276769638,-0.2584003508090973,-0.09280754625797272
1772536721370661400,8.697661376953125,0.058334238827228546,-0.44443145394325256,-0.10573399811983109
1772536721380710400,8.70771044921875,0.04433077573776245,-0.4210783541202545,-0.11015909165143967
1772536721390759400,8.717759521484375,0.024506203830242157,-0.29445329308509827,-0.12545070052146912
1772536721400808400,8.727808349609376,-0.0025306763127446175,-0.1719670295715332,-0.16398392617702484
1772536721410857500,8.737857421875,-0.02458804100751877,-0.07199569046497345,-0.22146612405776978
1772536721420906000,8.747906005859376,-0.030488964170217514,0.0062752095982432365,-0.277371346950531
1772536721430955000,8.757955078125,-0.03004102036356926,0.08993975073099136,-0.3167341947555542
1772536721441003000,8.7680029296875,-0.01890736073255539,0.15999725461006165,-0.32819804549217224
1772536721451052000,8.778052001953125,-0.0051196422427892685,0.18921159207820892,-0.3142867386341095
