time,seconds_elapsed,z,y,x
1772537091093360400,0.0753603515625,2.6833342438459393,1.5630904434770345,0.21830723536014557
1772537091103409400,0.085409423828125,2.4356705656200646,1.3996245131120084,0.09031579234972596
1772537091113457400,0.09545751953125,2.4048235919356347,1.2714502608805893,-0.20490400229915975
1772537091123505400,0.10550537109375,2.4799907688617706,1.5326222399771212,-0.11154957290589809
1772537091133554400,0.115554443359375,2.4135160169571637,1.818369565142691,-0.29245939002484084
1772537091143602400,0.1256025390625,2.1447002451092003,1.769683567906916,-0.48564285165295
1772537091153650400,0.135650390625,1.933977765789628,1.5731117790147662,-0.40557537199724464
1772537091163699500,0.145699462890625,1.6762199790507555,1.2996204165711998,-0.24586583502367138
1772537091173747500,0.15574755859375,1.3456529766887426,1.0421347247719763,-0.045411761338077485
1772537091183796500,0.16579638671875,1.0878741471618414,0.89215371440202,0.1344251658523455
1772537091193844200,0.17584423828125,0.38646658423840996,0.7522884398549795,0.28302312436606736
1772537091203892500,0.185892578125,-0.7431506091535091,0.3842489081889391,0.2860937639830634
1772537091213941200,0.195941162109375,-1.872040657314658,-0.2674593888029456,0.2855575747471303
1772537091223989500,0.205989501953125,-2.7274609703421593,-0.807745246399939,0.32014713249336924
1772537091234037500,0.21603759765625,-3.338254780882597,-1.320832715947926,0.28576869674716143
1772537091244086500,0.22608642578125,-3.5812633267790077,-1.3039298042029142,0.68428231366463
1772537091254134500,0.236134521484375,-4.923199328771234,-0.9777309339225292,1.356037154189497
1772537091264183600,0.24618359375,-5.7269104973495,-1.8567217998906969,0.9558408814147115
1772537091274231600,0.2562314453125,-6.038185939264297,-2.1104805801212785,-0.013320221819495782
1772537091284279300,0.266279296875,-6.895645064643025,-1.750622893606126,-0.45095085644554345
1772537091294328600,0.27632861328125,-7.092504438304901,-2.5134040859028697,-0.2409176745643839
1772537091304376300,0.286376220703125,-7.0365428971081965,-3.044823915477097,0.2873785065639764
1772537091314424600,0.296424560546875,-7.811922289693355,-2.8682617721736428,1.3468185133367776
1772537091324473300,0.306473388671875,-8.512159639793634,-2.8227225485309955,1.837390784215927
1772537091334521600,0.316521484375,-8.852741255691647,-2.294768641501665,1.6085149546988307
1772537091344569300,0.3265693359375,-7.332835873946547,-2.4546695728614925,1.390808607841283
1772537091354618400,0.336618408203125,-7.409326408430934,-2.69880332339555,0.8564072782382368
1772537091364666400,0.346666259765625,-7.63097009473741,-3.5965456515848633,0.35890988427102566
1772537091374715400,0.35671533203125,-7.544120663323998,-4.381410080873966,0.8387326514683663
1772537091384763400,0.366763427734375,-7.085559149211645,-3.927223420844972,2.911652585610747
1772537091394811400,0.376811279296875,-5.442614832296967,-3.6001805009558794,3.7780584030330178
1772537091404860400,0.3868603515625,-4.643606142321229,-3.3519372692763802,3.5942666007369755
1772537091414908400,0.396908447265625,-3.7949171833753583,-3.276720992511511,3.044835021393001
1772537091424956400,0.406956298828125,-2.5062854860693213,-3.2817607402443882,2.2307640791028738
1772537091435005400,0.41700537109375,-1.9795728112727402,-3.4596433184966444,1.384013394743204
1772537091445053400,0.427053466796875,-1.705413924831152,-3.1771359981656073,1.1131275386229156
1772537091455102500,0.4371025390625,0.010981997263431548,-2.4032187870875,0.634695568196848
1772537091465150500,0.447150390625,0.6734253310203552,-0.8695411928385496,0.9391701709903776
1772537091475198500,0.457198486328125,-0.9184925630122422,-0.41257688478976484,1.5027417732372879
1772537091485247500,0.46724755859375,-0.18964988067448138,-0.785124541530013,0.5717764629472046
1772537091495295500,0.47729541015625,0.9225970757216214,-0.5136255219474435,-0.4687788836788386
1772537091505343500,0.487343505859375,1.6680021858036518,0.28839214058592916,-1.3156734334886073
1772537091515392500,0.497392578125,2.182724563077092,1.1906250581927598,-1.4996017216458917
1772537091525440500,0.5074404296875,2.3894600185871124,1.5653864454597233,-1.6955948338672517
1772537091535488300,0.51748828125,2.2653262739181517,1.9730857873409986,-2.7906246980026364
1772537091545537500,0.52753759765625,2.8177058894127605,1.704651854417473,-3.303527750894427
1772537091555585300,0.537585205078125,3.2369419398307797,0.6341200333312154,-3.690084351503849
1772537091565634600,0.547634521484375,5.052279297670721,0.2893896271906793,-3.223911193343997
1772537091575682300,0.557682373046875,7.689577182006835,0.7529412046752869,-1.8314350906819103
1772537091585730300,0.567730224609375,9.77457260773778,2.3169867569200693,0.3126626950221136
1772537091595779300,0.577779296875,10.176289952600001,3.5140640599921342,2.2644842701360584
1772537091605827300,0.587827392578125,8.395634032040833,4.155866756780445,3.834174258008599
1772537091615876400,0.59787646484375,6.6785816918641325,3.6022786422789093,3.5875592120528217
1772537091625924400,0.60792431640625,5.182215591138601,2.6499565826401112,2.36938782915622
1772537091635972600,0.61797265625,5.417951515683532,2.885964017602801,1.1523819829076527
1772537091646021400,0.628021484375,7.260755557119846,2.984986701890826,0.0106981388207525
1772537091656069600,0.638069580078125,7.644837876570224,2.933193386289477,-0.28896475284211337
1772537091666117400,0.648117431640625,6.946622972208261,3.001779138998687,-0.6754732765261083
1772537091676166700,0.658166748046875,6.483032816278934,3.1629467292934654,-0.9208462865315378
1772537091686214400,0.66821435546875,6.483602140599489,3.1000100883871315,-0.46871590144522485
1772537091696262400,0.678262451171875,6.751946203282475,2.8223531306967136,-0.3628052842743695
1772537091706311400,0.6883115234375,6.285929112467169,2.8746406595557925,-0.8766047014839947
1772537091716359400,0.698359375,5.166974767386913,3.4061844077706334,-0.6277540054306388
1772537091726408400,0.708408447265625,4.175382481372356,3.750890994644165,-0.013226049863174556
1772537091736456400,0.71845654296875,4.052995288109779,3.12844503249377,0.0546531620118767
1772537091746504400,0.72850439453125,4.692226673105359,2.2709774315476414,0.39995040825493633
1772537091756553500,0.738553466796875,5.537315561732649,1.010211938549578,0.48072055628728116
1772537091766601200,0.748601318359375,5.173229151606559,-0.07259411156773567,0.5480582451641559
1772537091776649500,0.7586494140625,2.137365664437413,-0.9195940945133566,1.4970711802549659
1772537091786698200,0.7686982421875,-1.7528583975732326,-0.8827484649360179,2.225417603508383
1772537091796746500,0.77874658203125,-3.2092940544486046,-0.3777741592168808,1.6995443021453915
1772537091806795300,0.788795166015625,-3.2617584011793133,-0.05040449159145355,0.30507381079569457
1772537091816843500,0.798843505859375,-3.0753473562955853,0.10415011030435561,-0.6627334027446806
1772537091826891500,0.8088916015625,-2.772565017437935,0.017935469663143157,-1.0499298356276006
1772537091836940500,0.8189404296875,-3.8014088834822175,-0.0698299075514078,-1.1915349395792931
1772537091846988500,0.828988525390625,-4.283376407623291,-0.4771276828944683,-0.7654831447318196
1772537091857036300,0.839036376953125,-4.792286883747577,-1.4012643892735241,-0.30898572354242204
1772537091867085600,0.84908544921875,-5.5832987297505134,-2.5746114187985656,0.1669217699073255
1772537091877133300,0.85913330078125,-6.271340615144371,-3.6945723105728625,1.080425146330148
1772537091887181600,0.869181640625,-6.690008510285615,-4.166390781143307,0.4851336600217968
1772537091897230300,0.879230224609375,-5.903777468818426,-4.763192306688428,-0.33829803500548006
1772537091907278600,0.889278564453125,-5.366613542634249,-5.471120795813203,-0.4669678156688809
1772537091917327400,0.899327392578125,-5.49096999014318,-6.164305889314413,-0.5480713969066738
1772537091927375400,0.909375244140625,-6.422942796975374,-6.705805798876285,-0.7813755642600357
1772537091937423400,0.91942333984375,-7.32889678093195,-6.937913011530041,-0.3724209981532767
1772537091947472400,0.929472412109375,-7.7975524035573,-6.75576137765646,0.313709829454869
1772537091957520400,0.939520263671875,-8.192267760702967,-6.516031415039301,0.8160914883323014
1772537091967568400,0.949568359375,-8.758082027310133,-6.2869321520298715,2.7498607259377836
1772537091977617400,0.959617431640625,-9.331305108869076,-5.741338835674524,2.615756499135494
1772537091987665400,0.96966552734375,-8.746769775179027,-5.2085143999993795,1.680841647502035
1772537091997714400,0.97971435546875,-8.16835263210833,-4.615017176696658,1.4239420850276947
1772537092007762400,0.989762451171875,-7.875297322016954,-4.320653706616163,1.245902270387113
1772537092017810400,0.999810546875,-6.704101917567849,-4.0869337980687614,0.7646356610570102
1772537092027859000,1.00985888671875,-5.336089809554815,-3.8693940399497744,0.5968828471530229
1772537092037907200,1.0199072265625,-4.2902334339112045,-3.774840610030293,0.8504534844003617
1772537092047955000,1.029954833984375,-2.9338696781158444,-3.572663256216049,0.749440503077954
1772537092058004200,1.040004150390625,-1.5162544580221176,-3.0741835732132197,0.8513760060727595
1772537092068052000,1.050052001953125,-0.2607049461066723,-2.3951550153583288,0.961541138882935
1772537092078100000,1.060099853515625,0.7917103496611118,-1.3609195194035768,0.6732916216380894
1772537092088149000,1.07014892578125,1.7589532073169947,0.03038520139157772,0.4514234789259732
1772537092098197000,1.080197021484375,3.2455648067474363,1.206065642300248,0.23996271192710844
1772537092108246000,1.09024609375,4.326260440582037,2.2155098113477227,0.3593929185476154
1772537092118294000,1.1002939453125,5.099444953471422,2.926468461948633,0.5252514066049829
1772537092128342300,1.11034228515625,5.745515829098224,3.4336873317241667,0.3324393721051514
1772537092138391000,1.12039111328125,6.0283747393459075,3.7423821094959973,0.231132266674377
1772537092148439300,1.130439208984375,6.773570006069541,3.925629137390852,0.7315796330209821
1772537092158487000,1.140487060546875,6.765139446854591,4.233279374545813,0.2821351990830153
1772537092168536000,1.1505361328125,6.502047313350439,4.228118630781769,0.5216114426674321
1772537092178584000,1.160583984375,6.754739048871397,4.365544403222203,0.6889722981117665
1772537092188633000,1.170633056640625,6.8932812581211325,4.561801719337701,0.39922636829670516
1772537092198681000,1.18068115234375,7.032668101501464,4.669747130271793,0.344301330540888
1772537092208729000,1.19072900390625,7.208923663073778,4.801909867617487,0.30710761817824095
1772537092218778000,1.200778076171875,7.422131529468298,4.869546649038791,0.2699976751089096
1772537092228826000,1.210826171875,7.3902774245679375,4.7707566044628615,0.37004820460733023
1772537092238873900,1.220873779296875,7.136255901747941,4.732329550912976,0.5704879209740087
1772537092248923100,1.230923095703125,7.063741285157203,4.857961425185203,0.7103183068707585
1772537092258971000,1.240970947265625,6.762200470793247,5.07731027855277,0.6291065890833735
1772537092269020200,1.251020263671875,6.497312101522088,5.141965413814783,0.5316107125038281
1772537092279068000,1.26106787109375,6.434412285494804,5.151536959758401,0.22287099961172788
1772537092289116200,1.2711162109375,6.1207438109636305,5.279617396226525,-0.011733984674513339
1772537092299165000,1.2811650390625,5.860408867213129,5.187819987016916,-0.15054576811324805
1772537092309213200,1.291213134765625,5.7701545957922935,4.8920273609161375,-0.26236226659333334
1772537092319261200,1.30126123046875,5.449634940192103,4.6472892147481435,-0.19772223756890742
1772537092329310000,1.31131005859375,5.067290988841653,4.297519499266147,-0.12114525777692906
1772537092339358200,1.321358154296875,4.786677811694145,3.433354738768935,0.2660841549269855
1772537092349406000,1.331406005859375,4.651687741968035,2.3599948546499014,0.6951567589003592
1772537092359455200,1.341455322265625,3.9627860248744486,1.437663736388087,0.9814757464740425
1772537092369503000,1.3515029296875,2.4469483309596773,0.4494020561009645,1.176531797040999
1772537092379552000,1.361552001953125,0.5170435136973858,-0.23139292690455912,1.1225420673739164
1772537092389600000,1.37160009765625,-1.1420564037263392,-0.1270961016058922,0.4921064216438681
1772537092399648000,1.38164794921875,-2.0608996798723935,0.8863982196152209,-0.7138935350090265
1772537092409697000,1.391697021484375,-2.606000828796625,1.9940292066484688,-1.8378977108247576
1772537092419745000,1.4017451171875,-2.6528619486927987,1.993398507529497,-2.0495595168210565
1772537092429793000,1.41179296875,-2.263938618952036,1.216668284857273,-1.5529134789861738
1772537092439842000,1.421842041015625,-2.9033547128647563,0.6999471349820494,-0.9635807549517601
1772537092449890000,1.43189013671875,-3.998227340611815,0.09425269340723752,-0.5025557368027046
1772537092459939000,1.44193896484375,-4.106349861678481,-1.0282844785958527,0.11169837025944143
1772537092469987000,1.451987060546875,-4.2255192619383335,-1.892171591195464,0.7161223900396376
1772537092480035000,1.46203515625,-4.676680728927255,-2.7338030328452585,0.6122611431466415
1772537092490084000,1.472083984375,-5.267525976416469,-3.352594564141333,0.0658419064943213
1772537092500132000,1.482132080078125,-5.811767293640971,-3.689069329242408,-0.399694533797726
1772537092510180000,1.49218017578125,-6.09325491553545,-3.9736683611556884,-0.6257184079498053
1772537092520229000,1.50222900390625,-6.322122707876563,-4.118732957911491,-0.7551864263188094
1772537092530277000,1.512277099609375,-6.826759159943461,-4.147258502911031,-0.827366404127702
1772537092540325000,1.5223251953125,-7.392172444534301,-4.338514357477426,-0.5554100692316889
1772537092550374100,1.5323740234375,-7.602635396134853,-4.702809441918134,-0.2758076034966856
1772537092560422000,1.542421875,-7.921289842385053,-5.041035434600711,0.1317880222817883
1772537092570471200,1.55247119140625,-7.91372379104495,-5.368000028556585,0.5615173365982249
1772537092580519000,1.562518798828125,-8.070335909992457,-5.411610037702322,0.758401442842558
1772537092590567200,1.572567138671875,-8.179819198018311,-5.229112951391935,0.7158656387995929
1772537092600616000,1.582615966796875,-7.936531835180521,-5.025894564092159,0.4662117366045713
1772537092610664200,1.592664306640625,-7.723722612714767,-5.006840319532156,0.4350969422968104
1772537092620712000,1.6027119140625,-7.317524323046207,-5.115076237845421,0.36326829867623744
1772537092630761200,1.61276123046875,-6.829349176436662,-5.145617506581544,0.16923379144305362
1772537092640809000,1.62280908203125,-6.3554042152315375,-5.073858676794171,0.18159124177815392
1772537092650858200,1.632858154296875,-5.565795221763849,-4.905126496464014,0.21900654273591935
1772537092660906000,1.642906005859375,-4.876314243477583,-4.531680137318372,0.3354304071472958
1772537092670954000,1.6529541015625,-4.147319000926614,-4.091165736550092,0.6735135207604617
1772537092681003000,1.6630029296875,-3.48825069656074,-3.6660558256626126,1.0413380945015698
1772537092691051000,1.673051025390625,-2.7952544036298987,-3.0965006189614535,1.3442919174686074
1772537092701099300,1.683099365234375,-2.1032313396453857,-2.2715526010870932,1.3521717109329998
1772537092711148000,1.69314794921875,-1.428952606666088,-1.3218068216770886,1.052881013583392
1772537092721196000,1.703196044921875,-0.6008581074595452,-0.5642004016697406,0.6839113614603877
1772537092731244000,1.713244140625,0.23576631968319414,0.20467092419564722,0.09881631152834743
1772537092741293000,1.72329296875,1.1146727222383022,0.948829249086976,-0.3839642825612798
1772537092751341000,1.733341064453125,1.9404829098999499,1.5766379073143004,-0.6775526400834322
1772537092761390000,1.74339013671875,2.7067975370198485,2.2432097191780804,-0.7199785540111362
1772537092771438000,1.75343798828125,3.3633108962059017,2.9549101280570027,-0.6816125829987227
1772537092781486000,1.763486083984375,3.980385394451022,3.627076983448863,-0.7023246777683496
1772537092791535000,1.77353515625,4.504915464511513,4.244579351717233,-0.5946697742134333
1772537092801583000,1.7835830078125,5.058438989344239,4.714796232309937,-0.47973311615251
1772537092811630800,1.793630859375,5.601138922345638,5.130955944022536,-0.3445679090552032
1772537092821680000,1.80368017578125,5.934518059518933,5.353354832610488,-0.040964390007779
1772537092831727900,1.813727783203125,6.554543224263191,5.364322216826677,0.22213563454188406
1772537092841777200,1.823777099609375,6.959127648994326,5.3457437730848785,0.5280400509428232
1772537092851825000,1.833824951171875,7.035458024480938,5.438451867398619,0.7800435850039124
1772537092861873200,1.843873046875,7.189806290149688,5.5252165431380265,0.8337073706522583
1772537092871922000,1.853921875,7.352012868103385,5.540509973859787,0.887599777424708
1772537092881970200,1.86397021484375,7.378432672995329,5.569442053833604,0.9535348694946616
1772537092892018200,1.87401806640625,7.26250093948245,5.731736310070753,0.8678985401980578
1772537092902067000,1.88406689453125,7.159772386413812,5.888213404461741,0.7643174619533121
1772537092912115200,1.894115234375,7.130017884141206,5.898797342318296,0.7241590545661747
1772537092922164000,1.9041640625,6.848397575777769,5.978533726856112,0.666494508843869
1772537092932212200,1.914212158203125,6.643714376622438,5.863799094173312,0.4457146728251129
1772537092942260000,1.924260009765625,6.820909264871478,6.073554774287342,0.6777918556667863
1772537092952309200,1.934309326171875,6.746852095013857,6.056968965667486,0.333290764770098
1772537092962357000,1.94435693359375,6.394028837180137,5.654900907671451,0.28550672134272753
1772537092972405000,1.954405029296875,6.244564836421609,5.262257096102833,0.5552418365253136
1772537092982454000,1.9644541015625,5.879849480742216,4.610124728479981,0.5852547705383971
1772537092992502000,1.974501953125,5.407810060897469,3.679512688606977,0.8808397817704826
1772537093002551000,1.984551025390625,5.1915790472894905,2.2546949897885322,1.3173594868794083
1772537093012599000,1.99459912109375,4.370075032389163,1.0461702638983725,1.7127040818393229
1772537093022647000,2.00464697265625,2.719213951000571,0.4654927746802568,1.9273396429494023
1772537093032697000,2.014697021484375,1.0488602336347101,0.40450083810091014,1.3647351321689785
1772537093042745000,2.0247451171875,-0.8552513862013816,0.7490636325895785,0.4336264678854495
1772537093052793000,2.03479296875,-2.200873383229971,1.0763538052380084,-0.50824207534343
1772537093062842000,2.044842041015625,-2.8001415911495684,1.0114426493883133,-0.9961666812580078
1772537093072890000,2.05489013671875,-2.9154174911022186,-0.2110936507195234,-0.7333252345792949
1772537093082937900,2.064937744140625,-3.1966414936244485,-1.7970780630499124,-0.08981573387309909
1772537093092987100,2.074987060546875,-3.8995769967675207,-2.887773697373271,0.7186565846923738
1772537093103035000,2.085034912109375,-4.845353288024664,-3.8185330367624757,1.1577470170721411
1772537093113084200,2.095084228515625,-5.629356132048368,-4.175340980318189,0.9773602009139954
1772537093123132000,2.1051318359375,-6.335532809069752,-4.149550120979547,0.2316487282965332
1772537093133180200,2.11518017578125,-6.137171798673272,-4.56684146707058,-0.2955132977027446
1772537093143229000,2.12522900390625,-5.798255485638975,-4.968517895400524,-0.7301129214692861
1772537093153277200,2.135277099609375,-6.1979234967559576,-5.161753233346343,-0.979551062021777
1772537093163325200,2.1453251953125,-6.714663643592596,-5.612983089396357,-0.7768468347892165
1772537093173374000,2.1553740234375,-7.5240405828475945,-5.890529280188679,-0.4632243182916194
1772537093183422200,2.165422119140625,-8.49008400158584,-6.100470253741741,-0.25458489232379944
1772537093193470000,2.175469970703125,-9.32775121577978,-6.371025562733411,-0.1338905109863728
1772537093203519200,2.185519287109375,-10.262340927112103,-6.335588338649273,0.03216185567528009
1772537093213567000,2.19556689453125,-10.373049373018741,-5.8352036988079545,-0.1861059244573116
1772537093223616000,2.205615966796875,-10.317022949892282,-4.943238492715358,-0.5701842983849347
1772537093233664000,2.2156640625,-10.17485670492649,-4.4146503794357175,-0.9176051126532256
1772537093243712000,2.2257119140625,-9.823222364616393,-4.424591050952673,-1.066861462010443
1772537093253761000,2.235760986328125,-9.299653248542546,-4.4905897097781295,-0.8042974440336227
1772537093263809000,2.24580908203125,-8.382592179638147,-4.61345504194647,-0.5310154500244185
1772537093273857000,2.25585693359375,-7.309108376878499,-4.676126894436776,-0.17632340264413504
1772537093283906000,2.265906005859375,-6.02566723395288,-4.5197442003309725,0.09102204092293978
1772537093293954000,2.2759541015625,-4.636790032565593,-4.0712917000398035,0.2736220396185294
1772537093304003000,2.286003173828125,-3.2896120382666587,-3.411807216088474,0.44472208159118887
1772537093314051000,2.296051025390625,-1.9570593661695717,-2.6681702847227453,0.6005608780786394
1772537093324099000,2.30609912109375,-0.7785042466074228,-1.7556208480238913,0.6939496481329203
1772537093334148000,2.316148193359375,0.4171013764768839,-0.8714294908031821,0.7409210234705358
1772537093344196000,2.326196044921875,1.5229413884401322,-0.08872866928875446,0.6104557376924902
1772537093354244000,2.336244140625,2.594669287443161,0.658341451396048,0.356650378373824
1772537093364293000,2.346293212890625,3.5766444348067044,1.2284604294598103,-0.2149196204821579
1772537093374341000,2.356341064453125,4.367784291103482,2.0920286853685974,-0.18271664734520018
1772537093384390100,2.36639013671875,5.083590381735563,2.7581358023300764,-0.4180161897668615
1772537093394438100,2.376438232421875,5.638674580013752,2.988910889597237,-0.5448011795969679
1772537093404486000,2.38648583984375,6.093565881180763,3.434847023153305,-0.4026521414943039
1772537093414535200,2.39653515625,6.515140603679418,3.6862156933769583,-0.31347094266507775
1772537093424583000,2.4065830078125,7.006040206816792,3.7513799472048874,-0.1481274183925241
1772537093434631200,2.416631103515625,7.180248188209533,3.7959260681569575,0.09393266767263411
1772537093444680000,2.426679931640625,7.438872236388922,3.7501758321121335,0.2732386663241312
1772537093454728200,2.436728271484375,7.752803161248564,3.722605980402231,0.37189869131222364
1772537093464777000,2.44677685546875,7.775207885280251,3.7870357824757694,0.4375559162888676
1772537093474825200,2.4568251953125,7.654401239207386,3.8442674897387623,0.5647004601463675
1772537093484873000,2.466873046875,7.613466002228856,3.829274503268301,0.6245347511231899
1772537093494922200,2.476922119140625,7.648692798432707,3.8795287727341052,0.6139117233652621
1772537093504970000,2.486969970703125,7.678440286442637,3.9244060253366824,0.6607512890167534
1772537093515018000,2.49701806640625,7.5936764291316265,3.9545106562212107,0.6087873660888522
1772537093525067000,2.50706689453125,7.5247905244320625,4.013426371048391,0.3392280823972076
1772537093535115000,2.517114990234375,7.565259312942624,3.9916806954473256,0.0031473763813264664
1772537093545163300,2.527163330078125,7.358119368284941,4.038021006339788,-0.25053601879179477
1772537093555212000,2.5372119140625,7.271243048864602,4.0283395702809095,-0.36628468735534697
1772537093565260000,2.547260009765625,7.202468787845969,3.9653728264972563,-0.35919556934460994
1772537093575309000,2.55730908203125,6.963177801167965,3.825537070305645,-0.23014734729025513
1772537093585357000,2.567357177734375,6.517457063928246,3.742561265455186,-0.22627741052173075
1772537093595405000,2.577405029296875,6.104971072292328,3.498739941871166,-0.120585696798563
1772537093605454000,2.5874541015625,5.403723668366671,3.010787790362537,0.030381575529230757
1772537093615502000,2.597502197265625,4.590582992663979,2.2638810435459016,0.30539736192794514
1772537093625550000,2.607550048828125,3.507515369001031,1.4648323138207195,0.7372495684161782
1772537093635599000,2.61759912109375,2.051068021687865,0.705423520566523,1.105066104981303
1772537093645647000,2.627647216796875,0.187653153899312,0.1735579930514097,1.2067581546090542
1772537093655694800,2.63769482421875,-1.465868671131134,0.05085281988084316,0.6710362439267337
1772537093665744100,2.647744140625,-2.7698990130990744,0.25724691460728644,-0.27502346738167105
1772537093675792000,2.6577919921875,-3.689905487805605,0.4348033296450972,-1.0707067392617464
1772537093685841200,2.667841064453125,-4.321086252814531,0.3031684155657887,-1.4498124393433331
1772537093695889000,2.677888916015625,-4.8718812294662,-0.48881695164442057,-1.348285663279891
1772537093705937200,2.687937255859375,-5.727514892983436,-1.3677595945566892,-0.9074026483949273
1772537093715986000,2.69798583984375,-6.564236350759863,-2.174564929758012,-0.4468473666494712
1772537093726034200,2.7080341796875,-6.881810016036034,-3.1079724455684423,0.20100927814925088
1772537093736082200,2.718082275390625,-7.080581360799074,-3.763382519687712,0.5261726496357471
1772537093746131000,2.728130859375,-7.547805489316582,-4.23136272726953,0.6793465377628802
1772537093756179200,2.73817919921875,-8.003632610028982,-4.815933716794848,0.7636826711811124
1772537093766228000,2.74822802734375,-8.495256435787677,-5.288072505360842,0.8843157142527401
1772537093776276200,2.758276123046875,-8.919550938639045,-5.616777220982313,0.7756232112783938
1772537093786324000,2.768323974609375,-9.176700238090753,-5.952271742874384,0.6702413672219961
1772537093796373200,2.778373291015625,-9.382647173571586,-6.169372525054216,0.7161202711477875
1772537093806421000,2.7884208984375,-9.863975230765343,-6.238423264926672,0.8221174706235528
1772537093816469000,2.798468994140625,-10.106285273003577,-6.356968980330229,0.9352478829801082
1772537093826518000,2.80851806640625,-10.278238753467798,-6.293166662505269,1.0597879434276372
1772537093836566000,2.81856591796875,-10.217407560408114,-6.01900777606368,1.0352832514420152
1772537093846615000,2.828614990234375,-10.10116953742504,-5.580158678159117,0.8796263873927295
1772537093856663000,2.8386630859375,-9.866797302448749,-5.069461318618059,0.6538697128094733
1772537093866711000,2.8487109375,-9.092711456805468,-4.454544582928717,0.31477201532628385
1772537093876760000,2.858760009765625,-8.062484027448296,-3.986248441265523,0.10481175255086272
1772537093886808000,2.86880810546875,-6.93319708892405,-3.4541473514288663,0.0320093685273081
1772537093896856000,2.87885595703125,-5.083873290330171,-2.641887257952988,-0.15027107935771344
1772537093906904800,2.88890478515625,-3.256591812196374,-1.959257752996683,-0.10275215313993394
1772537093916953000,2.898953125,-1.6109066721409557,-1.4439368253082037,0.321818901630491
1772537093927001000,2.9090009765625,-0.18325111954808235,-0.5920800499811768,0.4637698233451694
1772537093937050000,2.919050048828125,1.0165098696500063,0.14775515101402997,0.6474724860530346
1772537093947098000,2.92909814453125,1.9126169978529213,0.5758885013759136,1.0422812936358152
1772537093957147100,2.939147216796875,2.8717683189898726,0.08083148629814386,2.0099661959707738
1772537093967195100,2.949195068359375,3.507828088212013,2.314701714722812,1.3793316666677593
1772537093977243000,2.959242919921875,4.838360068136454,3.8449984343618153,0.7503431510061025
1772537093987292200,2.969292236328125,6.1688067078649995,3.459361578945815,0.7305057932443917
1772537093997340000,2.97933984375,6.542705486953258,3.2361797232866287,0.8873596850585191
1772537094007388200,2.98938818359375,6.75721508359611,3.4508155766576527,0.9263754252165556
1772537094017437000,2.99943701171875,6.992502095329761,3.70511357833147,0.9984624640449881
1772537094027483600,3.009483642578125,6.988583460581302,3.7982223624005913,1.131975227760151
1772537094037533000,3.019532958984375,6.858765825057029,3.8433755093351003,1.3095255783833561
1772537094047580700,3.02958056640625,7.0323162193238735,3.7932986422628163,1.4109341348946094
1772537094057628700,3.039628662109375,7.328176649963855,3.5813194408804176,1.4676894568175076
1772537094067677700,3.049677734375,7.478603942796587,3.3294071652993558,1.5050415746122598
1772537094077725700,3.0597255859375,7.311580904471874,3.2492201143845914,1.545293505501747
1772537094087773700,3.069773681640625,7.465479088285565,3.218780260196328,1.4211898637101053
1772537094097822700,3.07982275390625,7.4516551455944775,3.27390593509078,1.2451863772027194
1772537094107870700,3.08987060546875,7.293605102798343,3.365712696650624,1.0355772659525275
1772537094117919700,3.099919677734375,7.324954180786013,3.4653830311924216,0.9602039719950407
1772537094127967700,3.1099677734375,7.191000468370318,3.7101892741605638,0.7540738619670272
1772537094138015700,3.120015625,7.064471937519311,3.844668764016032,0.6191100226607174
1772537094148064500,3.130064453125,6.973401089018583,3.7017835571259257,0.5379949701808393
1772537094158112800,3.14011279296875,6.888805574011802,3.845780816911161,0.2840248852871358
1772537094168160800,3.150160888671875,6.851634658002853,3.8522245862230657,0.13181260873377323
1772537094178209800,3.160209716796875,6.74324676399827,3.636919747549295,0.15833218420576303
1772537094188257800,3.1702578125,6.423626103064417,3.3940003412410613,0.18383929469957946
1772537094198306800,3.180306884765625,5.952803073272109,3.113278735283017,0.25079163752067835
1772537094208354800,3.190354736328125,5.7069800544768565,2.439465573988855,0.386147398754023
1772537094218402600,3.200402587890625,4.865638535684347,1.4487339964568615,0.7446132290519774
1772537094228451800,3.210451904296875,3.4953596517831085,0.334817061021924,1.0724395544037222
1772537094238499600,3.22049951171875,1.5431781207829713,-0.062108081127703184,0.8869825953744351
1772537094248547800,3.2305478515625,-0.4161754938036203,0.048104105694591996,0.28447993557825685
1772537094258596600,3.2405966796875,-2.0791350092649457,0.0026528525963425637,-0.35443423669431356
1772537094268644900,3.250644775390625,-3.170633776664734,-0.5705535700887441,-0.6306709157906473
1772537094278692600,3.260692626953125,-3.859941151949763,-1.7561419492885468,-0.29216457179673017
1772537094288742000,3.270741943359375,-5.097344766321778,-2.6269962705522776,-0.13178557459637522
1772537094298789600,3.28078955078125,-6.424505808508396,-1.8512199876040218,-0.8841020715020597
1772537094308838700,3.290838623046875,-7.00561584392488,-1.3151862344935537,-1.7487310885101557
1772537094318886700,3.30088671875,-7.203240356740355,-1.873032883222401,-1.7595424053817987
1772537094328934700,3.3109345703125,-7.086289217051863,-2.406281389528513,-1.4813738449074327
1772537094338983700,3.320983642578125,-6.800526986578107,-2.6863001079142093,-1.4138365783378481
1772537094349031700,3.33103173828125,-6.758183051845431,-3.7800682815507054,-1.0089320548068732
1772537094359080000,3.341079833984375,-6.865261032295226,-4.945874686437845,-0.5552161540947854
1772537094369128700,3.351128662109375,-7.352425540557503,-5.02378560911417,-0.05308196717239916
1772537094379176700,3.3611767578125,-7.992925922575592,-5.527669196987151,0.30264537807237357
1772537094389225700,3.371225830078125,-8.853430406999587,-5.934999121034145,0.6602516689315437
1772537094399273700,3.381273681640625,-9.446476379403471,-5.9102773522317404,0.5938571426562964
1772537094409321700,3.39132177734375,-9.96961236475706,-5.524842449128627,0.15179158518956973
1772537094419370800,3.401370849609375,-10.399044230496882,-5.36002714998126,-0.3916632760986686
1772537094429418800,3.411418701171875,-10.350673875081538,-4.422708013685047,-1.0616374437518417
1772537094439466800,3.421466796875,-9.87977368839979,-4.1255771247178314,-1.4819022526957093
1772537094449515800,3.431515869140625,-9.362527345606685,-4.229825726960599,-1.5343731752976775
1772537094459563800,3.441563720703125,-8.514328800526261,-4.1748005898311735,-1.3473789236985145
1772537094469611500,3.451611572265625,-7.383848852825165,-4.152831919129192,-1.0412496125005184
1772537094479660800,3.461660888671875,-6.061012688100337,-3.9945249789625406,-0.7061028811328113
1772537094489708500,3.47170849609375,-4.578425521880388,-3.6936569492936133,-0.3080267057845369
1772537094499757800,3.4817578125,-3.0021792442321775,-3.164053521491587,0.12595014644116162
1772537094509805600,3.4918056640625,-1.590161990275979,-2.3804496136575937,0.45601679806560275
1772537094519853800,3.501853759765625,-0.36799393895864485,-1.553415729419887,0.7330747669495642
1772537094529902600,3.511902587890625,0.7963689891219139,-0.7449912685841321,0.9714923317939043
1772537094539950600,3.52195068359375,1.8727847536802291,0.06653086600601672,1.0322989749342202
1772537094549998800,3.531998779296875,2.6757097403168677,0.8774114878222345,1.0880828214764595
1772537094560047600,3.542047607421875,3.545650161606073,1.541639951430261,1.0682762241791932
1772537094570095900,3.552095947265625,4.3772886170297856,2.1276707843750713,1.0113441574499011
1772537094580144600,3.56214453125,5.104194193825125,2.533543495351076,1.090258777276054
1772537094590193000,3.57219287109375,5.807486839842796,2.7866291986256835,1.2383873647123576
1772537094600240600,3.58224072265625,6.492759260523319,2.944983777326345,1.3473065891146658
1772537094610290000,3.5922900390625,7.007531322157383,3.0898142730653286,1.4926064559310674
1772537094620337700,3.602337646484375,7.427412100219726,3.2348072658896445,1.6128648204714058
1772537094630385700,3.6123857421875,7.664590040266513,3.4185616587847467,1.6694646595716476
1772537094640434700,3.6224345703125,7.7111384409517045,3.629723114043474,1.5853477218620478
1772537094650482700,3.632482666015625,7.535562093815207,3.772490539772808,1.4928224367693066
1772537094660531700,3.64253173828125,7.532523749032616,3.871420285080373,1.3463044263347983
1772537094670579700,3.652579833984375,7.5734876275837415,3.884193841935694,1.2646440879970788
1772537094680627700,3.662627685546875,7.488790405768156,3.801284672580659,1.2658797672718762
1772537094690676700,3.6726767578125,7.444667770925164,3.743941906158626,1.2778927150182424
1772537094700724500,3.682724365234375,7.404191968151927,3.7234526603594422,1.3120900220438838
1772537094710772700,3.692772705078125,7.195704116016626,3.7212604110121723,1.157518907404691
1772537094720821500,3.702821533203125,6.971237188982963,3.8159842290624972,1.037244468512386
1772537094730869800,3.712869873046875,6.840290841689705,3.878817117333412,1.0238365592762828
1772537094740917800,3.722917724609375,6.787452400949597,3.848409704110026,0.9403520011860876
1772537094750966800,3.732966796875,6.487960920330882,3.964038363023102,0.7461753638021648
1772537094761014800,3.743014892578125,6.245433435949683,4.1114433854252095,0.5970744972676039
1772537094771063800,3.753063720703125,6.0722162191599605,3.993867391836643,0.44104200483895833
1772537094781111800,3.76311181640625,5.81150776592195,3.748639708586037,0.43670353724323213
1772537094791159600,3.77315966796875,5.345154575020074,3.255371622751653,0.6058087886694818
1772537094801208800,3.783208740234375,4.658818324500322,2.4574422524452206,0.8146550257883965
1772537094811256600,3.793256591796875,3.742157068568468,1.4597805833891033,0.9509652382023632
1772537094821304800,3.803304931640625,2.3402532123476267,0.7433443781599401,1.1183270069621503
1772537094831353600,3.813353515625,0.6050561436712741,0.565840862353146,0.8175051545225084
1772537094841401900,3.82340185546875,-0.9930962608367204,0.7625687185898423,-0.06355871832743287
1772537094851450600,3.83345068359375,-1.910899672541022,1.074067740127444,-0.8928392855133861
1772537094861499000,3.843498779296875,-2.5466969914346933,0.9601862171426415,-1.4660919584929941
1772537094871546600,3.853546630859375,-3.0396605413645506,0.5560036512106656,-1.7631813464060424
1772537094881595600,3.863595703125,-3.60455243242979,0.14280921904444693,-1.7280467585302888
1772537094891643600,3.8736435546875,-4.312613023501634,-0.5238403342306613,-1.4708756856381893
1772537094901691600,3.883691650390625,-5.098431392514706,-1.1897682952329516,-1.195771115844324
1772537094911740700,3.89374072265625,-5.526680185949802,-1.8138436121508479,-0.7739729598533361
1772537094921788700,3.90378857421875,-5.698960414150357,-2.350364271995425,-0.520833699760586
1772537094931837700,3.913837646484375,-5.889107722952962,-2.744919470143318,-0.47562458485513925
1772537094941885700,3.9238857421875,-6.199814425069094,-3.2277439033746718,-0.5451625967878848
1772537094951933700,3.93393359375,-6.7465253472775215,-3.6241415145188567,-0.6308765944305808
1772537094961982700,3.943982666015625,-7.20656979342401,-3.7405332667589186,-0.8288005285840481
1772537094972030700,3.95403076171875,-7.340611184123158,-3.8061604619234797,-0.9914484936296939
1772537094982078700,3.96407861328125,-7.571705420342087,-4.209027561342716,-0.8479285690326244
1772537094992127700,3.974127685546875,-7.755848520293831,-4.736550675739347,-0.44594446299299595
1772537095002175700,3.98417578125,-8.051913533595204,-5.181501889911294,-0.04528941360004246
1772537095012223700,3.9942236328125,-8.332048571836948,-5.4339831975519655,0.2363525220733136
1772537095022272800,4.004272705078125,-8.609848445129394,-5.381830985510349,0.38032654711343344
1772537095032321000,4.014321044921875,-8.748628554788231,-5.220313558864593,0.3618105741485953
1772537095042369800,4.024369873046875,-8.664804608675837,-5.07593080689311,0.23394487640969455
1772537095052418000,4.03441796875,-8.600984755194187,-4.845188745112717,0.059915393389016386
1772537095062465800,4.0444658203125,-8.41313637098372,-4.568630396313965,-0.07418598386906088
1772537095072515000,4.05451513671875,-7.928948248183727,-4.292081399865448,-0.16372158562652767
1772537095082562800,4.064562744140625,-7.351072372382879,-3.8881200754687186,-0.2135036344707012
1772537095092610800,4.07461083984375,-6.571864361420273,-3.4307001326069235,-0.15277699776403605
1772537095102659800,4.084659912109375,-5.670928497886657,-2.957156445679068,0.05566613844670355
1772537095112707800,4.094707763671875,-4.676643904048204,-2.520016782040894,0.38814058186523615
1772537095122756900,4.1047568359375,-3.631677170720696,-2.097200535048544,0.7593549441751092
1772537095132804900,4.114804931640625,-2.519050859618187,-1.6289482325270772,0.9248958541832863
1772537095142853000,4.12485302734375,-1.3087988715440033,-1.0009379142478108,1.0042529570799321
1772537095152902000,4.13490185546875,-0.08422492812871933,-0.3377273955106735,1.047954882292822
1772537095162950100,4.1449501953125,1.1256290005385876,0.27132337075471874,1.0455150148600338
1772537095172998000,4.154997802734375,2.218864966994524,0.8062430251434445,0.9096984311819076
1772537095183047000,4.165046875,3.2114906877100466,1.32185095307976,0.8184684465967118
1772537095193095000,4.175094970703125,4.063557598656415,1.8219097219675777,0.7896952104464173
1772537095203143000,4.185142822265625,4.720214165705442,2.265284188342094,0.7715938826970755
1772537095213192000,4.19519189453125,5.472366996482014,2.687563259717822,0.6870343157865106
1772537095223240000,4.205239990234375,5.97978752630949,3.0259429816573857,0.6095933487094939
1772537095233289000,4.2152890625,6.39357583271563,3.196459999577701,0.6027398295529186
1772537095243337000,4.2253369140625,6.804710409742594,3.396477545009553,0.6235306886471808
1772537095253384700,4.235384765625,7.109460833802819,3.5871047462835906,0.6688784083057194
1772537095263434000,4.24543408203125,7.4822338237315416,3.633294250528514,0.7608684905432164
1772537095273481700,4.255481689453125,7.74848529804945,3.5998110831215975,0.9756630416072904
1772537095283530000,4.265530029296875,7.833516866385937,3.5617592926248904,1.1195151938334107
1772537095293578800,4.275578857421875,7.941253603005409,3.5986470077782866,1.1704261736422776
1772537095303627000,4.285626953125,7.999372029975056,3.675192195059359,1.2120864369597286
1772537095313675800,4.29567578125,7.936668028780818,3.6713913414716717,1.1391883009441197
1772537095323724000,4.30572412109375,7.775307254001498,3.6631013597711917,1.006615521492809
1772537095333772000,4.31577197265625,7.727326190164685,3.669408058699965,1.0041321071792393
1772537095343820800,4.32582080078125,7.624764225834608,3.5925375849872827,1.0206463849328458
1772537095353869000,4.335869140625,7.180632219091057,3.634235038509965,0.7578272231511771
1772537095363916800,4.345916748046875,6.883416282188892,3.721989309808612,0.6403568818941712
1772537095373966000,4.355966064453125,6.621874300736189,3.6660102329552173,0.5988050473872571
1772537095384013800,4.366013916015625,6.318451910409331,3.540148349319398,0.4328825907155871
1772537095394063000,4.37606298828125,5.84759556286931,3.4567546113178134,0.3726859692323953
1772537095404110800,4.38611083984375,5.327942743456363,3.201280551601946,0.37980493439212437
1772537095414158800,4.396158935546875,4.767769697606563,2.7214719590604304,0.4998182015975937
1772537095424208000,4.406207763671875,4.02679000275135,2.0792314553767444,0.7815107349470257
1772537095434256000,4.416255859375,3.2869887040257453,1.3400091255828737,0.9517074348717928
1772537095444304000,4.426303955078125,2.447365095067024,0.6504331624895334,0.9005308629292994
1772537095454353000,4.436352783203125,1.3292413555920124,0.43897623141556974,0.5231931954335421
1772537095464401000,4.44640087890625,0.21031799017190933,0.855422358854115,-0.058369150327704844
1772537095474449000,4.456448974609375,-0.5926420677781105,1.2196823719814418,-0.8578790312912314
1772537095484498000,4.466497802734375,-1.2428759083032608,1.125010868640244,-1.2772943107336758
1772537095494546000,4.4765458984375,-1.7591700649380684,0.3049810179457068,-1.170185423688963
1772537095504595000,4.486594970703125,-2.4686294168919325,-0.8031222627744078,-0.6616500644873827
1772537095514643000,4.496642822265625,-3.443713051176071,-1.6841010876893996,-0.1789146247137338
1772537095524691000,4.50669091796875,-4.315928431659937,-2.2784750938266516,-0.02234663716889918
1772537095534740000,4.516739990234375,-5.157978390982747,-2.685213481721282,-0.07516217195745557
1772537095544788000,4.5267880859375,-5.864463111039996,-3.1190929745197296,-0.06497479567043483
1772537095554836000,4.5368359375,-6.381247097018361,-3.515262037605047,-0.16484956674315035
1772537095564885000,4.546885009765625,-7.071575632044673,-3.6748140093967314,-0.2859185900792479
1772537095574932700,4.5569326171875,-7.69639504532814,-3.833032979018986,-0.44885114421993494
1772537095584982000,4.56698193359375,-8.269508236771822,-3.999264574705064,-0.6506687248110771
1772537095595029800,4.57702978515625,-8.73624545855522,-4.340769442927837,-0.6491716911863535
1772537095605078000,4.587078125,-9.119307787308097,-4.796766074988246,-0.3673287530481815
1772537095615126800,4.597126708984375,-9.713275550732016,-5.263318587854505,-0.00668999915793538
1772537095625175000,4.607175048828125,-10.09296285009384,-5.763723685961962,0.3267600112944841
1772537095635222800,4.617222900390625,-10.45966265758872,-5.956143031349778,0.4776151741504669
1772537095645272000,4.62727197265625,-10.573283191549777,-5.794916112083197,0.2941112488850951
1772537095655319800,4.63731982421875,-10.440238995194434,-5.360315903794765,-0.1728686225477606
1772537095665369000,4.647369140625,-10.11155766044855,-4.8500420303627845,-0.7385114050455391
1772537095675416800,4.657416748046875,-9.575072948700189,-4.288768914316594,-1.1585229698807
1772537095685464800,4.66746484375,-8.816365289452671,-3.652125207726657,-1.6649872218966484
1772537095695513900,4.677513916015625,-7.857519673264026,-3.0047973177760836,-1.8329490023761987
1772537095705561900,4.687561767578125,-6.628573506113886,-2.5667466767728326,-1.7859153023920953
1772537095715610000,4.697610107421875,-5.122029710245132,-2.2443100816354153,-1.5725276955164968
1772537095725659000,4.707658935546875,-3.5312405279815193,-1.8638079587593674,-1.203456628845632
1772537095735707100,4.71770703125,-2.014890792891383,-1.39232003531754,-0.801353061144799
1772537095745755000,4.7277548828125,-0.7630161700963973,-0.7765577887147664,-0.25545944666862486
1772537095755804000,4.737803955078125,0.43743981562852857,-0.06985562651455401,0.12073869540318846
1772537095765852000,4.747851806640625,1.512004983884096,0.6695937900334596,0.49948973682820796
1772537095775901000,4.75790087890625,2.482802319151163,1.2964315574020147,0.7684723896756768
1772537095785949000,4.767948974609375,3.447789506834745,1.886899203750491,0.8691596461750567
1772537095795997000,4.777996826171875,4.297721743839979,2.4544196897536517,0.9222652134187519
1772537095806046000,4.7880458984375,5.233494527477026,2.9094392934754487,1.0666501573473215
1772537095816094000,4.798093994140625,5.999359072741866,3.206890500438213,1.3268889472469687
1772537095826142000,4.808141845703125,6.600707009544968,3.3418153959736228,1.5961548009499906
1772537095836191000,4.81819091796875,7.228330958855151,3.351778863844275,1.833723640010506
1772537095846239000,4.828239013671875,7.791121493726968,3.265422184383869,2.0734571097590027
1772537095856288000,4.8382880859375,8.072969765627384,3.2269059912458062,2.4433223955474794
1772537095866335700,4.848335693359375,8.331352406266332,3.170842450979352,2.6680963427037
1772537095876384000,4.858384033203125,8.55047504966259,3.2193127596378326,2.6836194905281063
1772537095886432800,4.868432861328125,8.633401170152425,3.430516008211672,2.582122817341983
1772537095896481000,4.87848095703125,8.731873819342255,3.7043113220378756,2.308015222696215
1772537095906529000,4.888529052734375,8.677596870231628,3.9364804940119384,2.1244078370563684
1772537095916577800,4.898577880859375,8.687633111077547,4.014527318027615,1.9381215875960884
1772537095926626000,4.9086259765625,8.619355109143257,4.093922926303744,1.7035446238279341
1772537095936673800,4.918673828125,8.36941822528839,4.164571164500713,1.5021761021785438
1772537095946723000,4.92872314453125,8.140781903615594,4.102706244479119,1.3906886347234249
1772537095956770800,4.938770751953125,7.884384883835911,4.021112833897769,1.2253319952409714
1772537095966820000,4.948820068359375,7.431839269012213,3.9588232587233185,1.078519678035006
1772537095976867800,4.958867919921875,6.92301354856193,3.898873816934228,1.027896356061101
1772537095986915800,4.968915771484375,6.054855919036269,3.936921223516762,0.8703003406427801
1772537095996964900,4.97896484375,5.288407436403632,3.988909769429266,0.8279873855702579
1772537096007012900,4.989012939453125,4.874681089317798,3.5387829061850904,0.956799351183325
1772537096017061000,4.99906103515625,4.338965608376264,2.3463480220913886,1.1616413210969418
1772537096027110100,5.009110107421875,3.529966270262003,0.825132726791501,1.6878944886229932
1772537096037158000,5.019157958984375,2.4663982968389986,-0.5697305632680654,2.31506484894678
1772537096047207200,5.029207275390625,1.017400096487999,-1.4482301385879515,2.732889717392623
1772537096057255000,5.0392548828125,-0.7450035435438156,-1.9358271930485962,2.400339724519849
1772537096067303000,5.049302978515625,-2.553325469663739,-1.6859850017398594,1.5218866186901927
1772537096077352000,5.05935205078125,-3.9396184997767207,-0.6221054781496524,0.2588930378464982
1772537096087400000,5.06939990234375,-4.660320545756816,0.16167933920919894,-0.8482483025062829
1772537096097448200,5.0794482421875,-5.159488211023807,-0.034461364789307114,-1.3268524146288632
1772537096107497000,5.0894970703125,-5.806388523212075,-0.39970512825697657,-1.7373345190964637
1772537096117545200,5.099545166015625,-6.5568894951283925,-0.43623277792632575,-2.1882588163286445
1772537096127594000,5.109593994140625,-7.225644496250152,-0.8896467000171542,-2.2466959538586435
1772537096137642200,5.119642333984375,-7.547037427553534,-1.7123840561047194,-1.8450202561810611
1772537096147690000,5.12968994140625,-7.6718316819578405,-2.1812778714001175,-1.515995076433569
1772537096157739300,5.1397392578125,-7.460846167787909,-2.301975211879611,-1.3533216116204858
1772537096167787000,5.149787109375,-6.973366602227092,-2.4794834038615226,-1.2330161930680275
1772537096177835000,5.1598349609375,-6.443845299750566,-2.9346660891905425,-1.0334135120473802
1772537096187884000,5.169884033203125,-6.022187575143575,-3.5043767787143585,-0.7056888935044408
1772537096197932000,5.17993212890625,-6.002991876286268,-3.937330973361432,-0.44031303297728297
1772537096207980000,5.18997998046875,-6.006778993609547,-4.2065535724446175,-0.2524914271758869
1772537096218029000,5.200029052734375,-6.016486733153462,-4.508237594671547,-0.06883291413700207
1772537096228077000,5.2100771484375,-6.161957280361652,-4.7475882025823,0.07612666960805654
1772537096238126000,5.2201259765625,-6.453017032721639,-4.7749938036412,0.10405569175286218
1772537096248174000,5.230174072265625,-6.8714102025747295,-4.70761976480931,0.09400503878910094
1772537096258222000,5.24022216796875,-7.089579490768909,-4.543859235411882,-0.05314222772596404
1772537096268270800,5.250270751953125,-7.246240709555149,-4.21214452431947,-0.3745169840518385
1772537096278319000,5.260319091796875,-7.189973463410139,-3.623797815647721,-0.7760977699875831
1772537096288367000,5.2703671875,-6.9162576445609325,-3.0254250952631234,-1.1361766249727456
1772537096298416000,5.280416015625,-6.412120374187826,-2.718971958938241,-1.2092135849371553
1772537096308464000,5.290464111328125,-5.709816739207506,-2.4933611225664616,-1.0598455918990075
1772537096318513200,5.30051318359375,-4.845412909257412,-2.188816157950461,-0.7954984168324619
1772537096328561200,5.31056103515625,-3.6679777336359023,-1.7638669905826447,-0.6306872093383222
1772537096338609000,5.32060888671875,-2.467136547985673,-1.2333850263804196,-0.40857217919304967
1772537096348658200,5.330658203125,-1.3161971651017665,-0.7276531802922487,-0.16021131248325107
1772537096358706000,5.340705810546875,-0.2641115396797657,-0.05961275718063116,0.03718231418579816
1772537096368754200,5.350754150390625,0.7752776857763528,0.7316904729843139,0.1121085950281471
1772537096378803000,5.360802978515625,1.757298425847292,1.4519994279935955,0.006258841199055314
1772537096388851200,5.370851318359375,2.6192139461129904,1.943826667369902,0.08799611723050475
1772537096398899200,5.380899169921875,3.3841736514925955,2.276590302993357,0.2569487353783101
1772537096408948000,5.390947998046875,4.076389023178816,2.622164904873073,0.4374731333762407
1772537096418996000,5.400995849609375,4.613912430325151,2.9457664521366356,0.6530415183570235
1772537096429044000,5.4110439453125,5.114215237101912,3.2114816276207563,0.7857756258498877
1772537096439093000,5.421093017578125,5.533486358833312,3.4898540401041505,0.8170183208536356
1772537096449141000,5.43114111328125,5.869564233571291,3.7894375829204914,0.7952417386576532
1772537096459190000,5.44118994140625,6.268125744751095,3.9886812213703986,0.7478275879886
1772537096469238000,5.451238037109375,6.57444444104135,4.133319993929565,0.7677222288955002
1772537096479286000,5.4612861328125,6.918615021342038,4.183998041765392,0.8332640107989311
1772537096489335000,5.4713349609375,7.209528058707714,4.150815318609774,1.0184836539410054
1772537096499383000,5.481383056640625,7.391215582200885,4.042557772986591,1.1134022639110683
1772537096509431000,5.49143115234375,7.552340210136771,3.8758138438642025,1.1936886104818434
1772537096519480000,5.50147998046875,7.700207297092676,3.720634680329263,1.2701593442872166
1772537096529528000,5.511528076171875,7.67515176629126,3.7077532791852947,1.222029738825187
1772537096539577000,5.5215771484375,7.588219917291402,3.74591116040498,1.147875611399114
1772537096549625000,5.531625,7.557591554793715,3.830997089277208,0.9771588331229984
1772537096559673000,5.541673095703125,7.330804660379886,3.9558459964781996,0.7863203271858393
1772537096569721900,5.551721923828125,6.968268402305245,4.037186601342261,0.5742987479664385
1772537096579770000,5.56177001953125,6.698190063175558,3.9362253502070903,0.36457806610055266
1772537096589818000,5.571818115234375,6.43328240468204,3.6659906514719127,0.2531043349098414
1772537096599867100,5.5818671875,6.174129364192486,3.077850571288168,0.3009058774612844
1772537096609915100,5.5919150390625,5.810662547269463,2.1965900068223476,0.4614190224353224
1772537096619964200,5.601964111328125,5.196109091934561,1.1035846342518925,0.9011137043185532
1772537096630012200,5.61201220703125,4.462611277267337,-0.0007297755792737006,1.286171444672346
1772537096640060000,5.622059814453125,3.2185762620568275,-0.42039720315188167,1.3349768305040894
1772537096650109000,5.63210888671875,2.066498815053701,-0.23898235912024973,0.8295372453607618
1772537096660157000,5.642156982421875,1.0956360133349894,-0.005657295109331608,0.15062427670955658
1772537096670205200,5.652205078125,-0.10748831481635569,-0.22846534902006385,-0.37954825621731575
1772537096680254000,5.66225390625,-1.3445435541421173,-0.5841378588050603,-0.5544325294364243
1772537096690302200,5.67230224609375,-2.3474136054962873,-0.9275552826508879,-0.663733738893643
1772537096700350000,5.682349853515625,-3.5074025562763214,-1.1641308728903532,-0.8812664827499538
1772537096710399200,5.692399169921875,-4.820083237689733,-1.3145999590381978,-1.2828143893294035
1772537096720447000,5.702447021484375,-5.5585331218063825,-1.4735495810225605,-1.666418423743546
1772537096730496300,5.712496337890625,-5.932885489881039,-1.9514087930619715,-1.5571981705680489
1772537096740544000,5.7225439453125,-6.441666786667704,-2.6368597851797935,-1.036674340474233
1772537096750592000,5.732592041015625,-7.068551315787434,-2.9409926618635653,-0.664385992257297
1772537096760641000,5.74264111328125,-7.480769596397876,-3.2237250231221317,-0.6132895728789269
1772537096770689000,5.75268896484375,-7.705399020516872,-3.6580654114305973,-0.6552110444158316
1772537096780737300,5.7627373046875,-7.895486708086729,-3.938169177751243,-0.6074148356266319
1772537096790786000,5.7727861328125,-8.131493266266585,-4.164003593745828,-0.5973998567644506
1772537096800834000,5.782833984375,-8.306092292803525,-4.377835729518533,-0.4830320846326649
1772537096810882000,5.792882080078125,-8.418324587276578,-4.4843283112958074,-0.3363907400794327
1772537096820931000,5.80293115234375,-8.685840382441878,-4.555186685112118,-0.12845460354276
1772537096830979000,5.81297900390625,-8.841670411100983,-4.678998650480807,0.030639358815737067
1772537096841028000,5.823028076171875,-8.809176839253306,-4.697703643211722,0.027160284528322517
1772537096851076000,5.833076171875,-8.87914294040501,-4.638416756984591,0.0018922434873878955
1772537096861124000,5.8431240234375,-8.814672514060138,-4.541240577346087,-0.01572524626776576
1772537096871173000,5.853173095703125,-8.503954706028104,-4.244606531985104,-0.10614873677566647
1772537096881221000,5.86322119140625,-8.062965673485397,-3.7799274117752906,-0.24712993667535482
1772537096891268900,5.873268798828125,-7.475444017460942,-3.2840465130940077,-0.32283173193484543
1772537096901318100,5.883318115234375,-6.73304568797946,-2.843693732628226,-0.28012488217391074
1772537096911366000,5.893365966796875,-5.913295823270082,-2.4080413849383593,-0.09573146072290838
1772537096921415200,5.903415283203125,-5.0028141327559945,-1.9584537431374192,0.08027173352353274
1772537096931463000,5.913462890625,-4.019536670622229,-1.513511881315708,0.20462306646592915
1772537096941511200,5.92351123046875,-2.926852492830157,-1.1527569536998867,0.47522016877271234
1772537096951560000,5.933559814453125,-1.5589993747711182,-0.4599807332605123,0.8235161584403365
1772537096961608000,5.94360791015625,1.029251862323284,-0.5123053792595863,1.0393204710688442
1772537096971656200,5.95365625,-0.6705009680062533,1.1481637806907294,1.22778939833045
1772537096981705000,5.963705078125,1.6847826402127741,1.6638208084657786,0.9980279450852423
1772537096991753200,5.973753173828125,2.8616712878674266,2.079210997110605,0.787169637491554
1772537097001802000,5.983802001953125,3.1370085704386232,2.9152988331586123,0.5338984946474432
1772537097011850200,5.993850341796875,3.9483775602936744,3.403262090583145,0.6324545843370258
1772537097021898000,6.00389794921875,4.505845438838005,3.7119448856562376,0.8576317054666578
1772537097031947300,6.013947265625,5.052951497843861,3.8008158860251307,0.7754965892240404
1772537097041995500,6.02399560546875,5.803940545538067,3.9607907594040035,0.6065028353482484
1772537097052043500,6.03404345703125,6.43270314348936,4.196523176817596,0.6623319823369384
1772537097062092500,6.044092529296875,6.733970986130833,4.340886639566719,0.8596312817860394
1772537097072140500,6.054140625,7.084311194977164,4.527274595835805,0.9774550395905971
1772537097082188300,6.064188232421875,7.6285034123629325,4.409896755167842,1.08464780552648
1772537097092237600,6.074237548828125,7.939483086201548,4.420767108750343,1.2308306657224892
1772537097102285300,6.084285400390625,8.093293007209896,4.492969882912933,1.214808628465235
1772537097112334600,6.09433447265625,8.110486718595027,4.455997412085533,1.1193109764982014
1772537097122382300,6.10438232421875,8.239101992592214,4.3640138326540585,0.986500150507316
1772537097132430300,6.114430419921875,8.287181840628385,4.326292297025025,0.9055761636201292
1772537097142479400,6.124479248046875,8.186437739375233,4.309075789286196,0.7989976571250706
1772537097152527400,6.13452734375,7.973013599881529,4.308712216670811,0.7154697713498026
1772537097162575400,6.144575439453125,7.736960864472389,4.240946548172832,0.5868506248950958
1772537097172624400,6.154624267578125,7.536040817242861,4.140113599592447,0.44646034009326246
1772537097182672400,6.16467236328125,7.276728202277422,4.108122132048011,0.27412618974838404
1772537097192721400,6.174721435546875,6.8781988398015494,3.9592800625801083,0.15887626448720693
1772537097202769400,6.184769287109375,6.360530472204089,3.6442017212510107,0.12974895420223473
1772537097212817400,6.1948173828125,5.814494672778248,3.1271307350248096,0.3382990944514051
1772537097222866400,6.204866455078125,5.305188475334644,2.295823703512549,0.5405825389886275
1772537097232914400,6.21491455078125,4.507662717393041,1.3860299952626227,0.6965599036965519
1772537097242962400,6.22496240234375,3.32012115829885,0.5184802685022354,0.8720635509230196
1772537097253011500,6.235011474609375,2.07694480574429,0.05889058038592338,0.8047530788466334
1772537097263059500,6.2450595703125,0.7493582316219807,-0.02246317622065544,0.5952521041460335
1772537097273108500,6.2551083984375,-0.21047639560401438,-0.2446481297969818,0.3772985045291483
1772537097283156500,6.265156494140625,-1.1548059951841831,-0.3477665589660406,-0.1329836618071422
1772537097293204500,6.27520458984375,-2.210619701218605,-0.2194336090415716,-0.5967077097818255
1772537097303253500,6.28525341796875,-2.8297020321547985,-0.513555671581626,-0.9104310563053936
1772537097313301200,6.29530126953125,-3.537701832950115,-0.9262538446635007,-1.2159150553371756
1772537097323349500,6.305349609375,-4.408253664135932,-1.2198866623818874,-1.3935856713391839
1772537097333398300,6.315398193359375,-4.789494622680545,-1.6001368563234806,-1.3919628924429417
1772537097343446500,6.325446533203125,-5.111288536000251,-2.239949256077409,-1.1915081246376036
1772537097353494500,6.33549462890625,-5.494031131279468,-2.916679181601107,-0.8913634408071637
1772537097363543600,6.34554345703125,-5.666072290027142,-3.397759401513636,-0.6232249836988747
1772537097373591300,6.35559130859375,-5.718066681158542,-3.7632331743448972,-0.4506528598796576
1772537097383640600,6.365640625,-5.9224932752043005,-4.099279777161777,-0.20955486031230539
1772537097393688300,6.375688232421875,-6.079280750718713,-4.494577025848627,0.1528873628033325
1772537097403736300,6.385736328125,-6.220975286519527,-4.967863230884075,0.4656467596655711
1772537097413785300,6.395785400390625,-6.582103431361913,-5.486783059847355,0.6977262440621852
1772537097423833300,6.405833251953125,-6.904933701992035,-5.939107140874862,0.8649945623848587
1772537097433881600,6.415881591796875,-7.361449389490485,-6.134740772134065,0.8796414388313889
1772537097443930400,6.425930419921875,-7.759715132594108,-6.125713416069746,0.7598762646354734
1772537097453978600,6.435978515625,-8.083614493760466,-5.912812423667312,0.679966130965948
1772537097464026400,6.4460263671875,-8.283586446484923,-5.6556368207305665,0.5373443973176181
1772537097474075400,6.456075439453125,-8.472527302107215,-5.331826306891441,0.3545222437713295
1772537097484123400,6.466123291015625,-8.435564475890994,-4.896617903576791,0.2049062307888642
1772537097494172400,6.47617236328125,-8.15179195792973,-4.427976309476793,-0.010967786074988543
1772537097504220400,6.486220458984375,-7.6774004220008845,-3.974885920251906,-0.15898863882049918
1772537097514268400,6.496268310546875,-6.977142029112577,-3.592078150781989,-0.17338132131025194
1772537097524317400,6.5063173828125,-6.095681265899539,-3.246363555909693,-0.13334040282294155
1772537097534365400,6.516365478515625,-5.138880307281017,-2.9179303507059813,0.0010549158804118632
1772537097544413400,6.526413330078125,-4.0095425153523685,-2.4703359285488724,0.14325089839734137
1772537097554462500,6.53646240234375,-2.6562884160101414,-1.9647852842465041,0.30297026264518495
1772537097564510500,6.546510498046875,-1.2598784810304642,-1.4133900036141276,0.40242074389122423
1772537097574559500,6.5565595703125,0.163050043040514,-0.6730532828375697,0.45311530447043474
1772537097584607500,6.566607421875,1.3831506404340266,0.23830256016254422,0.5341338377732783
1772537097594655500,6.576655517578125,2.3562352098554373,1.0951599202558397,0.5886755022346973
1772537097604704300,6.586704345703125,3.2607454247444867,1.7893235034003854,0.6301951149724424
1772537097614752500,6.59675244140625,4.265985127839445,2.307114328333735,0.5908879175871611
1772537097624800500,6.606800537109375,5.048949860987067,2.7209643017992375,0.5401943068560212
1772537097634849300,6.616849365234375,5.708434929460287,3.055194502843916,0.6297217253070324
1772537097644897500,6.6268974609375,6.431174034225941,3.190999103823304,0.811223078578338
1772537097654946300,6.6369462890625,6.919186683750152,3.296609057547152,0.9732707396432757
1772537097664994600,6.64699462890625,7.20703624189198,3.4129671997785564,1.190947787341103
1772537097675042300,6.657042236328125,7.479954772883653,3.4505917047739025,1.4312769579604268
1772537097685091600,6.667091552734375,7.58794577652514,3.4559108539700505,1.609851025608182
1772537097695139300,6.677139404296875,7.627492774015664,3.4525054294407367,1.64282799705863
1772537097705187300,6.687187255859375,7.721691983669996,3.505790444904566,1.588680811807513
1772537097715236400,6.697236328125,7.82524821973443,3.584237081892788,1.6162978636600076
1772537097725284400,6.707284423828125,7.750224835193157,3.6097292505457994,1.5238706321142612
1772537097735332600,6.71733251953125,7.738515692698955,3.5074224300205707,1.4243807687059045
1772537097745381400,6.72738134765625,7.665159949108958,3.428548507530987,1.3904989573702216
1772537097755429600,6.7374296875,7.486369316101074,3.404906350658834,1.3906582395851612
1772537097765478400,6.747478515625,7.335603000572323,3.328050782254338,1.3632909247100353
1772537097775526400,6.7575263671875,7.014218837097287,3.254134482172131,1.3684877627007663
1772537097785574400,6.767574462890625,6.688645405238867,3.267393484456837,1.3407894623056054
1772537097795623400,6.77762353515625,6.439187829333544,3.358316448919475,1.2149746326819062
1772537097805671400,6.78767138671875,6.246480314654112,3.435207965420186,0.9094498632483183
1772537097815719400,6.797719482421875,5.909468958458304,3.3562194766402245,0.7852409344512968
1772537097825768400,6.8077685546875,5.441368631628156,3.0043779233202335,0.8512386434286833
1772537097835816400,6.81781640625,4.830497079676389,2.450831017611921,0.9543721971016377
1772537097845865500,6.827865478515625,3.9693858615309,1.9333482357144354,0.9821350141003727
1772537097855913500,6.83791357421875,2.8162749798268076,1.543253231845796,0.8248062713161111
1772537097865961200,6.847961181640625,1.359578041666746,1.23456839094609,0.48581170541383323
1772537097876010500,6.858010498046875,0.10581015247106551,1.0407678203329442,-0.05668868642747402
1772537097886058200,6.868058349609375,-0.993261096009612,1.1906082531884312,-0.742871207690239
1772537097896106500,6.8781064453125,-1.9897434921532868,1.4601087924301623,-1.5062152945667504
1772537097906155300,6.8881552734375,-2.6162667867451903,1.3490449572145937,-1.9268388538204133
1772537097916203500,6.89820361328125,-3.0588235069960352,0.6226689572513103,-1.7720180022038519
1772537097926251500,6.90825146484375,-3.6201170813083645,-0.4886117844611406,-1.3820575845003127
1772537097936300500,6.918300537109375,-4.560421078634262,-1.335879186171293,-1.1422966422230005
1772537097946348500,6.9283486328125,-5.3098254874855275,-1.704878502780199,-1.2849503784447909
1772537097956397600,6.9383974609375,-5.680539206796884,-2.00026576295048,-1.527166751050204
1772537097966445600,6.948445556640625,-5.857991284677386,-2.590860542809963,-1.4558363758079707
1772537097976493300,6.958493408203125,-5.925484858235716,-3.189732737149298,-1.2134939656700938
1772537097986542300,6.968542236328125,-6.288682795089483,-3.636228258153796,-1.1016956056348979
1772537097996590300,6.97859033203125,-6.8179504150658845,-4.064840624204278,-1.1103003523729742
1772537098006638600,6.988638671875,-7.3710449008315795,-4.3915152953028675,-1.1438696636933832
1772537098016687400,6.998687255859375,-8.06917271143198,-4.723045297478139,-1.0528829132795334
1772537098026735600,7.008735595703125,-8.664729205352067,-5.017056593120098,-0.9334335270345211
1772537098036784600,7.01878466796875,-9.21066797414422,-5.148296370401979,-0.876071106063947
1772537098046833000,7.0288330078125,-9.683145200884342,-5.239841266155243,-0.8493409200485795
1772537098056880600,7.038880615234375,-10.09570542680025,-5.127411987805366,-0.8510164520453661
1772537098066930000,7.048929931640625,-10.461429082739352,-4.931763158977032,-0.8615177531197666
1772537098076977700,7.058977783203125,-10.450585032641888,-4.870336338111758,-1.0307255881376565
1772537098087025700,7.069025634765625,-10.273313572025298,-4.680101058764755,-1.1914672811705618
1772537098097074700,7.07907470703125,-9.913264454591273,-4.410820007492601,-1.2955318320833147
1772537098107122700,7.089122802734375,-9.19766703827381,-3.944355172909796,-1.3234423139244318
1772537098117170700,7.099170654296875,-8.252225678059459,-3.4342157395124433,-1.1935700986687092
1772537098127219700,7.1092197265625,-7.051765016159415,-3.084956311640143,-0.944845074821636
1772537098137267700,7.119267822265625,-5.66577593742907,-2.61977391808331,-0.7743701424773782
1772537098147316700,7.129316650390625,-4.052750373438,-2.1474814002603293,-0.542032774329558
1772537098157364500,7.139364501953125,-2.4584090516507624,-1.8486270485013723,-0.12546871959976852
1772537098167412700,7.149412841796875,-0.8702017025738954,-1.4804264810547232,0.23605865369327364
1772537098177461500,7.15946142578125,0.6386398488432169,-0.8210366896495223,0.42599706898555156
1772537098187509800,7.169509765625,1.783870790952444,-0.08882540766149759,0.5848159041970968
1772537098197557800,7.179557861328125,2.8220424573123455,0.6863423879995941,0.7956421361520886
1772537098207606800,7.189606689453125,3.8356197806417938,1.47131261575073,1.0619646298795937
1772537098217654800,7.19965478515625,4.747268761369586,2.1910361720874905,1.144778960558027
1772537098227702500,7.20970263671875,5.5456409070074555,2.8570918511226773,1.3433045138664543
1772537098237751800,7.219751708984375,6.176724641382694,3.357614438129961,1.4841067770026624
1772537098247799600,7.229799560546875,6.731054806423187,3.6611852970167993,1.6222291534051299
1772537098257848800,7.239848876953125,7.370434659978747,3.9937937420785423,1.8110417064726352
1772537098267896600,7.249896484375,7.912323861119151,4.251440761919319,1.909922644202411
1772537098277944800,7.25994482421875,8.218307626366615,4.380784934712946,2.0036295402951536
1772537098287993600,7.26999365234375,8.424451545724272,4.447602800966799,2.0578882230967284
1772537098298041900,7.280041748046875,8.587509772071241,4.493876768624783,2.1158777629896997
1772537098308090600,7.290090576171875,8.594484871780871,4.4990617700472475,2.1976529598787424
1772537098318139000,7.300138916015625,8.585967803326248,4.414570884458721,2.1329105847246943
1772537098328186600,7.3101865234375,8.619108440905809,4.3564752538427705,1.9446926365494728
1772537098338235600,7.320235595703125,8.51563696051538,4.4046474563375115,1.8346208811111746
1772537098348283600,7.33028369140625,8.276307979914545,4.442364608052372,1.7608330297142267
1772537098358331600,7.34033154296875,7.935884184926747,4.400222041110694,1.4800404043465851
1772537098368380700,7.350380615234375,7.572257793527841,4.375449711164832,1.1898700751069933
1772537098378428700,7.3604287109375,7.257037997901439,4.340861212864518,0.9329534153673797
1772537098388476700,7.3704765625,7.036881335282326,4.30088079239279,0.6107067898441105
1772537098398525700,7.380525634765625,6.69762775311768,4.1982361182153225,0.5431384705491363
1772537098408573700,7.39057373046875,6.2045963986486194,3.8179926462754605,0.5485250589583068
1772537098418622700,7.400622802734375,5.831341178160906,3.2258436227113005,0.6309010712847113
1772537098428670700,7.410670654296875,5.3522407338887446,2.51986509861052,0.9566060205683111
1772537098438718700,7.42071875,4.7655368239879605,1.7249524457767604,1.06014866649881
1772537098448767700,7.430767822265625,3.809358965703845,1.2021560676410794,0.866123785610497
1772537098458815700,7.440815673828125,2.404279986578226,1.2194780815809965,0.6531457824490964
1772537098468863700,7.45086376953125,1.266154492560029,1.2999813588380813,0.20411738196611404
1772537098478912800,7.460912841796875,0.48352702854275703,1.0778332301408051,-0.18791743085868656
1772537098488960800,7.470960693359375,-0.3708499129116535,0.678921882610023,-0.3942525619395077
1772537098499008800,7.4810087890625,-1.1473790600538254,0.15491612868458032,-0.5118124811761081
1772537098509057800,7.491057861328125,-2.0865958466649053,-0.1767626343116164,-0.548396537207812
1772537098519105800,7.501105712890625,-3.3758103122949596,-0.32344664896279574,-0.6838450182259083
1772537098529154800,7.51115478515625,-4.274615593540668,-0.5011988788336516,-1.0307537913188338
1772537098539202800,7.521202880859375,-4.856330609112978,-0.6798179546669125,-1.470237972256541
1772537098549250600,7.53125048828125,-5.1991380843669175,-1.139587675525248,-1.7640991919033229
1772537098559299600,7.541299560546875,-5.2436418274819845,-2.064240514732897,-1.5331868881225585
1772537098569347600,7.55134765625,-5.5854176216006275,-3.127495476683974,-1.1909180497899652
1772537098579395800,7.561395751953125,-6.328340851739049,-4.028398314730823,-0.9103867057070135
1772537098589444600,7.571444580078125,-6.9424214288651935,-4.845376084378361,-0.7397399969924241
1772537098599492900,7.581492919921875,-7.513116453251242,-5.44445607624948,-0.6324889249980449
1772537098609541600,7.591541748046875,-8.05194100612402,-5.897056636130809,-0.6481591531429439
1772537098619590000,7.60158984375,-8.533946524187922,-6.212369955259561,-0.7797480361234396
1772537098629637600,7.6116376953125,-8.968307078501581,-6.229321674582362,-0.9301968101356178
1772537098639687000,7.62168701171875,-9.440114443156123,-6.10852905703485,-1.18080056040138
1772537098649734700,7.631734619140625,-9.855690217500925,-5.9616001277118915,-1.3705758210211991
1772537098659782700,7.64178271484375,-10.084882419490814,-5.743315104183554,-1.5318141384646295
1772537098669831700,7.651831787109375,-10.145056609946488,-5.51722905151546,-1.616636301834136
1772537098679879700,7.661879638671875,-10.069923335289955,-5.265479565280676,-1.596974154508859
1772537098689928000,7.671927978515625,-9.752202370497583,-4.838507952174544,-1.528104616422206
1772537098699976700,7.681976806640625,-9.197914291033149,-4.324827192908526,-1.4490933312885463
1772537098710025000,7.69202490234375,-8.26016874601841,-3.842926304262876,-1.3339002873137593
1772537098720073700,7.70207373046875,-6.997581590551137,-3.374608827550709,-1.1955066927544773
1772537098730121700,7.712121826171875,-5.582357064986229,-2.859885281233489,-0.9925694604836404
1772537098740169700,7.722169677734375,-4.178341915699839,-2.3348916853144766,-0.7245790335439145
1772537098750218800,7.73221875,-2.7730840728759762,-1.7363479922771452,-0.3896059051774442
1772537098760266800,7.742266845703125,-1.3241922555088996,-1.143188914887607,-0.030728461871296166
1772537098770314800,7.752314697265625,0.0184521870136261,-0.5788876831918954,0.24825901377052068
1772537098780363800,7.76236376953125,1.2682622784942388,0.0025520225703716277,0.39273791959285737
1772537098790411800,7.772411865234375,2.4202713364362713,0.5667214445799589,0.5046446353733539
1772537098800459500,7.78245947265625,3.3551860419392585,1.0966855223879217,0.5889674709185958
1772537098810508800,7.7925087890625,4.0499522671520705,1.612877972213924,0.7438342805687338
1772537098820556500,7.802556640625,4.6233869456350805,2.161279331727326,0.8582875390268861
1772537098830605800,7.812605712890625,5.1733869725167745,2.694920929004252,0.881318870524317
1772537098840653600,7.822653564453125,5.678725435373186,3.215555745191872,0.9226885533973574
1772537098850701800,7.832701904296875,6.0679170606613155,3.6191944135054945,0.9849565012618898
1772537098860750600,7.84275048828125,6.440699402940273,3.872617385910451,1.064218473220989
1772537098870798800,7.852798828125,6.802851045611501,4.038842259594798,1.196406345007941
1772537098880846800,7.862846923828125,7.0814616507649415,4.096393115809559,1.3951310010850428
1772537098890895600,7.8728955078125,7.4162564999550575,4.029532871718705,1.5821965643547475
1772537098900944000,7.88294384765625,7.635878325045108,3.9195100699886676,1.7666054756358265
1772537098910992600,7.89299267578125,7.803964024165272,3.8139939320281147,1.864239628174901
1772537098921041000,7.903041015625,7.939626878586411,3.676778879728913,1.8900024304628371
1772537098931088600,7.913088623046875,7.980634011757373,3.5650048504173752,1.8298104120895264
1772537098941137700,7.9231376953125,7.901204501211643,3.536705807650089,1.7856503678455948
1772537098951185700,7.933185546875,7.597111664277315,3.6288884167850015,1.6807514850005507
1772537098961233700,7.943233642578125,7.187396306398511,3.726617261870205,1.471845699714124
1772537098971282700,7.95328271484375,6.9378153963744635,3.805604873867333,1.1986644261330366
1772537098981330700,7.96333056640625,6.719917326337098,3.937411345121264,0.8952785684242844
1772537098991378700,7.973378662109375,6.23958295635581,3.9369668162241576,0.5419741760101169
1772537099001427700,7.983427734375,5.88511836105585,3.5040780880287286,0.3884630187526345
1772537099011475700,7.993475830078125,5.692002850097418,2.711397724291682,0.42079950034245844
1772537099021524700,8.003524658203125,5.321340568712354,1.8042542382895945,0.5958292464468627
1772537099031572700,8.01357275390625,4.868966218802332,0.9177081346362829,0.8656890474550426
1772537099041621000,8.02362109375,4.019426195985079,0.4276932053789496,1.0433350404724477
1772537099051670000,8.033669921875,2.8921359842360017,0.404480672095716,0.871150454666093
1772537099061718000,8.043718017578126,1.6120581802636385,0.5420744945794344,0.5113498321004212
1772537099071766000,8.05376611328125,0.5531716426551342,0.21563275545388458,0.167509725863114
1772537099081815000,8.06381494140625,-0.44502223358154297,-0.20970365766584873,-0.0729345225032419
1772537099091863000,8.073863037109374,-1.6307628807336092,0.13782324732542037,-0.49814489809051155
1772537099101911000,8.0839111328125,-2.7618583299845456,0.5711185104951262,-1.1738512527201324
1772537099111959800,8.093959716796874,-3.4847909114956854,-0.1058262268230319,-1.523586992867291
1772537099122008000,8.104008056640625,-4.310089642503858,-1.13436204983145,-1.4566715114578603
1772537099132056800,8.114056884765626,-5.216443439432978,-1.5818766847506165,-1.3484309169694781
1772537099142105000,8.12410498046875,-5.574157391917705,-1.7641192117780446,-1.265119304293394
1772537099152153000,8.134153076171875,-5.862387473809719,-2.140750630700588,-1.1340368364650755
1772537099162202000,8.1442021484375,-6.274392403930425,-2.700814370957017,-0.8957738776605576
1772537099172250000,8.15425,-6.435077471405267,-3.208902424782514,-0.6169966837685554
1772537099182297900,8.1642978515625,-6.385989323109388,-3.531894315715134,-0.5713800840407609
1772537099192347100,8.17434716796875,-6.383429117232561,-3.9350326332911845,-0.4722643877070397
1772537099202395000,8.184394775390626,-6.429523344409465,-4.414027863623201,-0.2777016005497426
1772537099212444200,8.194444091796875,-6.61006578952074,-4.7910091188967225,-0.15918503817543386
1772537099222492000,8.204491943359375,-7.048601583692431,-5.1264802599132056,-0.05435710167475044
1772537099232540200,8.2145400390625,-7.402095288133621,-5.425709290203452,0.03527545765116811
1772537099242589000,8.2245888671875,-7.775455138039589,-5.448144409373402,0.021427695693075656
1772537099252637200,8.23463720703125,-8.059222979825735,-5.334373653286695,-0.08666603767052292
1772537099262685200,8.244685302734375,-8.254061076793073,-5.115922625541686,-0.23719671781249344
1772537099272734200,8.254734130859376,-8.395173428791761,-4.807287761263549,-0.5070263428781181
1772537099282782000,8.264781982421875,-8.410053602537513,-4.473933466270566,-0.8751924235332756
1772537099292831000,8.2748310546875,-8.257567623609305,-4.0699423312574625,-1.1816680639509112
1772537099302879000,8.28487890625,-7.853575904074311,-3.486964456142485,-1.467826819461584
1772537099312927000,8.294927001953125,-7.221249476161598,-2.8744325697630644,-1.7388780952766536
1772537099322976000,8.30497607421875,-6.3818813032686705,-2.3806550731018183,-1.7924878126502035
1772537099333024000,8.31502392578125,-5.305687072506546,-2.0277996665641664,-1.6114818416804075
1772537099343072000,8.325072021484376,-4.176633358216286,-1.714938124501705,-1.2205449070949106
1772537099353121000,8.33512109375,-3.0700767224162817,-1.2538652120903133,-0.838688154739514
1772537099363169000,8.3451689453125,-1.9497744698584079,-0.6793661192461848,-0.5899104508571327
1772537099373217000,8.355217041015624,-0.7626449986964464,-0.03237023772895336,-0.35638233855478463
1772537099383266000,8.36526611328125,0.4742524197191,0.5730252208992839,-0.12195508545562624
1772537099393314000,8.37531396484375,1.6467688436388968,1.0678864211440087,0.09518529808223247
1772537099403363000,8.385363037109375,2.5936235777825116,1.5404332059890031,0.3209102623529732
1772537099413411000,8.3954111328125,3.3341187039911744,1.9597075425907968,0.5587411133505403
1772537099423459000,8.405458984375,4.083987223222851,2.3593626942262054,0.7135320082202553
1772537099433508000,8.415508056640626,4.697738714525103,2.8398358881562946,0.8355147123351693
1772537099443556000,8.42555615234375,5.03322329954505,3.3683234636709094,1.030617305457592
1772537099453604000,8.43560400390625,5.300100796806812,3.874451031078398,1.283996000329405
1772537099463653000,8.445653076171874,5.590958889114856,4.2276109735205765,1.5438897761836647
1772537099473701000,8.455701171875,5.786650972563028,4.403654645907879,1.7002496739357709
1772537099483750100,8.465750244140626,5.729142201924324,4.552345031945407,1.9221175243869422
1772537099493798100,8.475798095703125,5.687848653027415,4.587908512757719,2.1924223657488824
1772537099503846100,8.48584619140625,5.825843165266513,4.480521027967334,2.446318070232123
1772537099513895000,8.49589501953125,5.852196919184923,4.478189370149374,2.80756092749536
1772537099523943000,8.50594287109375,5.739897404694557,4.618047922694683,3.2536735866621136
1772537099533991200,8.5159912109375,5.714273718616366,4.767272854000329,3.506353339484334
1772537099544040000,8.5260400390625,5.593922415095568,4.938936996129155,3.7808234838321804
1772537099554088200,8.536088134765626,5.391688947179913,5.129450800156593,4.285232264623046
1772537099564136000,8.546135986328125,5.571005065366625,5.328906620052456,4.418633603852987
1772537099574185200,8.556185302734375,5.446709408134222,5.640556740498543,4.383638278317451
1772537099584233000,8.56623291015625,5.204115288257599,5.748378817313909,4.413391027024388
1772537099594281000,8.576281005859375,5.173962142056227,5.748316273471713,4.138554387451708
1772537099604330000,8.586330078125,4.970504100781679,5.767426047611236,3.9247511855125423
1772537099614378000,8.5963779296875,5.025757201448083,5.5848687555462115,3.871484290227294
1772537099624427000,8.606427001953126,4.6331209886640305,5.590750214800238,3.664894088406861
1772537099634475000,8.61647509765625,4.427209124496579,5.505931996953487,3.2681700217872858
1772537099644523300,8.626523193359375,4.21081035310626,5.348982608875632,2.8779963997244833
1772537099654572000,8.636572021484374,3.3003450292050838,4.885820322969556,2.6031822642445563
1772537099664620300,8.646620361328125,2.2657535594195126,4.37108917786777,1.8093414784260093
1772537099674668000,8.65666796875,0.8623007201910018,3.8761446832537647,1.0865913408096879
1772537099684717000,8.666717041015625,-0.6658586951583624,3.119738871207833,0.43648024988137185
1772537099694765000,8.67676513671875,-1.051104213169217,2.03097215912044,-0.8061046395860612
1772537099704814000,8.68681396484375,-0.17809446743726728,1.3316694595217704,-2.0869832385472953
1772537099714862000,8.696862060546875,-0.31074703412652016,1.2173445766836404,-2.0648298589281735
1772537099724910000,8.70691015625,-0.7969125944793224,0.22300036161243914,-2.1715422209359705
1772537099734959000,8.716958984375,-1.478002176517248,-0.676598115837574,-2.8407763838768005
1772537099745007000,8.727007080078126,-2.4991677630186078,-1.5264929434418677,-3.3828137613162395
1772537099755054800,8.737054931640625,-3.4911493406116962,-2.865909363828599,-3.2648408773645756
1772537099765104000,8.747104248046876,-4.200540303504467,-4.312395289097726,-2.4892621628150344
1772537099775151900,8.75715185546875,-4.815092589795589,-5.456148267608881,-2.5834447135955094
1772537099785200000,8.7672001953125,-5.8014376228064295,-6.132579210186004,-2.8750048166930675
1772537099795249000,8.777248779296874,-6.698525578740239,-7.016825220203399,-3.315083164131641
1772537099805297200,8.787297119140625,-8.070808788201212,-7.929453275096416,-3.9517680795148014
1772537099815346000,8.797345947265624,-9.352380045601725,-8.323912027132511,-4.3421980144262315
1772537099825394200,8.807394287109375,-10.177349106264113,-8.413425124797225,-4.1663305753886695
1772537099835442200,8.817442138671876,-10.635630634391307,-8.583709795266389,-3.7550437304094433
1772537099845491200,8.8274912109375,-10.87018757828474,-8.556284028202295,-2.769013170175254
1772537099855539200,8.837539306640625,-10.840327862071991,-8.278515134570002,-1.7850338433824477
1772537099865587000,8.8475869140625,-11.110088221293687,-7.489329334950447,-0.8928563827786594
1772537099875636200,8.85763623046875,-10.855915891826152,-6.537385168713331,-0.06658018504045904
1772537099885684000,8.86768408203125,-10.541246715819835,-5.542416684263944,0.3127274673540145
1772537099895733000,8.87773291015625,-10.057130489212273,-4.452499925358593,0.3630135932628065
1772537099905781000,8.887781005859376,-8.975735767197609,-3.318970234698057,0.45409839722365136
1772537099915829000,8.8978291015625,-8.153538509336114,-2.6446450322285293,0.5120102322379126
1772537099925878000,8.9078779296875,-7.045944931703805,-2.205283016365766,0.7680732342902571
1772537099935926000,8.917926025390624,-5.699448489928245,-1.8512316780418157,1.1471003892429172
1772537099945974000,8.92797412109375,-4.447746885612607,-1.3323872524023055,1.474847950270027
1772537099956023000,8.93802294921875,-3.0311820513546466,-0.7814762481555342,1.632561892979592
1772537099966071000,8.948071044921875,-2.0403280164867637,-0.26377923898547884,1.6979121708989142
1772537099976119000,8.958119140625,-1.1555588593780994,0.4691150568306446,1.6621774251729249
1772537099986168000,8.96816796875,0.11837561953365802,1.3207438686206936,1.3165342881016433
1772537099996216000,8.978216064453125,1.343908178848028,1.9927970345050094,0.7774401245072483
1772537100006265000,8.98826513671875,2.012544522026181,2.3573905173704026,0.3679142613185569
1772537100016313000,8.99831298828125,2.8889158531457184,2.801432507742941,-0.0759685838363599
1772537100026361000,9.008361083984376,4.142126108458638,3.309125132510066,-0.3007772826455533
1772537100036412700,9.01841259765625,5.451220748078823,3.4773467329695817,-0.495450471374765
1772537100046460700,9.028460693359374,6.678279494047165,3.315958193400502,-0.7995167856283485
1772537100056508700,9.0385087890625,7.7418802006959915,3.113007809387147,-0.8890684617377818
1772537100066557700,9.0485576171875,8.716338981080055,3.057496057784557,-0.9404629872798919
1772537100076605400,9.05860546875,9.29947847649753,3.4017367807120085,-0.8331740674931556
1772537100086653700,9.06865380859375,9.69808791847229,3.9206872970744966,-0.4358723836487159
1772537100096702500,9.078702392578125,10.133516978800296,3.9748409120663997,-0.01883990768957883
1772537100106750700,9.088750732421875,10.47749174426794,3.848499720481038,0.27383944522887466
1772537100116799500,9.098799560546874,10.736226851606368,3.873070974896848,0.316793620814383
1772537100126847700,9.10884765625,10.806631344175338,3.845523042757809,0.19219927289634942
1772537100136895700,9.118895751953126,10.935998897844552,3.7871862968623637,-0.014430384151637554
1772537100146944800,9.12894482421875,10.958614049756527,3.9043896577462553,-0.15033734952695668
1772537100156992800,9.13899267578125,10.594795935177803,4.084022586797177,-0.27116474612690505
1772537100167040500,9.14904052734375,10.12351230213642,4.108397441858053,-0.5438550943858921
1772537100177089800,9.15908984375,9.58628057141304,3.782733993628621,-0.6951153309114277
1772537100187137500,9.169137451171874,8.808451447588205,3.268006940180063,-0.8028598124459385
1772537100197186800,9.179186767578125,8.345430031457543,2.840269895659387,-0.8316082064159214
1772537100207234600,9.189234619140626,7.891105132001638,2.9009914908647536,-0.887660421570763
1772537100217282800,9.19928271484375,6.8681807191342115,3.261276170620322,-0.6988433384586126
1772537100227331600,9.20933154296875,5.506180418756604,3.0201883636534212,-0.07472389013804495
1772537100237379800,9.2193798828125,4.259401657795906,1.6320608115896582,1.1026900965649633
1772537100247427600,9.229427490234375,4.00482016300559,-1.2481976878479122,1.611816480462253
1772537100257476600,9.2394765625,1.262752575162053,-1.7790785882398485,1.897181236051023
1772537100267524600,9.249524658203125,-1.2355670465946196,-1.5976681281223892,1.9175629298225043
1772537100277572600,9.259572509765626,-1.4101117125958202,-2.3348303105160593,0.1282769088882953
1772537100287621600,9.26962158203125,-2.5960353150993583,-1.6071341678649187,-0.921095219791308
1772537100297669600,9.279669677734375,-3.9235540846824644,1.1583487823575735,-0.9807447287857531
1772537100307718700,9.28971875,-4.126378504228592,2.719715470781922,-0.6625453328266739
1772537100317766700,9.2997666015625,-3.6526135757654905,0.9985312914974986,0.03126023066043854
1772537100327814700,9.309814697265624,-3.848807178995013,1.823280133537948,2.4081062668681144
1772537100337863700,9.31986376953125,-5.020078571289777,-0.5621377700515091,2.8696409515723587
1772537100347911700,9.32991162109375,-6.798586373904347,-3.643316755110025,2.14274268130064
1772537100357959700,9.339959716796875,-7.640860205110907,-5.280942507350445,1.1866386919703333
1772537100368008700,9.3500087890625,-7.8878084285438055,-5.792400329869985,0.33367037520483134
1772537100378056700,9.360056640625,-8.29217015043497,-5.3483834739387035,0.1472638603657484
1772537100388104700,9.370104736328125,-8.740235989496112,-4.038011946250498,0.07781948153320699
1772537100398153700,9.38015380859375,-8.861551169613003,-2.5761264995366333,-0.8215249846231192
1772537100408201700,9.39020166015625,-8.174931425976753,-1.6166491613157092,-2.3761732515126464
1772537100418250500,9.40025048828125,-7.479368497428298,-1.4621040579006075,-3.744872172746062
1772537100428298800,9.410298828125,-7.848426266226172,-1.556740782189369,-2.680878959648311
1772537100438346800,9.4203466796875,-8.168399393859506,-1.4146718601182102,-0.35329624564033
1772537100448395800,9.430395751953125,-7.774455605608225,-1.257714142603427,1.1599940653465688
1772537100458443500,9.440443603515625,-6.872278217580914,-1.0986344644986092,1.7035697582691907
1772537100468491800,9.45049169921875,-5.746415408286452,-1.093636437015608,1.8526058890044688
1772537100478540500,9.46054052734375,-4.8088726923674345,-1.2186029061816632,1.8551871376693247
1772537100488588500,9.470588623046876,-3.857104467219114,-1.3229868252418935,1.527044439844787
1772537100498636800,9.48063671875,-3.604387012735009,-0.962110901594907,1.2805796160146594
1772537100508685600,9.490685546875,-3.8513089326828718,-0.490217246896401,1.0784504852563142
1772537100518733800,9.50073388671875,-3.7223937989562748,-0.23930859539993105,0.8376504091896116
1772537100528782600,9.510782470703125,-3.1050556813389063,-0.024150910111889242,0.7800045681677759
1772537100538830800,9.520830810546874,-2.329279398390651,0.02116816797405481,0.8022549053553492
1772537100548878600,9.530878662109375,-1.680023462986946,-0.026528745159134268,0.6803027425091713
1772537100558928000,9.540927978515626,-1.318501350390911,0.014689108153060078,0.40911852449681607
1772537100568975600,9.5509755859375,-1.0223188481897114,0.014856719804927705,0.21815387142933904
1772537100579023600,9.561023681640625,-0.37193537006080146,0.02660714415758848,0.10495265885889529
1772537100589072600,9.57107275390625,0.5525654934555292,0.09076660485714673,-0.1626384665649384
1772537100599120600,9.58112060546875,1.5236585967987775,0.31070443709380924,-0.42138131881840524
1772537100609169700,9.591169677734374,2.292153490567207,0.6913136005409062,-0.49726285455897445
1772537100619217700,9.6012177734375,2.8993074833005665,1.1137412866070866,-0.4372515995800495
1772537100629265700,9.611265625,3.338828196856379,1.3838098349951207,-0.06783405755907297
1772537100639314700,9.621314697265625,3.9857852076679468,1.4701049935266375,0.5436635904017836
1772537100649362700,9.63136279296875,4.564552479350566,1.337075117957592,0.8088986542187631
1772537100659410700,9.64141064453125,4.934233348482847,0.8047130390971898,-0.4585079938268289
1772537100669459500,9.65145947265625,5.571233028903603,0.5749942559499294,-1.2467233775116502
1772537100679507700,9.6615078125,7.493080211916565,0.8299236873950808,-1.2108631057098507
1772537100689555700,9.6715556640625,7.603269602385163,1.0341458449099212,-0.19044285768307745
1772537100699604700,9.681604736328126,5.286050059622526,0.6078811379641295,0.9084403208795935
1772537100709652700,9.69165283203125,4.435052239212394,0.1265759501893073,0.9649497052174061
1772537100719700500,9.701700439453125,4.870602295571565,0.22775595864169298,0.6482127099610865
1772537100729749800,9.711749755859374,5.0734255460739135,0.4210975334409624,0.2880366782117635
1772537100739797500,9.721797607421875,4.271717534011602,0.15025339757055042,0.042403007976152
1772537100749846800,9.7318466796875,3.4934108558028933,-0.01758928657397628,0.17250227345339952
1772537100759894500,9.74189453125,3.597602467161417,0.09934314841404557,0.11864406121149658
