time,seconds_elapsed,z,y,x
1772537091083312400,0.0653125,-0.603118896484375,-0.2574615478515625,-0.051239013671875
1772537091093360400,0.0753603515625,-0.631256103515625,-0.2606964111328125,-0.0464324951171875
1772537091103409400,0.085409423828125,-0.6555633544921875,-0.27923583984375,-0.06048583984375
1772537091113457400,0.09545751953125,-0.658477783203125,-0.29266357421875,-0.0914154052734375
1772537091123505400,0.10550537109375,-0.651153564453125,-0.265380859375,-0.0814208984375
1772537091133554400,0.115554443359375,-0.658599853515625,-0.23516845703125,-0.0976715087890625
1772537091143602400,0.1256025390625,-0.6867523193359375,-0.239105224609375,-0.1137542724609375
1772537091153650400,0.135650390625,-0.7087554931640625,-0.2586669921875,-0.1013336181640625
1772537091163699500,0.145699462890625,-0.7350616455078125,-0.2870941162109375,-0.0807952880859375
1772537091173747500,0.15574755859375,-0.7680511474609375,-0.3154449462890625,-0.056060791015625
1772537091183796500,0.16579638671875,-0.7927703857421875,-0.3346405029296875,-0.0329132080078125
1772537091193844200,0.17584423828125,-0.86199951171875,-0.354278564453125,-0.0124969482421875
1772537091203892500,0.185892578125,-0.9744110107421875,-0.39801025390625,-0.007232666015625
1772537091213941200,0.195941162109375,-1.0865936279296875,-0.47076416015625,-0.0031280517578125
1772537091223989500,0.205989501953125,-1.1709136962890625,-0.53192138671875,0.0038909912109375
1772537091234037500,0.21603759765625,-1.230438232421875,-0.5898895263671875,0.0039215087890625
1772537091244086500,0.22608642578125,-1.2530975341796875,-0.592529296875,0.049407958984375
1772537091254134500,0.236134521484375,-1.3891143798828125,-0.561065673828125,0.1235198974609375
1772537091264183600,0.24618359375,-1.4721527099609375,-0.6488037109375,0.0911407470703125
1772537091274231600,0.2562314453125,-1.5072021484375,-0.668212890625,0.0059661865234375
1772537091284279300,0.266279296875,-1.599761962890625,-0.6205596923828125,-0.0195159912109375
1772537091294328600,0.27632861328125,-1.6253509521484375,-0.68487548828125,0.025482177734375
1772537091304376300,0.286376220703125,-1.624298095703125,-0.7254486083984375,0.1039581298828125
1772537091314424600,0.296424560546875,-1.70697021484375,-0.6948089599609375,0.2340240478515625
1772537091324473300,0.306473388671875,-1.7812957763671875,-0.6785888671875,0.3022613525390625
1772537091334521600,0.316521484375,-1.8187408447265625,-0.6132354736328125,0.2947998046875
1772537091344569300,0.3265693359375,-1.666107177734375,-0.617919921875,0.288330078125
1772537091354618400,0.336618408203125,-1.67633056640625,-0.6314544677734375,0.2461700439453125
1772537091364666400,0.346666259765625,-1.701873779296875,-0.7127532958984375,0.2009124755859375
1772537091374715400,0.35671533203125,-1.6966552734375,-0.7842559814453125,0.2470703125
1772537091384763400,0.366763427734375,-1.6539306640625,-0.7307891845703125,0.4497833251953125
1772537091394811400,0.376811279296875,-1.490203857421875,-0.69140625,0.527435302734375
1772537091404860400,0.3868603515625,-1.412322998046875,-0.660003662109375,0.498382568359375
1772537091414908400,0.396908447265625,-1.3291778564453125,-0.6456146240234375,0.43389892578125
1772537091424956400,0.406956298828125,-1.200836181640625,-0.639404296875,0.3440704345703125
1772537091435005400,0.41700537109375,-1.1498870849609375,-0.6513519287109375,0.2511444091796875
1772537091445053400,0.427053466796875,-1.12432861328125,-0.6158599853515625,0.220733642578125
1772537091455102500,0.4371025390625,-0.9511566162109375,-0.530853271484375,0.1719207763671875
1772537091465150500,0.447150390625,-0.8854217529296875,-0.368438720703125,0.2027130126953125
1772537091475198500,0.457198486328125,-1.0504608154296875,-0.313446044921875,0.2575836181640625
1772537091485247500,0.46724755859375,-0.979583740234375,-0.3406219482421875,0.1584930419921875
1772537091495295500,0.47729541015625,-0.86968994140625,-0.3009490966796875,0.0489501953125
1772537091505343500,0.487343505859375,-0.7968902587890625,-0.2071380615234375,-0.039306640625
1772537091515392500,0.497392578125,-0.74725341796875,-0.1041412353515625,-0.0604095458984375
1772537091525440500,0.5074404296875,-0.7288055419921875,-0.0567169189453125,-0.0862274169921875
1772537091535488300,0.51748828125,-0.7441558837890625,-0.0074615478515625,-0.210174560546875
1772537091545537500,0.52753759765625,-0.6904296875,-0.0283203125,-0.280914306640625
1772537091555585300,0.537585205078125,-0.6498870849609375,-0.13177490234375,-0.343353271484375
1772537091565634600,0.547634521484375,-0.4661407470703125,-0.16259765625,-0.3194427490234375
1772537091575682300,0.557682373046875,-0.1973419189453125,-0.1144866943359375,-0.1991119384765625
1772537091585730300,0.567730224609375,0.0164031982421875,0.0409393310546875,0.003448486328125
1772537091595779300,0.577779296875,0.059783935546875,0.1529998779296875,0.1917724609375
1772537091605827300,0.587827392578125,-0.1179962158203125,0.2027740478515625,0.3434295654296875
1772537091615876400,0.59787646484375,-0.2880401611328125,0.1268768310546875,0.310211181640625
1772537091625924400,0.60792431640625,-0.4346466064453125,0.0090484619140625,0.1763763427734375
1772537091635972600,0.61797265625,-0.4037933349609375,0.0119171142578125,0.041259765625
1772537091646021400,0.628021484375,-0.208160400390625,-0.00018310546875,-0.08544921875
1772537091656069600,0.638069580078125,-0.160675048828125,-0.027984619140625,-0.1242218017578125
1772537091666117400,0.648117431640625,-0.2236480712890625,-0.0420379638671875,-0.169708251953125
1772537091676166700,0.658166748046875,-0.263458251953125,-0.0438385009765625,-0.1987457275390625
1772537091686214400,0.66821435546875,-0.257049560546875,-0.0655670166015625,-0.1538238525390625
1772537091696262400,0.678262451171875,-0.224609375,-0.1066131591796875,-0.140228271484375
1772537091706311400,0.6883115234375,-0.2683258056640625,-0.111541748046875,-0.1862945556640625
1772537091716359400,0.698359375,-0.379638671875,-0.0655517578125,-0.1519927978515625
1772537091726408400,0.708408447265625,-0.478271484375,-0.0379180908203125,-0.07861328125
1772537091736456400,0.71845654296875,-0.487579345703125,-0.110107421875,-0.0599212646484375
1772537091746504400,0.72850439453125,-0.4175262451171875,-0.209197998046875,-0.013092041015625
1772537091756553500,0.738553466796875,-0.3239288330078125,-0.3535919189453125,0.0049591064453125
1772537091766601200,0.748601318359375,-0.3508758544921875,-0.4837493896484375,0.01702880859375
1772537091776649500,0.7586494140625,-0.6491241455078125,-0.59027099609375,0.111785888671875
1772537091786698200,0.7686982421875,-1.0361480712890625,-0.6021575927734375,0.1762847900390625
1772537091796746500,0.77874658203125,-1.1779937744140625,-0.56005859375,0.1081390380859375
1772537091806795300,0.788795166015625,-1.179351806640625,-0.53118896484375,-0.0482330322265625
1772537091816843500,0.798843505859375,-1.1588134765625,-0.516693115234375,-0.15447998046875
1772537091826891500,0.8088916015625,-1.128021240234375,-0.5255279541015625,-0.1928863525390625
1772537091836940500,0.8189404296875,-1.2338409423828125,-0.534271240234375,-0.19927978515625
1772537091846988500,0.828988525390625,-1.283935546875,-0.5759735107421875,-0.14337158203125
1772537091857036300,0.839036376953125,-1.33624267578125,-0.6709747314453125,-0.0840301513671875
1772537091867085600,0.84908544921875,-1.4167633056640625,-0.7917022705078125,-0.0260467529296875
1772537091877133300,0.85913330078125,-1.4864501953125,-0.906982421875,0.0712127685546875
1772537091887181600,0.869181640625,-1.5283203125,-0.9562835693359375,0.008880615234375
1772537091897230300,0.879230224609375,-1.4465179443359375,-1.019287109375,-0.0804901123046875
1772537091907278600,0.889278564453125,-1.3892822265625,-1.0948028564453125,-0.099609375
1772537091917327400,0.899327392578125,-1.399322509765625,-1.1692047119140625,-0.111907958984375
1772537091927375400,0.909375244140625,-1.4926605224609375,-1.226898193359375,-0.1371307373046875
1772537091937423400,0.91942333984375,-1.5847930908203125,-1.2510528564453125,-0.094451904296875
1772537091947472400,0.929472412109375,-1.6335601806640625,-1.231201171875,-0.022216796875
1772537091957520400,0.939520263671875,-1.6756591796875,-1.2041015625,0.0312042236328125
1772537091967568400,0.949568359375,-1.735809326171875,-1.177032470703125,0.229766845703125
1772537091977617400,0.959617431640625,-1.797119140625,-1.116912841796875,0.216461181640625
1772537091987665400,0.96966552734375,-1.7402496337890625,-1.0582122802734375,0.121246337890625
1772537091997714400,0.97971435546875,-1.6835479736328125,-0.9940185546875,0.0951995849609375
1772537092007762400,0.989762451171875,-1.6552581787109375,-0.96136474609375,0.0766448974609375
1772537092017810400,0.999810546875,-1.536285400390625,-0.93670654296875,0.026763916015625
1772537092027859000,1.00985888671875,-1.3959197998046875,-0.915863037109375,0.00885009765625
1772537092037907200,1.0199072265625,-1.2875518798828125,-0.9090118408203125,0.03460693359375
1772537092047955000,1.029954833984375,-1.14752197265625,-0.89129638671875,0.0255584716796875
1772537092058004200,1.040004150390625,-1.00225830078125,-0.8418426513671875,0.03851318359375
1772537092068052000,1.050052001953125,-0.87548828125,-0.7708587646484375,0.0529632568359375
1772537092078100000,1.060099853515625,-0.77154541015625,-0.6601715087890625,0.0265960693359375
1772537092088149000,1.07014892578125,-0.6775054931640625,-0.51092529296875,0.006591796875
1772537092098197000,1.080197021484375,-0.5303802490234375,-0.3837127685546875,-0.01239013671875
1772537092108246000,1.09024609375,-0.423614501953125,-0.275054931640625,0.002044677734375
1772537092118294000,1.1002939453125,-0.3466033935546875,-0.1994781494140625,0.0203704833984375
1772537092128342300,1.11034228515625,-0.28070068359375,-0.1478118896484375,0.0009765625
1772537092138391000,1.12039111328125,-0.24993896484375,-0.1196136474609375,-0.010009765625
1772537092148439300,1.130439208984375,-0.170318603515625,-0.107086181640625,0.0402069091796875
1772537092158487000,1.140487060546875,-0.16656494140625,-0.0833892822265625,-0.0067138671875
1772537092168536000,1.1505361328125,-0.188629150390625,-0.09161376953125,0.01568603515625
1772537092178584000,1.160583984375,-0.1587066650390625,-0.0841064453125,0.0299835205078125
1772537092188633000,1.170633056640625,-0.1415557861328125,-0.0686798095703125,-0.00244140625
1772537092198681000,1.18068115234375,-0.1256103515625,-0.06024169921875,-0.0099945068359375
1772537092208729000,1.19072900390625,-0.10699462890625,-0.04779052734375,-0.013580322265625
1772537092218778000,1.200778076171875,-0.0851593017578125,-0.041259765625,-0.0146636962890625
1772537092228826000,1.210826171875,-0.088348388671875,-0.051727294921875,-0.00042724609375
1772537092238873900,1.220873779296875,-0.1138153076171875,-0.05657958984375,0.0237579345703125
1772537092248923100,1.230923095703125,-0.1201629638671875,-0.0455474853515625,0.040435791015625
1772537092258971000,1.240970947265625,-0.1492919921875,-0.025726318359375,0.032806396484375
1772537092269020200,1.251020263671875,-0.1741790771484375,-0.0223541259765625,0.0221099853515625
1772537092279068000,1.26106787109375,-0.1781463623046875,-0.0250396728515625,-0.010467529296875
1772537092289116200,1.2711162109375,-0.207763671875,-0.015533447265625,-0.034698486328125
1772537092299165000,1.2811650390625,-0.2324066162109375,-0.0278472900390625,-0.0470733642578125
1772537092309213200,1.291213134765625,-0.2403564453125,-0.0601043701171875,-0.054107666015625
1772537092319261200,1.30126123046875,-0.2724761962890625,-0.0861663818359375,-0.0412750244140625
1772537092329310000,1.31131005859375,-0.311492919921875,-0.12200927734375,-0.0265350341796875
1772537092339358200,1.321358154296875,-0.3401947021484375,-0.2101287841796875,0.0195465087890625
1772537092349406000,1.331406005859375,-0.35345458984375,-0.32037353515625,0.068511962890625
1772537092359455200,1.341455322265625,-0.422698974609375,-0.4159088134765625,0.10028076171875
1772537092369503000,1.3515029296875,-0.5768585205078125,-0.5172882080078125,0.118621826171875
1772537092379552000,1.361552001953125,-0.7751922607421875,-0.5843963623046875,0.1068878173828125
1772537092389600000,1.37160009765625,-0.9484710693359375,-0.5674591064453125,0.0333251953125
1772537092399648000,1.38164794921875,-1.0485076904296875,-0.454132080078125,-0.0984954833984375
1772537092409697000,1.391697021484375,-1.11187744140625,-0.3287506103515625,-0.2179718017578125
1772537092419745000,1.4017451171875,-1.1246490478515625,-0.3159637451171875,-0.23822021484375
1772537092429793000,1.41179296875,-1.0919952392578125,-0.3838348388671875,-0.18023681640625
1772537092439842000,1.421842041015625,-1.16290283203125,-0.42706298828125,-0.1102142333984375
1772537092449890000,1.43189013671875,-1.2791900634765625,-0.480804443359375,-0.0540313720703125
1772537092459939000,1.44193896484375,-1.2935638427734375,-0.589263916015625,0.015472412109375
1772537092469987000,1.451987060546875,-1.3075103759765625,-0.6740570068359375,0.0806732177734375
1772537092480035000,1.46203515625,-1.3539581298828125,-0.759063720703125,0.070648193359375
1772537092490084000,1.472083984375,-1.4140167236328125,-0.8225250244140625,0.0140838623046875
1772537092500132000,1.482132080078125,-1.4694366455078125,-0.8569793701171875,-0.0335540771484375
1772537092510180000,1.49218017578125,-1.4984893798828125,-0.8853302001953125,-0.054656982421875
1772537092520229000,1.50222900390625,-1.522613525390625,-0.898590087890625,-0.0638427734375
1772537092530277000,1.512277099609375,-1.5753631591796875,-0.898956298828125,-0.0661468505859375
1772537092540325000,1.5223251953125,-1.634674072265625,-0.9151611328125,-0.0332183837890625
1772537092550374100,1.5323740234375,-1.657745361328125,-0.94903564453125,0.0000457763671875
1772537092560422000,1.542421875,-1.6913299560546875,-0.9812469482421875,0.045074462890625
1772537092570471200,1.55247119140625,-1.6904754638671875,-1.0146636962890625,0.0900726318359375
1772537092580519000,1.562518798828125,-1.7049560546875,-1.0220489501953125,0.108184814453125
1772537092590567200,1.572567138671875,-1.7132568359375,-1.009063720703125,0.0989532470703125
1772537092600616000,1.582615966796875,-1.6844482421875,-0.9959564208984375,0.0671844482421875
1772537092610664200,1.592664306640625,-1.6581573486328125,-1.00244140625,0.0577545166015625
1772537092620712000,1.6027119140625,-1.6121978759765625,-1.02154541015625,0.0447845458984375
1772537092630761200,1.61276123046875,-1.5585479736328125,-1.0313568115234375,0.019805908203125
1772537092640809000,1.62280908203125,-1.507354736328125,-1.0288848876953125,0.01654052734375
1772537092650858200,1.632858154296875,-1.424957275390625,-1.014801025390625,0.017120361328125
1772537092660906000,1.642906005859375,-1.353668212890625,-0.97833251953125,0.0273284912109375
1772537092670954000,1.6529541015625,-1.279022216796875,-0.9339141845703125,0.0610198974609375
1772537092681003000,1.6630029296875,-1.211883544921875,-0.8904266357421875,0.096923828125
1772537092691051000,1.673051025390625,-1.1414031982421875,-0.8319549560546875,0.1238861083984375
1772537092701099300,1.683099365234375,-1.0709991455078125,-0.747344970703125,0.117889404296875
1772537092711148000,1.69314794921875,-1.00225830078125,-0.650054931640625,0.078582763671875
1772537092721196000,1.703196044921875,-0.9175872802734375,-0.572601318359375,0.031982421875
1772537092731244000,1.713244140625,-0.8317413330078125,-0.49444580078125,-0.03558349609375
1772537092741293000,1.72329296875,-0.741302490234375,-0.4193267822265625,-0.091033935546875
1772537092751341000,1.733341064453125,-0.656036376953125,-0.3565826416015625,-0.12548828125
1772537092761390000,1.74339013671875,-0.576690673828125,-0.290252685546875,-0.1328582763671875
1772537092771438000,1.75343798828125,-0.50848388671875,-0.219512939453125,-0.130950927734375
1772537092781486000,1.763486083984375,-0.4441986083984375,-0.1529998779296875,-0.1346588134765625
1772537092791535000,1.77353515625,-0.389129638671875,-0.0924072265625,-0.1252288818359375
1772537092801583000,1.7835830078125,-0.330718994140625,-0.047454833984375,-0.1148681640625
1772537092811630800,1.793630859375,-0.2728118896484375,-0.008941650390625,-0.1024322509765625
1772537092821680000,1.80368017578125,-0.2355499267578125,0.008758544921875,-0.0727996826171875
1772537092831727900,1.813727783203125,-0.1683502197265625,0.0037994384765625,-0.0467071533203125
1772537092841777200,1.823777099609375,-0.122650146484375,-0.0048675537109375,-0.0156097412109375
1772537092851825000,1.833824951171875,-0.110321044921875,-0.0022430419921875,0.0101776123046875
1772537092861873200,1.843873046875,-0.090240478515625,0.00018310546875,0.0158233642578125
1772537092871922000,1.853921875,-0.0698699951171875,-0.00390625,0.022064208984375
1772537092881970200,1.86397021484375,-0.06402587890625,-0.0056304931640625,0.0301666259765625
1772537092892018200,1.87401806640625,-0.07354736328125,0.0074462890625,0.023284912109375
1772537092902067000,1.88406689453125,-0.0826568603515625,0.0212249755859375,0.0150299072265625
1772537092912115200,1.894115234375,-0.0851593017578125,0.0212860107421875,0.0135040283203125
1772537092922164000,1.9041640625,-0.11407470703125,0.0294342041015625,0.0101776123046875
1772537092932212200,1.914212158203125,-0.135589599609375,0.0183868408203125,-0.0097808837890625
1772537092942260000,1.924260009765625,-0.1182403564453125,0.0404815673828125,0.017181396484375
1772537092952309200,1.934309326171875,-0.126434326171875,0.0393524169921875,-0.0139923095703125
1772537092962357000,1.94435693359375,-0.1629180908203125,-0.0012664794921875,-0.014678955078125
1772537092972405000,1.954405029296875,-0.1783447265625,-0.0413055419921875,0.0164337158203125
1772537092982454000,1.9644541015625,-0.21539306640625,-0.1081390380859375,0.0214691162109375
1772537092992502000,1.974501953125,-0.26312255859375,-0.20361328125,0.051727294921875
1772537093002551000,1.984551025390625,-0.284423828125,-0.3498687744140625,0.094940185546875
1772537093012599000,1.99459912109375,-0.36761474609375,-0.473724365234375,0.1325225830078125
1772537093022647000,2.00464697265625,-0.5364990234375,-0.531829833984375,0.14990234375
1772537093032697000,2.014697021484375,-0.709320068359375,-0.5340118408203125,0.0865020751953125
1772537093042745000,2.0247451171875,-0.9085693359375,-0.490966796875,-0.0148162841796875
1772537093052793000,2.03479296875,-1.0532684326171875,-0.446136474609375,-0.1150970458984375
1772537093062842000,2.044842041015625,-1.123046875,-0.439666748046875,-0.1643218994140625
1772537093072890000,2.05489013671875,-1.1427154541015625,-0.5525360107421875,-0.132080078125
1772537093082937900,2.064937744140625,-1.17694091796875,-0.7060394287109375,-0.05950927734375
1772537093092987100,2.074987060546875,-1.2513427734375,-0.8131256103515625,0.0263824462890625
1772537093103035000,2.085034912109375,-1.34832763671875,-0.906829833984375,0.0678253173828125
1772537093113084200,2.095084228515625,-1.4278717041015625,-0.9428558349609375,0.039825439453125
1772537093123132000,2.1051318359375,-1.4997711181640625,-0.9388275146484375,-0.048583984375
1772537093133180200,2.11518017578125,-1.4803009033203125,-0.978668212890625,-0.1120452880859375
1772537093143229000,2.12522900390625,-1.44781494140625,-1.015594482421875,-0.1597900390625
1772537093153277200,2.135277099609375,-1.492218017578125,-1.029571533203125,-0.1824493408203125
1772537093163325200,2.1453251953125,-1.54986572265625,-1.068084716796875,-0.1551055908203125
1772537093173374000,2.1553740234375,-1.6381988525390625,-1.087249755859375,-0.11553955078125
1772537093183422200,2.165422119140625,-1.742889404296875,-1.0982666015625,-0.0881195068359375
1772537093193470000,2.175469970703125,-1.83441162109375,-1.114898681640625,-0.0722503662109375
1772537093203519200,2.185519287109375,-1.9351043701171875,-1.1010284423828125,-0.0543365478515625
1772537093213567000,2.19556689453125,-1.950286865234375,-1.0423126220703125,-0.076629638671875
1772537093223616000,2.205615966796875,-1.9466400146484375,-0.9472198486328125,-0.11572265625
1772537093233664000,2.2156640625,-1.932525634765625,-0.892608642578125,-0.150665283203125
1772537093243712000,2.2257119140625,-1.895843505859375,-0.895355224609375,-0.1653594970703125
1772537093253761000,2.235760986328125,-1.841064453125,-0.904876708984375,-0.1385498046875
1772537093263809000,2.24580908203125,-1.7461700439453125,-0.92010498046875,-0.111053466796875
1772537093273857000,2.25585693359375,-1.6358489990234375,-0.928192138671875,-0.074859619140625
1772537093283906000,2.265906005859375,-1.504974365234375,-0.9124603271484375,-0.045867919921875
1772537093293954000,2.2759541015625,-1.3643035888671875,-0.865325927734375,-0.0231475830078125
1772537093304003000,2.286003173828125,-1.2288055419921875,-0.7950286865234375,0.000701904296875
1772537093314051000,2.296051025390625,-1.095611572265625,-0.714508056640625,0.0244293212890625
1772537093324099000,2.30609912109375,-0.9787445068359375,-0.615234375,0.0412139892578125
1772537093334148000,2.316148193359375,-0.8604583740234375,-0.5178070068359375,0.0507965087890625
1772537093344196000,2.326196044921875,-0.7511444091796875,-0.43072509765625,0.0387420654296875
1772537093354244000,2.336244140625,-0.644500732421875,-0.3487091064453125,0.0110015869140625
1772537093364293000,2.346293212890625,-0.545745849609375,-0.2872772216796875,-0.05133056640625
1772537093374341000,2.356341064453125,-0.4651947021484375,-0.1985931396484375,-0.052642822265625
1772537093384390100,2.36639013671875,-0.3912811279296875,-0.1323699951171875,-0.0804443359375
1772537093394438100,2.376438232421875,-0.332977294921875,-0.1123199462890625,-0.095916748046875
1772537093404486000,2.38648583984375,-0.2845306396484375,-0.0711822509765625,-0.082672119140625
1772537093414535200,2.39653515625,-0.2395782470703125,-0.0497589111328125,-0.0734405517578125
1772537093424583000,2.4065830078125,-0.187957763671875,-0.0465545654296875,-0.0551300048828125
1772537093434631200,2.416631103515625,-0.169189453125,-0.0443267822265625,-0.0281219482421875
1772537093444680000,2.426679931640625,-0.14227294921875,-0.050384521484375,-0.0067596435546875
1772537093454728200,2.436728271484375,-0.1099700927734375,-0.0540924072265625,0.007171630859375
1772537093464777000,2.44677685546875,-0.107574462890625,-0.04803466796875,0.0181427001953125
1772537093474825200,2.4568251953125,-0.120025634765625,-0.0421600341796875,0.035308837890625
1772537093484873000,2.466873046875,-0.124542236328125,-0.0431671142578125,0.0454559326171875
1772537093494922200,2.476922119140625,-0.1212921142578125,-0.0374755859375,0.0482025146484375
1772537093504970000,2.486969970703125,-0.11834716796875,-0.032806396484375,0.0560455322265625
1772537093515018000,2.49701806640625,-0.1267242431640625,-0.03033447265625,0.0525665283203125
1772537093525067000,2.50706689453125,-0.13311767578125,-0.025665283203125,0.02655029296875
1772537093535115000,2.517114990234375,-0.1280059814453125,-0.0299530029296875,-0.0053863525390625
1772537093545163300,2.527163330078125,-0.147918701171875,-0.027740478515625,-0.0277099609375
1772537093555212000,2.5372119140625,-0.155426025390625,-0.0314788818359375,-0.03509521484375
1772537093565260000,2.547260009765625,-0.16094970703125,-0.040863037109375,-0.0299530029296875
1772537093575309000,2.55730908203125,-0.1837310791015625,-0.0583038330078125,-0.013519287109375
1772537093585357000,2.567357177734375,-0.2275238037109375,-0.07000732421875,-0.0111541748046875
1772537093595405000,2.577405029296875,-0.2678985595703125,-0.09814453125,0.00115966796875
1772537093605454000,2.5874541015625,-0.337677001953125,-0.151214599609375,0.0183258056640625
1772537093615502000,2.597502197265625,-0.4188079833984375,-0.230743408203125,0.0486907958984375
1772537093625550000,2.607550048828125,-0.527557373046875,-0.3153839111328125,0.0946807861328125
1772537093635599000,2.61759912109375,-0.67498779296875,-0.3949127197265625,0.131500244140625
1772537093645647000,2.627647216796875,-0.865203857421875,-0.4489593505859375,0.13629150390625
1772537093655694800,2.63769482421875,-1.0355224609375,-0.458404541015625,0.071197509765625
1772537093665744100,2.647744140625,-1.171234130859375,-0.4319915771484375,-0.037841796875
1772537093675792000,2.6577919921875,-1.2678985595703125,-0.4079437255859375,-0.129974365234375
1772537093685841200,2.667841064453125,-1.3344573974609375,-0.416656494140625,-0.1752166748046875
1772537093695889000,2.677888916015625,-1.3921051025390625,-0.4943389892578125,-0.1665191650390625
1772537093705937200,2.687937255859375,-1.480804443359375,-0.58111572265625,-0.1203155517578125
1772537093715986000,2.69798583984375,-1.56817626953125,-0.6593170166015625,-0.071441650390625
1772537093726034200,2.7080341796875,-1.6031951904296875,-0.7491455078125,-0.00360107421875
1772537093736082200,2.718082275390625,-1.626220703125,-0.810272216796875,0.0312042236328125
1772537093746131000,2.728130859375,-1.6761474609375,-0.8531951904296875,0.048309326171875
1772537093756179200,2.73817919921875,-1.7240753173828125,-0.90972900390625,0.0578765869140625
1772537093766228000,2.74822802734375,-1.7749481201171875,-0.956268310546875,0.0702972412109375
1772537093776276200,2.758276123046875,-1.818572998046875,-0.9889678955078125,0.0584716796875
1772537093786324000,2.768323974609375,-1.8450775146484375,-1.02252197265625,0.0469512939453125
1772537093796373200,2.778373291015625,-1.8666229248046875,-1.04345703125,0.05145263671875
1772537093806421000,2.7884208984375,-1.9167938232421875,-1.0480804443359375,0.061920166015625
1772537093816469000,2.798468994140625,-1.9430694580078125,-1.056610107421875,0.07208251953125
1772537093826518000,2.80851806640625,-1.9623870849609375,-1.045928955078125,0.0820465087890625
1772537093836566000,2.81856591796875,-1.9579010009765625,-1.013824462890625,0.0760650634765625
1772537093846615000,2.828614990234375,-1.947509765625,-0.9653778076171875,0.0560150146484375
1772537093856663000,2.8386630859375,-1.924774169921875,-0.91009521484375,0.0275726318359375
1772537093866711000,2.8487109375,-1.8466339111328125,-0.844757080078125,-0.0140838623046875
1772537093876760000,2.858760009765625,-1.7419281005859375,-0.794952392578125,-0.0449066162109375
1772537093886808000,2.86880810546875,-1.6266021728515625,-0.7393951416015625,-0.0631561279296875
1772537093896856000,2.87885595703125,-1.4376373291015625,-0.6557159423828125,-0.0913543701171875
1772537093906904800,2.88890478515625,-1.251190185546875,-0.5849151611328125,-0.0936279296875
1772537093916953000,2.898953125,-1.084014892578125,-0.529815673828125,-0.054931640625
1772537093927001000,2.9090009765625,-0.9402923583984375,-0.437835693359375,-0.0430755615234375
1772537093937050000,2.919050048828125,-0.82110595703125,-0.354095458984375,-0.0263671875
1772537093947098000,2.92909814453125,-0.733795166015625,-0.299285888671875,0.0108489990234375
1772537093957147100,2.939147216796875,-0.63995361328125,-0.33795166015625,0.1047210693359375
1772537093967195100,2.949195068359375,-0.5780792236328125,-0.099945068359375,0.0337066650390625
1772537093977243000,2.959242919921875,-0.4438323974609375,0.0623626708984375,-0.0371856689453125
1772537093987292200,2.969292236328125,-0.307861328125,0.023834228515625,-0.043914794921875
1772537093997340000,2.97933984375,-0.2678680419921875,-0.003448486328125,-0.029998779296875
1772537094007388200,2.98938818359375,-0.2428741455078125,0.009765625,-0.02587890625
1772537094017437000,2.99943701171875,-0.214874267578125,0.02447509765625,-0.017059326171875
1772537094027483600,3.009483642578125,-0.2108917236328125,0.022064208984375,-0.0015716552734375
1772537094037533000,3.019532958984375,-0.219970703125,0.0158538818359375,0.0180511474609375
1772537094047580700,3.02958056640625,-0.1988525390625,0.0021514892578125,0.0295257568359375
1772537094057628700,3.039628662109375,-0.1662750244140625,-0.025543212890625,0.0366668701171875
1772537094067677700,3.049677734375,-0.149627685546875,-0.05487060546875,0.042572021484375
1772537094077725700,3.0597255859375,-0.1663055419921875,-0.0647125244140625,0.04974365234375
1772537094087773700,3.069773681640625,-0.150787353515625,-0.068634033203125,0.0416717529296875
1772537094097822700,3.07982275390625,-0.1524200439453125,-0.0640106201171875,0.0297088623046875
1772537094107870700,3.08987060546875,-0.1683807373046875,-0.0565338134765625,0.0148162841796875
1772537094117919700,3.099919677734375,-0.1644287109375,-0.0494232177734375,0.01324462890625
1772537094127967700,3.1099677734375,-0.17669677734375,-0.028594970703125,-0.0028228759765625
1772537094138015700,3.120015625,-0.187652587890625,-0.019927978515625,-0.0127716064453125
1772537094148064500,3.130064453125,-0.1945953369140625,-0.0402069091796875,-0.0177764892578125
1772537094158112800,3.14011279296875,-0.200653076171875,-0.0316314697265625,-0.040191650390625
1772537094168160800,3.150160888671875,-0.201812744140625,-0.03717041015625,-0.0516510009765625
1772537094178209800,3.160209716796875,-0.21038818359375,-0.0649261474609375,-0.04443359375
1772537094188257800,3.1702578125,-0.2409820556640625,-0.0944061279296875,-0.0371856689453125
1772537094198306800,3.180306884765625,-0.28759765625,-0.1264495849609375,-0.02545166015625
1772537094208354800,3.190354736328125,-0.3116912841796875,-0.1977386474609375,-0.0058746337890625
1772537094218402600,3.200402587890625,-0.3968048095703125,-0.300689697265625,0.0366973876953125
1772537094228451800,3.210451904296875,-0.5361785888671875,-0.4153900146484375,0.0750732421875
1772537094238499600,3.22049951171875,-0.7353973388671875,-0.455718994140625,0.058258056640625
1772537094248547800,3.2305478515625,-0.9361114501953125,-0.4425506591796875,-0.0046234130859375
1772537094258596600,3.2405966796875,-1.1073150634765625,-0.4435882568359375,-0.0738677978515625
1772537094268644900,3.250644775390625,-1.2202301025390625,-0.4983367919921875,-0.1067962646484375
1772537094278692600,3.260692626953125,-1.2913818359375,-0.6170806884765625,-0.076141357421875
1772537094288742000,3.270741943359375,-1.417755126953125,-0.7051239013671875,-0.0630950927734375
1772537094298789600,3.28078955078125,-1.553466796875,-0.624847412109375,-0.14312744140625
1772537094308838700,3.290838623046875,-1.61407470703125,-0.56707763671875,-0.2338104248046875
1772537094318886700,3.30088671875,-1.63665771484375,-0.618804931640625,-0.235443115234375
1772537094328934700,3.3109345703125,-1.6278076171875,-0.666961669921875,-0.204559326171875
1772537094338983700,3.320983642578125,-1.6019744873046875,-0.6890716552734375,-0.191680908203125
1772537094349031700,3.33103173828125,-1.6007537841796875,-0.794677734375,-0.141693115234375
1772537094359080000,3.341079833984375,-1.61431884765625,-0.9084320068359375,-0.0856475830078125
1772537094369128700,3.351128662109375,-1.666229248046875,-0.911834716796875,-0.0255126953125
1772537094379176700,3.3611767578125,-1.7333526611328125,-0.9593048095703125,0.0169830322265625
1772537094389225700,3.371225830078125,-1.8225250244140625,-0.997589111328125,0.055694580078125
1772537094399273700,3.381273681640625,-1.883941650390625,-0.9927978515625,0.0472564697265625
1772537094409321700,3.39132177734375,-1.9377288818359375,-0.9522552490234375,-0.00262451171875
1772537094419370800,3.401370849609375,-1.9813995361328125,-0.9353485107421875,-0.06494140625
1772537094429418800,3.411418701171875,-1.9757843017578125,-0.840850830078125,-0.1405029296875
1772537094439466800,3.421466796875,-1.9265289306640625,-0.81292724609375,-0.1892852783203125
1772537094449515800,3.431515869140625,-1.8720245361328125,-0.82720947265625,-0.1990203857421875
1772537094459563800,3.441563720703125,-1.783294677734375,-0.8263702392578125,-0.1833343505859375
1772537094469611500,3.451611572265625,-1.6653900146484375,-0.8297119140625,-0.1552581787109375
1772537094479660800,3.461660888671875,-1.5275726318359375,-0.819610595703125,-0.1248626708984375
1772537094489708500,3.47170849609375,-1.37335205078125,-0.794921875,-0.08917236328125
1772537094499757800,3.4817578125,-1.2098388671875,-0.7460479736328125,-0.050811767578125
1772537094509805600,3.4918056640625,-1.0637054443359375,-0.669647216796875,-0.0238494873046875
1772537094519853800,3.501853759765625,-0.9376373291015625,-0.5870361328125,-0.003173828125
1772537094529902600,3.511902587890625,-0.8180389404296875,-0.504852294921875,0.0129547119140625
1772537094539950600,3.52195068359375,-0.7078094482421875,-0.4213104248046875,0.010772705078125
1772537094549998800,3.531998779296875,-0.625762939453125,-0.337188720703125,0.0086669921875
1772537094560047600,3.542047607421875,-0.5371856689453125,-0.2677001953125,0.00067138671875
1772537094570095900,3.552095947265625,-0.452850341796875,-0.2061004638671875,-0.0084075927734375
1772537094580144600,3.56214453125,-0.3795166015625,-0.16290283203125,-0.0008392333984375
1772537094590193000,3.57219287109375,-0.3088226318359375,-0.135406494140625,0.0161590576171875
1772537094600240600,3.58224072265625,-0.2400054931640625,-0.1178131103515625,0.0305023193359375
1772537094610290000,3.5922900390625,-0.18841552734375,-0.1019439697265625,0.0486907958984375
1772537094620337700,3.602337646484375,-0.14617919921875,-0.0865325927734375,0.0635223388671875
1772537094630385700,3.6123857421875,-0.1222076416015625,-0.0676422119140625,0.070587158203125
1772537094640434700,3.6224345703125,-0.1173553466796875,-0.0463104248046875,0.0618896484375
1772537094650482700,3.632482666015625,-0.1349334716796875,-0.03216552734375,0.051239013671875
1772537094660531700,3.64253173828125,-0.134765625,-0.02276611328125,0.034881591796875
1772537094670579700,3.652579833984375,-0.130035400390625,-0.0225067138671875,0.02593994140625
1772537094680627700,3.662627685546875,-0.13812255859375,-0.032318115234375,0.0267791748046875
1772537094690676700,3.6726767578125,-0.1421051025390625,-0.039825439453125,0.030303955078125
1772537094700724500,3.682724365234375,-0.1457672119140625,-0.0438079833984375,0.0376739501953125
1772537094710772700,3.692772705078125,-0.16656494140625,-0.0460662841796875,0.0266876220703125
1772537094720821500,3.702821533203125,-0.1890106201171875,-0.0383758544921875,0.019378662109375
1772537094730869800,3.712869873046875,-0.201995849609375,-0.0336761474609375,0.0227813720703125
1772537094740917800,3.722917724609375,-0.2071075439453125,-0.038177490234375,0.0187225341796875
1772537094750966800,3.732966796875,-0.237457275390625,-0.0274658203125,0.002838134765625
1772537094761014800,3.743014892578125,-0.2620391845703125,-0.013336181640625,-0.0087890625
1772537094771063800,3.753063720703125,-0.279449462890625,-0.02642822265625,-0.0210113525390625
1772537094781111800,3.76311181640625,-0.3054962158203125,-0.0531463623046875,-0.0173797607421875
1772537094791159600,3.77315966796875,-0.3520355224609375,-0.1060791015625,0.00384521484375
1772537094801208800,3.783208740234375,-0.4204864501953125,-0.1909637451171875,0.028167724609375
1772537094811256600,3.793256591796875,-0.5121307373046875,-0.2965087890625,0.043060302734375
1772537094821304800,3.803304931640625,-0.653411865234375,-0.37261962890625,0.0577850341796875
1772537094831353600,3.813353515625,-0.829345703125,-0.3918609619140625,0.0206298828125
1772537094841401900,3.82340185546875,-0.9922332763671875,-0.3704681396484375,-0.0790863037109375
1772537094851450600,3.83345068359375,-1.0865936279296875,-0.3352813720703125,-0.1744384765625
1772537094861499000,3.843498779296875,-1.1527557373046875,-0.3424072265625,-0.2419891357421875
1772537094871546600,3.853546630859375,-1.2046051025390625,-0.3791351318359375,-0.278076171875
1772537094881595600,3.863595703125,-1.263916015625,-0.4172515869140625,-0.276641845703125
1772537094891643600,3.8736435546875,-1.337982177734375,-0.4814910888671875,-0.2497711181640625
1772537094901691600,3.883691650390625,-1.420074462890625,-0.5456085205078125,-0.22021484375
1772537094911740700,3.89374072265625,-1.465545654296875,-0.6055450439453125,-0.1765899658203125
1772537094921788700,3.90378857421875,-1.484588623046875,-0.656829833984375,-0.151824951171875
1772537094931837700,3.913837646484375,-1.50531005859375,-0.6935882568359375,-0.1496124267578125
1772537094941885700,3.9238857421875,-1.5385894775390625,-0.738555908203125,-0.15972900390625
1772537094951933700,3.93393359375,-1.596588134765625,-0.773193359375,-0.1714019775390625
1772537094961982700,3.943982666015625,-1.646484375,-0.7778167724609375,-0.193267822265625
1772537094972030700,3.95403076171875,-1.6636199951171875,-0.776641845703125,-0.2091217041015625
1772537094982078700,3.96407861328125,-1.6907501220703125,-0.810150146484375,-0.1911468505859375
1772537094992127700,3.974127685546875,-1.7127532958984375,-0.8574676513671875,-0.1450347900390625
1772537095002175700,3.98417578125,-1.745574951171875,-0.897705078125,-0.09881591796875
1772537095012223700,3.9942236328125,-1.776092529296875,-0.9195709228515625,-0.0659637451171875
1772537095022272800,4.004272705078125,-1.8056640625,-0.9115447998046875,-0.049407958984375
1772537095032321000,4.014321044921875,-1.8203125,-0.8936920166015625,-0.0517425537109375
1772537095042369800,4.024369873046875,-1.811553955078125,-0.8790130615234375,-0.0667877197265625
1772537095052418000,4.03441796875,-1.8042755126953125,-0.856689453125,-0.087554931640625
1772537095062465800,4.0444658203125,-1.78399658203125,-0.8304443359375,-0.1046905517578125
1772537095072515000,4.05451513671875,-1.7333221435546875,-0.8046722412109375,-0.1170196533203125
1772537095082562800,4.064562744140625,-1.6730804443359375,-0.766082763671875,-0.1246185302734375
1772537095092610800,4.07461083984375,-1.592376708984375,-0.722076416015625,-0.120086669921875
1772537095102659800,4.084659912109375,-1.499359130859375,-0.6763458251953125,-0.0998077392578125
1772537095112707800,4.094707763671875,-1.3968963623046875,-0.634124755859375,-0.0668792724609375
1772537095122756900,4.1047568359375,-1.2893829345703125,-0.592864990234375,-0.0306854248046875
1772537095132804900,4.114804931640625,-1.1751861572265625,-0.546173095703125,-0.016357421875
1772537095142853000,4.12485302734375,-1.0513458251953125,-0.482208251953125,-0.0115203857421875
1772537095152902000,4.13490185546875,-0.9263916015625,-0.4136810302734375,-0.0106658935546875
1772537095162950100,4.1449501953125,-0.803253173828125,-0.3498382568359375,-0.0146331787109375
1772537095172998000,4.154997802734375,-0.69232177734375,-0.2927703857421875,-0.0321044921875
1772537095183047000,4.165046875,-0.5919647216796875,-0.237030029296875,-0.0444793701171875
1772537095193095000,4.175094970703125,-0.5061798095703125,-0.182647705078125,-0.049285888671875
1772537095203143000,4.185142822265625,-0.44036865234375,-0.1344757080078125,-0.0513458251953125
1772537095213192000,4.19519189453125,-0.36456298828125,-0.0897369384765625,-0.0583343505859375
1772537095223240000,4.205239990234375,-0.3132171630859375,-0.0552978515625,-0.0631561279296875
1772537095233289000,4.2152890625,-0.270843505859375,-0.039703369140625,-0.0598907470703125
1772537095243337000,4.2253369140625,-0.2281341552734375,-0.0225982666015625,-0.0537109375
1772537095253384700,4.235384765625,-0.1956787109375,-0.00762939453125,-0.0457305908203125
1772537095263434000,4.24543408203125,-0.1557464599609375,-0.008270263671875,-0.0341644287109375
1772537095273481700,4.255481689453125,-0.126251220703125,-0.017578125,-0.011383056640625
1772537095283530000,4.265530029296875,-0.114990234375,-0.027496337890625,0.003021240234375
1772537095293578800,4.275578857421875,-0.1013946533203125,-0.029571533203125,0.0074615478515625
1772537095303627000,4.285626953125,-0.093048095703125,-0.02716064453125,0.0112762451171875
1772537095313675800,4.29567578125,-0.0973663330078125,-0.0323486328125,0.0043487548828125
1772537095323724000,4.30572412109375,-0.1122283935546875,-0.0372314453125,-0.007293701171875
1772537095333772000,4.31577197265625,-0.116058349609375,-0.0399169921875,-0.0037384033203125
1772537095343820800,4.32582080078125,-0.1259307861328125,-0.0503997802734375,0.003448486328125
1772537095353869000,4.335869140625,-0.170989990234375,-0.048095703125,-0.0171356201171875
1772537095363916800,4.345916748046875,-0.2012939453125,-0.0405426025390625,-0.022735595703125
1772537095373966000,4.355966064453125,-0.2280426025390625,-0.047393798828125,-0.0204620361328125
1772537095384013800,4.366013916015625,-0.2589874267578125,-0.06146240234375,-0.030670166015625
1772537095394063000,4.37606298828125,-0.3068389892578125,-0.0714569091796875,-0.030029296875
1772537095404110800,4.38611083984375,-0.3594207763671875,-0.0993804931640625,-0.022705078125
1772537095414158800,4.396158935546875,-0.4157257080078125,-0.15081787109375,-0.0047454833984375
1772537095424208000,4.406207763671875,-0.489959716796875,-0.2195892333984375,0.02801513671875
1772537095434256000,4.416255859375,-0.5636138916015625,-0.29888916015625,0.0472259521484375
1772537095444304000,4.426303955078125,-0.647216796875,-0.3732757568359375,0.04144287109375
1772537095454353000,4.436352783203125,-0.75946044921875,-0.3980865478515625,-0.000030517578125
1772537095464401000,4.44640087890625,-0.872467041015625,-0.35723876953125,-0.0639801025390625
1772537095474449000,4.456448974609375,-0.954071044921875,-0.3199920654296875,-0.15032958984375
1772537095484498000,4.466497802734375,-1.0207366943359375,-0.3284454345703125,-0.1963653564453125
1772537095494546000,4.4765458984375,-1.0739288330078125,-0.4108734130859375,-0.1860504150390625
1772537095504595000,4.486594970703125,-1.1467437744140625,-0.523162841796875,-0.132537841796875
1772537095514643000,4.496642822265625,-1.24676513671875,-0.6121368408203125,-0.0809783935546875
1772537095524691000,4.50669091796875,-1.3368682861328125,-0.670562744140625,-0.063690185546875
1772537095534740000,4.516739990234375,-1.424835205078125,-0.7075958251953125,-0.06988525390625
1772537095544788000,4.5267880859375,-1.4999542236328125,-0.7450103759765625,-0.0714874267578125
1772537095554836000,4.5368359375,-1.5563201904296875,-0.7770233154296875,-0.085113525390625
1772537095564885000,4.546885009765625,-1.6306915283203125,-0.78399658203125,-0.100860595703125
1772537095574932700,4.5569326171875,-1.6986083984375,-0.7902374267578125,-0.119781494140625
1772537095584982000,4.56698193359375,-1.761444091796875,-0.796905517578125,-0.1407470703125
1772537095595029800,4.57702978515625,-1.8134002685546875,-0.8216400146484375,-0.1386871337890625
1772537095605078000,4.587078125,-1.8565521240234375,-0.8587188720703125,-0.1063232421875
1772537095615126800,4.597126708984375,-1.920684814453125,-0.897918701171875,-0.065826416015625
1772537095625175000,4.607175048828125,-1.962188720703125,-0.942047119140625,-0.0298309326171875
1772537095635222800,4.617222900390625,-2.001434326171875,-0.9565277099609375,-0.0156707763671875
1772537095645272000,4.62727197265625,-2.0139007568359375,-0.936798095703125,-0.0391693115234375
1772537095655319800,4.63731982421875,-2.000335693359375,-0.890838623046875,-0.0945281982421875
1772537095665369000,4.647369140625,-1.9660186767578125,-0.838653564453125,-0.1620025634765625
1772537095675416800,4.657416748046875,-1.909759521484375,-0.782745361328125,-0.2156219482421875
1772537095685464800,4.66746484375,-1.8302001953125,-0.7205657958984375,-0.2779083251953125
1772537095695513900,4.677513916015625,-1.7297821044921875,-0.658447265625,-0.3047332763671875
1772537095705561900,4.687561767578125,-1.60150146484375,-0.6186370849609375,-0.3083343505859375
1772537095715610000,4.697610107421875,-1.4446868896484375,-0.5914306640625,-0.2935638427734375
1772537095725659000,4.707658935546875,-1.2791595458984375,-0.5588836669921875,-0.26153564453125
1772537095735707100,4.71770703125,-1.1211700439453125,-0.5172882080078125,-0.225311279296875
1772537095745755000,4.7277548828125,-0.9901275634765625,-0.460845947265625,-0.1743927001953125
1772537095755804000,4.737803955078125,-0.8643341064453125,-0.39471435546875,-0.1413116455078125
1772537095765852000,4.747851806640625,-0.7513427734375,-0.3248443603515625,-0.1086883544921875
1772537095775901000,4.75790087890625,-0.648895263671875,-0.2662353515625,-0.0875244140625
1772537095785949000,4.767948974609375,-0.5471038818359375,-0.21136474609375,-0.0826568603515625
1772537095795997000,4.777996826171875,-0.4573211669921875,-0.15899658203125,-0.0804595947265625
1772537095806046000,4.7880458984375,-0.3592529296875,-0.118377685546875,-0.065643310546875
1772537095816094000,4.798093994140625,-0.2791290283203125,-0.09393310546875,-0.0353240966796875
1772537095826142000,4.808141845703125,-0.2164459228515625,-0.0858612060546875,-0.000701904296875
1772537095836191000,4.81819091796875,-0.151641845703125,-0.0901641845703125,0.033416748046875
1772537095846239000,4.828239013671875,-0.09368896484375,-0.1039581298828125,0.069122314453125
1772537095856288000,4.8382880859375,-0.06439208984375,-0.11236572265625,0.1175994873046875
1772537095866335700,4.848335693359375,-0.0374755859375,-0.121826171875,0.1496124267578125
1772537095876384000,4.858384033203125,-0.0145111083984375,-0.1199493408203125,0.1580810546875
1772537095886432800,4.868432861328125,-0.0052337646484375,-0.1012115478515625,0.1524200439453125
1772537095896481000,4.87848095703125,0.0059967041015625,-0.0763397216796875,0.1274566650390625
1772537095906529000,4.888529052734375,0.00201416015625,-0.05621337890625,0.1110382080078125
1772537095916577800,4.898577880859375,0.0048828125,-0.0524444580078125,0.09490966796875
1772537095926626000,4.9086259765625,-0.0001220703125,-0.0489654541015625,0.075164794921875
1772537095936673800,4.918673828125,-0.0238037109375,-0.0462799072265625,0.0601959228515625
1772537095946723000,4.92872314453125,-0.0456390380859375,-0.056671142578125,0.0559234619140625
1772537095956770800,4.938770751953125,-0.070709228515625,-0.06842041015625,0.0475616455078125
1772537095966820000,4.948820068359375,-0.116119384765625,-0.0775299072265625,0.04193115234375
1772537095976867800,4.958867919921875,-0.1674041748046875,-0.085906982421875,0.045684814453125
1772537095986915800,4.968915771484375,-0.2554168701171875,-0.0837860107421875,0.036865234375
1772537095996964900,4.97896484375,-0.3330535888671875,-0.079986572265625,0.0381927490234375
1772537096007012900,4.989012939453125,-0.3743438720703125,-0.127960205078125,0.0565643310546875
1772537096017061000,4.99906103515625,-0.4272308349609375,-0.253082275390625,0.0830841064453125
1772537096027110100,5.009110107421875,-0.5069732666015625,-0.413421630859375,0.1427001953125
1772537096037158000,5.019157958984375,-0.61199951171875,-0.56182861328125,0.211212158203125
1772537096047207200,5.029207275390625,-0.756500244140625,-0.6569671630859375,0.254150390625
1772537096057255000,5.0392548828125,-0.93414306640625,-0.7098388671875,0.21405029296875
1772537096067303000,5.049302978515625,-1.1181640625,-0.684051513671875,0.11151123046875
1772537096077352000,5.05935205078125,-1.2606048583984375,-0.57196044921875,-0.03472900390625
1772537096087400000,5.06939990234375,-1.3360137939453125,-0.486328125,-0.165313720703125
1772537096097448200,5.0794482421875,-1.3892059326171875,-0.5,-0.22796630859375
1772537096107497000,5.0894970703125,-1.457794189453125,-0.5311431884765625,-0.27752685546875
1772537096117545200,5.099545166015625,-1.5376129150390625,-0.5287628173828125,-0.3247222900390625
1772537096127594000,5.109593994140625,-1.6100616455078125,-0.568206787109375,-0.3262481689453125
1772537096137642200,5.119642333984375,-1.6477203369140625,-0.6447296142578125,-0.2768402099609375
1772537096147690000,5.12968994140625,-1.665313720703125,-0.6851654052734375,-0.233184814453125
1772537096157739300,5.1397392578125,-1.6480865478515625,-0.6908111572265625,-0.2066192626953125
1772537096167787000,5.149787109375,-1.601715087890625,-0.703643798828125,-0.185333251953125
1772537096177835000,5.1598349609375,-1.5499725341796875,-0.7465972900390625,-0.1567840576171875
1772537096187884000,5.169884033203125,-1.508331298828125,-0.8027801513671875,-0.1158447265625
1772537096197932000,5.17993212890625,-1.507354736328125,-0.845550537109375,-0.082275390625
1772537096207980000,5.18997998046875,-1.5089111328125,-0.8710479736328125,-0.057891845703125
1772537096218029000,5.200029052734375,-1.511505126953125,-0.8988189697265625,-0.03515625
1772537096228077000,5.2100771484375,-1.5283355712890625,-0.9192962646484375,-0.017486572265625
1772537096238126000,5.2201259765625,-1.5602264404296875,-0.917572021484375,-0.0131683349609375
1772537096248174000,5.230174072265625,-1.6050872802734375,-0.9060516357421875,-0.0145111083984375
1772537096258222000,5.24022216796875,-1.62921142578125,-0.8852081298828125,-0.03179931640625
1772537096268270800,5.250270751953125,-1.646484375,-0.8482818603515625,-0.0689849853515625
1772537096278319000,5.260319091796875,-1.641387939453125,-0.7863922119140625,-0.116119384765625
1772537096288367000,5.2703671875,-1.61358642578125,-0.72442626953125,-0.1601104736328125
1772537096298416000,5.280416015625,-1.561920166015625,-0.6928253173828125,-0.1754608154296875
1772537096308464000,5.290464111328125,-1.4898529052734375,-0.669677734375,-0.1685638427734375
1772537096318513200,5.30051318359375,-1.4012451171875,-0.6383514404296875,-0.1498565673828125
1772537096328561200,5.31056103515625,-1.28094482421875,-0.5942535400390625,-0.140380859375
1772537096338609000,5.32060888671875,-1.15869140625,-0.538543701171875,-0.1239013671875
1772537096348658200,5.330658203125,-1.0421142578125,-0.484222412109375,-0.103515625
1772537096358706000,5.340705810546875,-0.9362030029296875,-0.41229248046875,-0.08685302734375
1772537096368754200,5.350754150390625,-0.8318634033203125,-0.3274688720703125,-0.0810699462890625
1772537096378803000,5.360802978515625,-0.733245849609375,-0.2504425048828125,-0.09234619140625
1772537096388851200,5.370851318359375,-0.6464080810546875,-0.19793701171875,-0.0837249755859375
1772537096398899200,5.380899169921875,-0.56866455078125,-0.1634063720703125,-0.0664825439453125
1772537096408948000,5.390947998046875,-0.497314453125,-0.12957763671875,-0.049560546875
1772537096418996000,5.400995849609375,-0.44073486328125,-0.0997772216796875,-0.031097412109375
1772537096429044000,5.4110439453125,-0.3871917724609375,-0.0771331787109375,-0.0226287841796875
1772537096439093000,5.421093017578125,-0.341522216796875,-0.0538177490234375,-0.0249481201171875
1772537096449141000,5.43114111328125,-0.3043365478515625,-0.0283966064453125,-0.031890869140625
1772537096459190000,5.44118994140625,-0.2611236572265625,-0.012847900390625,-0.0395965576171875
1772537096469238000,5.451238037109375,-0.2278594970703125,-0.0022735595703125,-0.038116455078125
1772537096479286000,5.4612861328125,-0.1912841796875,-0.0006866455078125,-0.0297393798828125
1772537096489335000,5.4713349609375,-0.1606292724609375,-0.0070648193359375,-0.0073394775390625
1772537096499383000,5.481383056640625,-0.1414794921875,-0.0205841064453125,0.007049560546875
1772537096509431000,5.49143115234375,-0.124542236328125,-0.0399017333984375,0.020538330078125
1772537096519480000,5.50147998046875,-0.1087493896484375,-0.0583648681640625,0.033538818359375
1772537096529528000,5.511528076171875,-0.1101531982421875,-0.06292724609375,0.0328826904296875
1772537096539577000,5.5215771484375,-0.117401123046875,-0.062896728515625,0.028289794921875
1772537096549625000,5.531625,-0.1185760498046875,-0.0584716796875,0.0127716064453125
1772537096559673000,5.541673095703125,-0.1396484375,-0.04998779296875,-0.005615234375
1772537096569721900,5.551721923828125,-0.174713134765625,-0.0455474853515625,-0.0264434814453125
1772537096579770000,5.56177001953125,-0.2006988525390625,-0.059112548828125,-0.0463409423828125
1772537096589818000,5.571818115234375,-0.226593017578125,-0.08935546875,-0.05462646484375
1772537096599867100,5.5818671875,-0.252288818359375,-0.151580810546875,-0.0446014404296875
1772537096609915100,5.5919150390625,-0.2888946533203125,-0.2433319091796875,-0.0216064453125
1772537096619964200,5.601964111328125,-0.351287841796875,-0.3562469482421875,0.029998779296875
1772537096630012200,5.61201220703125,-0.42608642578125,-0.4694671630859375,0.074127197265625
1772537096640060000,5.622059814453125,-0.5536041259765625,-0.511138916015625,0.080108642578125
1772537096650109000,5.63210888671875,-0.6725921630859375,-0.4893646240234375,0.0251617431640625
1772537096660157000,5.642156982421875,-0.773834228515625,-0.460357666015625,-0.0508880615234375
1772537096670205200,5.652205078125,-0.8990478515625,-0.4767913818359375,-0.11383056640625
1772537096680254000,5.66225390625,-1.027252197265625,-0.50732421875,-0.1410980224609375
1772537096690302200,5.67230224609375,-1.1305694580078125,-0.5385894775390625,-0.1605377197265625
1772537096700350000,5.682349853515625,-1.24908447265625,-0.56085205078125,-0.189178466796875
1772537096710399200,5.692399169921875,-1.383087158203125,-0.5748443603515625,-0.234710693359375
1772537096720447000,5.702447021484375,-1.4592742919921875,-0.5887908935546875,-0.2757720947265625
1772537096730496300,5.712496337890625,-1.4995269775390625,-0.6335906982421875,-0.263275146484375
1772537096740544000,5.7225439453125,-1.5546112060546875,-0.69775390625,-0.2063446044921875
1772537096750592000,5.732592041015625,-1.6225433349609375,-0.7213897705078125,-0.163604736328125
1772537096760641000,5.74264111328125,-1.6689453125,-0.7418212890625,-0.153656005859375
1772537096770689000,5.75268896484375,-1.6962127685546875,-0.7774505615234375,-0.1531829833984375
1772537096780737300,5.7627373046875,-1.71978759765625,-0.7975311279296875,-0.1431732177734375
1772537096790786000,5.7727861328125,-1.7477264404296875,-0.812591552734375,-0.13671875
1772537096800834000,5.782833984375,-1.7689971923828125,-0.8271026611328125,-0.1197662353515625
1772537096810882000,5.792882080078125,-1.7834014892578125,-0.83154296875,-0.1002655029296875
1772537096820931000,5.80293115234375,-1.81304931640625,-0.8333892822265625,-0.0760345458984375
1772537096830979000,5.81297900390625,-1.8306732177734375,-0.8418731689453125,-0.0583648681640625
1772537096841028000,5.823028076171875,-1.8284912109375,-0.840911865234375,-0.058563232421875
1772537096851076000,5.833076171875,-1.836273193359375,-0.8329925537109375,-0.0623321533203125
1772537096861124000,5.8431240234375,-1.829986572265625,-0.8218994140625,-0.0666046142578125
1772537096871173000,5.853173095703125,-1.79827880859375,-0.79107666015625,-0.0792388916015625
1772537096881221000,5.86322119140625,-1.752960205078125,-0.743804931640625,-0.0976715087890625
1772537096891268900,5.873268798828125,-1.69232177734375,-0.6941986083984375,-0.1098480224609375
1772537096901318100,5.883318115234375,-1.6154632568359375,-0.6512908935546875,-0.1099700927734375
1772537096911366000,5.893365966796875,-1.530242919921875,-0.610076904296875,-0.0953216552734375
1772537096921415200,5.903415283203125,-1.435333251953125,-0.568603515625,-0.0809326171875
1772537096931463000,5.913462890625,-1.332611083984375,-0.5285186767578125,-0.0716094970703125
1772537096941511200,5.92351123046875,-1.2183837890625,-0.49761962890625,-0.0478668212890625
1772537096951560000,5.933559814453125,-1.07562255859375,-0.43377685546875,-0.016448974609375
1772537096961608000,5.94360791015625,-0.8076629638671875,-0.447662353515625,0.002197265625
1772537096971656200,5.95365625,-0.9766387939453125,-0.28662109375,0.0153045654296875
1772537096981705000,5.963705078125,-0.73162841796875,-0.2426605224609375,-0.0157318115234375
1772537096991753200,5.973753173828125,-0.60650634765625,-0.2090301513671875,-0.0452117919921875
1772537097001802000,5.983802001953125,-0.5734710693359375,-0.1320037841796875,-0.078338623046875
1772537097011850200,5.993850341796875,-0.486236572265625,-0.0897979736328125,-0.07373046875
1772537097021898000,6.00389794921875,-0.4256591796875,-0.06494140625,-0.0536041259765625
1772537097031947300,6.013947265625,-0.3671417236328125,-0.0614166259765625,-0.061553955078125
1772537097041995500,6.02399560546875,-0.2887115478515625,-0.049896240234375,-0.074951171875
1772537097052043500,6.03404345703125,-0.223236083984375,-0.0303192138671875,-0.06298828125
1772537097062092500,6.044092529296875,-0.191436767578125,-0.0196533203125,-0.0356292724609375
1772537097072140500,6.054140625,-0.1548004150390625,-0.0042724609375,-0.0162353515625
1772537097082188300,6.064188232421875,-0.0983734130859375,-0.0197296142578125,0.001922607421875
1772537097092237600,6.074237548828125,-0.0655517578125,-0.0222320556640625,0.0237579345703125
1772537097102285300,6.084285400390625,-0.0484771728515625,-0.0187530517578125,0.02850341796875
1772537097112334600,6.09433447265625,-0.0450286865234375,-0.0267181396484375,0.0244903564453125
1772537097122382300,6.10438232421875,-0.0299530029296875,-0.04058837890625,0.016265869140625
1772537097132430300,6.114430419921875,-0.022918701171875,-0.0490875244140625,0.01312255859375
1772537097142479400,6.124479248046875,-0.0310516357421875,-0.0553741455078125,0.0071563720703125
1772537097152527400,6.13452734375,-0.05084228515625,-0.0594940185546875,0.00311279296875
1772537097162575400,6.144575439453125,-0.073150634765625,-0.069976806640625,-0.0060577392578125
1772537097172624400,6.154624267578125,-0.0920562744140625,-0.0834197998046875,-0.01678466796875
1772537097182672400,6.16467236328125,-0.117156982421875,-0.0894012451171875,-0.0306396484375
1772537097192721400,6.174721435546875,-0.1567535400390625,-0.1067962646484375,-0.038238525390625
1772537097202769400,6.184769287109375,-0.20880126953125,-0.140625,-0.036712646484375
1772537097212817400,6.1948173828125,-0.264007568359375,-0.194580078125,-0.0107421875
1772537097222866400,6.204866455078125,-0.315521240234375,-0.280426025390625,0.0143585205078125
1772537097232914400,6.21491455078125,-0.3963775634765625,-0.374237060546875,0.0336761474609375
1772537097242962400,6.22496240234375,-0.5169525146484375,-0.4636688232421875,0.0530242919921875
1772537097253011500,6.235011474609375,-0.6431121826171875,-0.511444091796875,0.0447845458984375
1772537097263059500,6.2450595703125,-0.77777099609375,-0.52056884765625,0.0187835693359375
1772537097273108500,6.2551083984375,-0.874786376953125,-0.54400634765625,-0.01068115234375
1772537097283156500,6.265156494140625,-0.9702911376953125,-0.5549163818359375,-0.07147216796875
1772537097293204500,6.27520458984375,-1.077545166015625,-0.54144287109375,-0.1275787353515625
1772537097303253500,6.28525341796875,-1.14093017578125,-0.5700531005859375,-0.166656494140625
1772537097313301200,6.29530126953125,-1.214447021484375,-0.6092987060546875,-0.2022552490234375
1772537097323349500,6.305349609375,-1.305755615234375,-0.634765625,-0.221954345703125
1772537097333398300,6.315398193359375,-1.34808349609375,-0.66790771484375,-0.220489501953125
1772537097343446500,6.325446533203125,-1.3847198486328125,-0.7270965576171875,-0.19671630859375
1772537097353494500,6.33549462890625,-1.4275360107421875,-0.79010009765625,-0.1619873046875
1772537097363543600,6.34554345703125,-1.44873046875,-0.8332977294921875,-0.1302337646484375
1772537097373591300,6.35559130859375,-1.4575653076171875,-0.86480712890625,-0.1080322265625
1772537097383640600,6.365640625,-1.481781005859375,-0.893463134765625,-0.078948974609375
1772537097393688300,6.375688232421875,-1.5007781982421875,-0.9286651611328125,-0.0378265380859375
1772537097403736300,6.385736328125,-1.517669677734375,-0.97271728515625,-0.00238037109375
1772537097413785300,6.395785400390625,-1.5562896728515625,-1.022491455078125,0.02392578125
1772537097423833300,6.405833251953125,-1.59039306640625,-1.0665130615234375,0.0426483154296875
1772537097433881600,6.415881591796875,-1.6377716064453125,-1.084930419921875,0.044769287109375
1772537097443930400,6.425930419921875,-1.679107666015625,-1.08258056640625,0.0322723388671875
1772537097453978600,6.435978515625,-1.7128448486328125,-1.05938720703125,0.0230560302734375
1772537097464026400,6.4460263671875,-1.7338714599609375,-1.0317230224609375,0.0065765380859375
1772537097474075400,6.456075439453125,-1.753631591796875,-0.9973907470703125,-0.015228271484375
1772537097484123400,6.466123291015625,-1.7501220703125,-0.95196533203125,-0.0350189208984375
1772537097494172400,6.47617236328125,-1.72119140625,-0.9034271240234375,-0.062713623046875
1772537097504220400,6.486220458984375,-1.672576904296875,-0.856781005859375,-0.084197998046875
1772537097514268400,6.496268310546875,-1.6007232666015625,-0.81756591796875,-0.092376708984375
1772537097524317400,6.5063173828125,-1.5103302001953125,-0.7821197509765625,-0.0951995849609375
1772537097534365400,6.516365478515625,-1.41241455078125,-0.747955322265625,-0.0886993408203125
1772537097544413400,6.526413330078125,-1.2973480224609375,-0.7006072998046875,-0.0815887451171875
1772537097554462500,6.53646240234375,-1.1602020263671875,-0.645782470703125,-0.072418212890625
1772537097564510500,6.546510498046875,-1.0196685791015625,-0.584320068359375,-0.0684967041015625
1772537097574559500,6.5565595703125,-0.877593994140625,-0.501495361328125,-0.06781005859375
1772537097584607500,6.566607421875,-0.757354736328125,-0.3992156982421875,-0.061798095703125
1772537097594655500,6.576655517578125,-0.6631927490234375,-0.3009490966796875,-0.05615234375
1772537097604704300,6.586704345703125,-0.57635498046875,-0.2188568115234375,-0.049407958984375
1772537097614752500,6.59675244140625,-0.478851318359375,-0.155853271484375,-0.0487823486328125
1772537097624800500,6.606800537109375,-0.40301513671875,-0.1057281494140625,-0.048309326171875
1772537097634849300,6.616849365234375,-0.3383941650390625,-0.0667572021484375,-0.0336761474609375
1772537097644897500,6.6268974609375,-0.2657318115234375,-0.0514984130859375,-0.0107574462890625
1772537097654946300,6.6369462890625,-0.2153778076171875,-0.042724609375,0.0080413818359375
1772537097664994600,6.64699462890625,-0.18402099609375,-0.03558349609375,0.0297698974609375
1772537097675042300,6.657042236328125,-0.15313720703125,-0.038238525390625,0.0511627197265625
1772537097685091600,6.667091552734375,-0.138519287109375,-0.0447998046875,0.064239501953125
1772537097695139300,6.677139404296875,-0.130859375,-0.051849365234375,0.0615997314453125
1772537097705187300,6.687187255859375,-0.1180267333984375,-0.0521392822265625,0.050567626953125
1772537097715236400,6.697236328125,-0.10491943359375,-0.048675537109375,0.0495452880859375
1772537097725284400,6.707284423828125,-0.11090087890625,-0.04931640625,0.03875732421875
1772537097735332600,6.71733251953125,-0.111297607421875,-0.0618743896484375,0.03009033203125
1772537097745381400,6.72738134765625,-0.1185760498046875,-0.0713348388671875,0.0302886962890625
1772537097755429600,6.7374296875,-0.136871337890625,-0.0747528076171875,0.0347137451171875
1772537097765478400,6.747478515625,-0.152374267578125,-0.08331298828125,0.0359344482421875
1772537097775526400,6.7575263671875,-0.1851654052734375,-0.0914459228515625,0.0391082763671875
1772537097785574400,6.767574462890625,-0.2180633544921875,-0.0908966064453125,0.0369720458984375
1772537097795623400,6.77762353515625,-0.2427215576171875,-0.0830230712890625,0.0230712890625
1772537097805671400,6.78767138671875,-0.261016845703125,-0.0775299072265625,-0.0102081298828125
1772537097815719400,6.797719482421875,-0.2935333251953125,-0.0888214111328125,-0.02545166015625
1772537097825768400,6.8077685546875,-0.3391876220703125,-0.1283721923828125,-0.0212554931640625
1772537097835816400,6.81781640625,-0.3995361328125,-0.188262939453125,-0.0128631591796875
1772537097845865500,6.827865478515625,-0.4858856201171875,-0.243499755859375,-0.0119781494140625
1772537097855913500,6.83791357421875,-0.60284423828125,-0.2839202880859375,-0.0304412841796875
1772537097865961200,6.847961181640625,-0.751708984375,-0.3137664794921875,-0.0687103271484375
1772537097876010500,6.858010498046875,-0.88055419921875,-0.3300933837890625,-0.1291351318359375
1772537097886058200,6.868058349609375,-0.9938812255859375,-0.3105010986328125,-0.205078125
1772537097896106500,6.8781064453125,-1.0966796875,-0.27886962890625,-0.2884063720703125
1772537097906155300,6.8881552734375,-1.16143798828125,-0.2873382568359375,-0.3345184326171875
1772537097916203500,6.89820361328125,-1.2070159912109375,-0.3605804443359375,-0.318359375
1772537097926251500,6.90825146484375,-1.26446533203125,-0.4746551513671875,-0.2748260498046875
1772537097936300500,6.918300537109375,-1.360992431640625,-0.561492919921875,-0.2445526123046875
1772537097946348500,6.9283486328125,-1.43914794921875,-0.5973968505859375,-0.252471923828125
1772537097956397600,6.9383974609375,-1.4800262451171875,-0.622802734375,-0.27056884765625
1772537097966445600,6.948445556640625,-1.502288818359375,-0.67572021484375,-0.2567596435546875
1772537097976493300,6.958493408203125,-1.513763427734375,-0.728271484375,-0.22540283203125
1772537097986542300,6.968542236328125,-1.5551605224609375,-0.7654571533203125,-0.2074127197265625
1772537097996590300,6.97859033203125,-1.6128082275390625,-0.802032470703125,-0.201995849609375
1772537098006638600,6.988638671875,-1.6720428466796875,-0.8298492431640625,-0.19970703125
1772537098016687400,6.998687255859375,-1.7452850341796875,-0.8596954345703125,-0.185638427734375
1772537098026735600,7.008735595703125,-1.807373046875,-0.8870697021484375,-0.1699066162109375
1772537098036784600,7.01878466796875,-1.863800048828125,-0.8990020751953125,-0.1619415283203125
1772537098046833000,7.0288330078125,-1.912109375,-0.9080963134765625,-0.1587982177734375
1772537098056880600,7.038880615234375,-1.9535675048828125,-0.8977813720703125,-0.1608123779296875
1772537098066930000,7.048929931640625,-1.9895172119140625,-0.8802490234375,-0.166229248046875
1772537098076977700,7.058977783203125,-1.986419677734375,-0.877471923828125,-0.189788818359375
1772537098087025700,7.069025634765625,-1.965911865234375,-0.8621826171875,-0.2136688232421875
1772537098097074700,7.07907470703125,-1.9265594482421875,-0.8390655517578125,-0.231964111328125
1772537098107122700,7.089122802734375,-1.8509521484375,-0.7958526611328125,-0.2416534423828125
1772537098117170700,7.099170654296875,-1.752105712890625,-0.7480316162109375,-0.233551025390625
1772537098127219700,7.1092197265625,-1.6276092529296875,-0.716278076171875,-0.2112884521484375
1772537098137267700,7.119267822265625,-1.484619140625,-0.67218017578125,-0.195281982421875
1772537098147316700,7.129316650390625,-1.31884765625,-0.6267852783203125,-0.171966552734375
1772537098157364500,7.139364501953125,-1.15521240234375,-0.5985565185546875,-0.12982177734375
1772537098167412700,7.149412841796875,-0.9923095703125,-0.562835693359375,-0.0938873291015625
1772537098177461500,7.15946142578125,-0.837646484375,-0.4968414306640625,-0.0763092041015625
1772537098187509800,7.169509765625,-0.7204132080078125,-0.422393798828125,-0.062744140625
1772537098197557800,7.179557861328125,-0.614593505859375,-0.3423919677734375,-0.0441131591796875
1772537098207606800,7.189606689453125,-0.511688232421875,-0.2606658935546875,-0.0192108154296875
1772537098217654800,7.19965478515625,-0.4193267822265625,-0.1855621337890625,-0.0120086669921875
1772537098227702500,7.20970263671875,-0.3384552001953125,-0.116363525390625,0.007965087890625
1772537098237751800,7.219751708984375,-0.2745361328125,-0.0645599365234375,0.02294921875
1772537098247799600,7.229799560546875,-0.21826171875,-0.0335235595703125,0.0385589599609375
1772537098257848800,7.239848876953125,-0.152984619140625,-0.00054931640625,0.060302734375
1772537098267896600,7.249896484375,-0.0972137451171875,0.0235748291015625,0.073760986328125
1772537098277944800,7.25994482421875,-0.0650482177734375,0.0335540771484375,0.08709716796875
1772537098287993600,7.26999365234375,-0.0426483154296875,0.036346435546875,0.0963134765625
1772537098298041900,7.280041748046875,-0.024322509765625,0.03656005859375,0.105438232421875
1772537098308090600,7.290090576171875,-0.021697998046875,0.0323944091796875,0.1162567138671875
1772537098318139000,7.300138916015625,-0.0205078125,0.019012451171875,0.1114959716796875
1772537098328186600,7.3101865234375,-0.014984130859375,0.008270263671875,0.0939178466796875
1772537098338235600,7.320235595703125,-0.023406982421875,0.0084381103515625,0.0844268798828125
1772537098348283600,7.33028369140625,-0.045928955078125,0.007965087890625,0.0792236328125
1772537098358331600,7.34033154296875,-0.0792083740234375,0.0001373291015625,0.05364990234375
1772537098368380700,7.350380615234375,-0.1154022216796875,-0.0049591064453125,0.0279388427734375
1772537098378428700,7.3604287109375,-0.1471710205078125,-0.010162353515625,0.00640869140625
1772537098388476700,7.3704765625,-0.1695556640625,-0.01531982421875,-0.0214385986328125
1772537098398525700,7.380525634765625,-0.2042083740234375,-0.0264892578125,-0.023773193359375
1772537098408573700,7.39057373046875,-0.2545623779296875,-0.0656890869140625,-0.0198211669921875
1772537098418622700,7.400622802734375,-0.2925872802734375,-0.12646484375,-0.00946044921875
1772537098428670700,7.410670654296875,-0.3411102294921875,-0.19915771484375,0.02410888671875
1772537098438718700,7.42071875,-0.4001617431640625,-0.2814788818359375,0.033172607421875
1772537098448767700,7.430767822265625,-0.496551513671875,-0.33624267578125,0.0092315673828125
1772537098458815700,7.440815673828125,-0.6386260986328125,-0.33544921875,-0.0199432373046875
1772537098468863700,7.45086376953125,-0.7536468505859375,-0.3272552490234375,-0.075653076171875
1772537098478912800,7.460912841796875,-0.8328094482421875,-0.3488006591796875,-0.1262054443359375
1772537098488960800,7.470960693359375,-0.919952392578125,-0.3871307373046875,-0.1566925048828125
1772537098499008800,7.4810087890625,-0.9999847412109375,-0.4370880126953125,-0.1756134033203125
1772537098509057800,7.491057861328125,-1.09759521484375,-0.46612548828125,-0.1835784912109375
1772537098519105800,7.501105712890625,-1.2320404052734375,-0.4745330810546875,-0.199493408203125
1772537098529154800,7.51115478515625,-1.3277435302734375,-0.4843292236328125,-0.23516845703125
1772537098539202800,7.521202880859375,-1.391937255859375,-0.4927978515625,-0.2785491943359375
1772537098549250600,7.53125048828125,-1.4320831298828125,-0.5294342041015625,-0.3055267333984375
1772537098559299600,7.541299560546875,-1.44146728515625,-0.6142120361328125,-0.2779541015625
1772537098569347600,7.55134765625,-1.480438232421875,-0.714447021484375,-0.239105224609375
1772537098579395800,7.561395751953125,-1.559478759765625,-0.7994384765625,-0.207916259765625
1772537098589444600,7.571444580078125,-1.62457275390625,-0.8770904541015625,-0.189788818359375
1772537098599492900,7.581492919921875,-1.6846466064453125,-0.9333648681640625,-0.1797943115234375
1772537098609541600,7.591541748046875,-1.741241455078125,-0.974822998046875,-0.1835174560546875
1772537098619590000,7.60158984375,-1.7921295166015625,-1.001739501953125,-0.1998138427734375
1772537098629637600,7.6116376953125,-1.8384246826171875,-0.9973602294921875,-0.218292236328125
1772537098639687000,7.62168701171875,-1.8887786865234375,-0.97821044921875,-0.246856689453125
1772537098649734700,7.631734619140625,-1.9333648681640625,-0.9564666748046875,-0.268798828125
1772537098659782700,7.64178271484375,-1.958526611328125,-0.9287109375,-0.2870635986328125
1772537098669831700,7.651831787109375,-1.965789794921875,-0.9022064208984375,-0.29669189453125
1772537098679879700,7.661879638671875,-1.9585113525390625,-0.8752899169921875,-0.2951812744140625
1772537098689928000,7.671927978515625,-1.9258270263671875,-0.8322906494140625,-0.288787841796875
1772537098699976700,7.681976806640625,-1.868438720703125,-0.781707763671875,-0.282196044921875
1772537098710025000,7.69202490234375,-1.7714691162109375,-0.7352294921875,-0.2729644775390625
1772537098720073700,7.70207373046875,-1.64105224609375,-0.69073486328125,-0.2619171142578125
1772537098730121700,7.712121826171875,-1.49493408203125,-0.641845703125,-0.2441864013671875
1772537098740169700,7.722169677734375,-1.3500518798828125,-0.5918426513671875,-0.2192230224609375
1772537098750218800,7.73221875,-1.2054595947265625,-0.533721923828125,-0.1861724853515625
1772537098760266800,7.742266845703125,-1.0571441650390625,-0.4749908447265625,-0.1488800048828125
1772537098770314800,7.752314697265625,-0.92059326171875,-0.4175262451171875,-0.1179351806640625
1772537098780363800,7.76236376953125,-0.7944793701171875,-0.3563690185546875,-0.0992279052734375
1772537098790411800,7.772411865234375,-0.6792144775390625,-0.2950439453125,-0.082733154296875
1772537098800459500,7.78245947265625,-0.586669921875,-0.2356719970703125,-0.0686492919921875
1772537098810508800,7.7925087890625,-0.5186767578125,-0.177093505859375,-0.0480499267578125
1772537098820556500,7.802556640625,-0.4625244140625,-0.115966796875,-0.0330963134765625
1772537098830605800,7.812605712890625,-0.407745361328125,-0.0584259033203125,-0.029296875
1772537098840653600,7.822653564453125,-0.3562774658203125,-0.0051422119140625,-0.0251312255859375
1772537098850701800,7.832701904296875,-0.3154144287109375,0.0330963134765625,-0.019805908203125
1772537098860750600,7.84275048828125,-0.275115966796875,0.05316162109375,-0.0131683349609375
1772537098870798800,7.852798828125,-0.235015869140625,0.0620574951171875,-0.00103759765625
1772537098880846800,7.862846923828125,-0.2028961181640625,0.058441162109375,0.01861572265625
1772537098890895600,7.8728955078125,-0.164886474609375,0.041534423828125,0.0385284423828125
1772537098900944000,7.88294384765625,-0.138824462890625,0.0204010009765625,0.0601348876953125
1772537098910992600,7.89299267578125,-0.1184844970703125,0.0005035400390625,0.0749969482421875
1772537098921041000,7.903041015625,-0.102020263671875,-0.021514892578125,0.084320068359375
1772537098931088600,7.913088623046875,-0.095733642578125,-0.0396881103515625,0.08575439453125
1772537098941137700,7.9231376953125,-0.1021575927734375,-0.0480499267578125,0.0884552001953125
1772537098951185700,7.933185546875,-0.131866455078125,-0.04278564453125,0.0834808349609375
1772537098961233700,7.943233642578125,-0.1726226806640625,-0.03582763671875,0.065887451171875
1772537098971282700,7.95328271484375,-0.197021484375,-0.0305023193359375,0.040283203125
1772537098981330700,7.96333056640625,-0.217864990234375,-0.020355224609375,0.011077880859375
1772537098991378700,7.973378662109375,-0.2650299072265625,-0.0246124267578125,-0.0230865478515625
1772537099001427700,7.983427734375,-0.29888916015625,-0.074066162109375,-0.035888671875
1772537099011475700,7.993475830078125,-0.315826416015625,-0.16131591796875,-0.0282745361328125
1772537099021524700,8.003524658203125,-0.3505401611328125,-0.260894775390625,-0.0051116943359375
1772537099031572700,8.01357275390625,-0.3936004638671875,-0.3581390380859375,0.0276336669921875
1772537099041621000,8.02362109375,-0.477691650390625,-0.4134979248046875,0.049041748046875
1772537099051670000,8.033669921875,-0.591217041015625,-0.4185638427734375,0.031005859375
1772537099061718000,8.043718017578126,-0.721832275390625,-0.4037322998046875,-0.01055908203125
1772537099071766000,8.05376611328125,-0.8312225341796875,-0.4330902099609375,-0.053741455078125
1772537099081815000,8.06381494140625,-0.9351348876953125,-0.470672607421875,-0.0879058837890625
1772537099091863000,8.073863037109374,-1.058380126953125,-0.4287567138671875,-0.140777587890625
1772537099101911000,8.0839111328125,-1.1761474609375,-0.3780059814453125,-0.2173309326171875
1772537099111959800,8.093959716796874,-1.25250244140625,-0.4405975341796875,-0.25726318359375
1772537099122008000,8.104008056640625,-1.339691162109375,-0.5388336181640625,-0.2515106201171875
1772537099132056800,8.114056884765626,-1.4355316162109375,-0.57733154296875,-0.2396087646484375
1772537099142105000,8.12410498046875,-1.475555419921875,-0.5885772705078125,-0.229278564453125
1772537099152153000,8.134153076171875,-1.508331298828125,-0.6198577880859375,-0.2140045166015625
1772537099162202000,8.1442021484375,-1.5532989501953125,-0.6704864501953125,-0.1885528564453125
1772537099172250000,8.15425,-1.57196044921875,-0.7170867919921875,-0.1597442626953125
1772537099182297900,8.1642978515625,-1.5684814453125,-0.7464752197265625,-0.1548614501953125
1772537099192347100,8.17434716796875,-1.569091796875,-0.7856597900390625,-0.1441497802734375
1772537099202395000,8.184394775390626,-1.5741119384765625,-0.834014892578125,-0.123199462890625
1772537099212444200,8.194444091796875,-1.5923919677734375,-0.87310791015625,-0.1097259521484375
1772537099222492000,8.204491943359375,-1.636688232421875,-0.908599853515625,-0.0978851318359375
1772537099232540200,8.2145400390625,-1.672088623046875,-0.940765380859375,-0.0882415771484375
1772537099242589000,8.2245888671875,-1.7092742919921875,-0.9450531005859375,-0.0900421142578125
1772537099252637200,8.23463720703125,-1.73699951171875,-0.9359283447265625,-0.1025848388671875
1772537099262685200,8.244685302734375,-1.755279541015625,-0.9166412353515625,-0.1208343505859375
1772537099272734200,8.254734130859376,-1.7677459716796875,-0.8885345458984375,-0.1526031494140625
1772537099282782000,8.264781982421875,-1.7671051025390625,-0.85809326171875,-0.195404052734375
1772537099292831000,8.2748310546875,-1.749267578125,-0.820556640625,-0.232177734375
1772537099302879000,8.28487890625,-1.70574951171875,-0.7648773193359375,-0.2663421630859375
1772537099312927000,8.294927001953125,-1.6390838623046875,-0.706146240234375,-0.2977142333984375
1772537099322976000,8.30497607421875,-1.551605224609375,-0.6592864990234375,-0.305267333984375
1772537099333024000,8.31502392578125,-1.4402923583984375,-0.6265106201171875,-0.28741455078125
1772537099343072000,8.325072021484376,-1.32379150390625,-0.5975799560546875,-0.24737548828125
1772537099353121000,8.33512109375,-1.2096710205078125,-0.553314208984375,-0.20831298828125
1772537099363169000,8.3451689453125,-1.0941314697265625,-0.497314453125,-0.1834564208984375
1772537099373217000,8.355217041015624,-0.9716339111328125,-0.4339752197265625,-0.1609344482421875
1772537099383266000,8.36526611328125,-0.8437957763671875,-0.375213623046875,-0.1389617919921875
1772537099393314000,8.37531396484375,-0.722259521484375,-0.3281097412109375,-0.119140625
1772537099403363000,8.385363037109375,-0.6235504150390625,-0.28350830078125,-0.0987701416015625
1772537099413411000,8.3954111328125,-0.5457916259765625,-0.24444580078125,-0.077239990234375
1772537099423459000,8.405458984375,-0.4669952392578125,-0.2076263427734375,-0.063720703125
1772537099433508000,8.415508056640626,-0.4019622802734375,-0.1629791259765625,-0.0527496337890625
1772537099443556000,8.42555615234375,-0.365203857421875,-0.1138458251953125,-0.033416748046875
1772537099453604000,8.43560400390625,-0.3353424072265625,-0.067352294921875,-0.007354736328125
1772537099463653000,8.445653076171874,-0.302886962890625,-0.0368499755859375,0.0200042724609375
1772537099473701000,8.455701171875,-0.280059814453125,-0.02459716796875,0.037261962890625
1772537099483750100,8.465750244140626,-0.2830352783203125,-0.015106201171875,0.061309814453125
1772537099493798100,8.475798095703125,-0.2842254638671875,-0.017303466796875,0.0903167724609375
1772537099503846100,8.48584619140625,-0.2669219970703125,-0.0345306396484375,0.1183013916015625
1772537099513895000,8.49589501953125,-0.2608642578125,-0.04150390625,0.15850830078125
1772537099523943000,8.50594287109375,-0.268951416015625,-0.0341644287109375,0.2087249755859375
1772537099533991200,8.5159912109375,-0.2682342529296875,-0.0258636474609375,0.2401275634765625
1772537099544040000,8.5260400390625,-0.277252197265625,-0.0150299072265625,0.2740020751953125
1772537099554088200,8.536088134765626,-0.294708251953125,-0.0019683837890625,0.33135986328125
1772537099564136000,8.546135986328125,-0.2732696533203125,0.0121307373046875,0.3511810302734375
1772537099574185200,8.556185302734375,-0.2828369140625,0.037933349609375,0.353668212890625
1772537099584233000,8.56623291015625,-0.3046417236328125,0.04351806640625,0.361846923828125
1772537099594281000,8.576281005859375,-0.30499267578125,0.0386962890625,0.337921142578125
1772537099604330000,8.586330078125,-0.323150634765625,0.036224365234375,0.319488525390625
1772537099614378000,8.5963779296875,-0.31494140625,0.0133209228515625,0.317108154296875
1772537099624427000,8.606427001953126,-0.3525848388671875,0.00994873046875,0.2991790771484375
1772537099634475000,8.61647509765625,-0.3714752197265625,-0.002349853515625,0.2630767822265625
1772537099644523300,8.626523193359375,-0.3919219970703125,-0.0214385986328125,0.22943115234375
1772537099654572000,8.636572021484374,-0.4840240478515625,-0.0704803466796875,0.2083740234375
1772537099664620300,8.646620361328125,-0.5903472900390625,-0.1223907470703125,0.1338958740234375
1772537099674668000,8.65666796875,-0.7366485595703125,-0.1686248779296875,0.0648956298828125
1772537099684717000,8.666717041015625,-0.898162841796875,-0.2375030517578125,0.0004730224609375
1772537099694765000,8.67676513671875,-0.944305419921875,-0.33819580078125,-0.125518798828125
1772537099704814000,8.68681396484375,-0.8615570068359375,-0.399993896484375,-0.2530059814453125
1772537099714862000,8.696862060546875,-0.8802642822265625,-0.403900146484375,-0.2436676025390625
1772537099724910000,8.70691015625,-0.9339447021484375,-0.4991607666015625,-0.2449493408203125
1772537099734959000,8.716958984375,-1.0070343017578125,-0.585235595703125,-0.3041839599609375
1772537099745007000,8.727007080078126,-1.115386962890625,-0.6649627685546875,-0.3536529541015625
1772537099755054800,8.737054931640625,-1.2222747802734375,-0.7917633056640625,-0.3394622802734375
1772537099765104000,8.747104248046876,-1.3022308349609375,-0.9258270263671875,-0.25921630859375
1772537099775151900,8.75715185546875,-1.374481201171875,-1.02484130859375,-0.265106201171875
1772537099785200000,8.7672001953125,-1.48602294921875,-1.072479248046875,-0.286102294921875
1772537099795249000,8.777248779296874,-1.588653564453125,-1.1391448974609375,-0.3170928955078125
1772537099805297200,8.787297119140625,-1.7388153076171875,-1.208465576171875,-0.3660736083984375
1772537099815346000,8.797345947265624,-1.8779144287109375,-1.22723388671875,-0.39202880859375
1772537099825394200,8.807394287109375,-1.9681243896484375,-1.2198028564453125,-0.36529541015625
1772537099835442200,8.817442138671876,-2.0186920166015625,-1.226715087890625,-0.32086181640625
1772537099845491200,8.8274912109375,-2.0444793701171875,-1.2195281982421875,-0.223876953125
1772537099855539200,8.837539306640625,-2.0415191650390625,-1.19219970703125,-0.1313323974609375
1772537099865587000,8.8475869140625,-2.0676727294921875,-1.11663818359375,-0.0503082275390625
1772537099875636200,8.85763623046875,-2.0393218994140625,-1.026885986328125,0.0245361328125
1772537099885684000,8.86768408203125,-2.0045166015625,-0.932952880859375,0.0556182861328125
1772537099895733000,8.87773291015625,-1.95306396484375,-0.82733154296875,0.0556640625
1772537099905781000,8.887781005859376,-1.8420562744140625,-0.7136688232421875,0.0627899169921875
1772537099915829000,8.8978291015625,-1.759063720703125,-0.6428070068359375,0.0686492919921875
1772537099925878000,8.9078779296875,-1.648162841796875,-0.5928192138671875,0.0962066650390625
1772537099935926000,8.917926025390624,-1.5135498046875,-0.549713134765625,0.1372833251953125
1772537099945974000,8.92797412109375,-1.388916015625,-0.4887847900390625,0.1733551025390625
1772537099956023000,8.93802294921875,-1.2475128173828125,-0.42431640625,0.1910247802734375
1772537099966071000,8.948071044921875,-1.1492767333984375,-0.3638916015625,0.1963348388671875
1772537099976119000,8.958119140625,-1.06109619140625,-0.2836761474609375,0.1883697509765625
1772537099986168000,8.96816796875,-0.931915283203125,-0.1950225830078125,0.1479339599609375
1772537099996216000,8.978216064453125,-0.8063507080078125,-0.1283416748046875,0.088623046875
1772537100006265000,8.98826513671875,-0.7366943359375,-0.09539794921875,0.0439453125
1772537100016313000,8.99831298828125,-0.645416259765625,-0.055450439453125,-0.0020751953125
1772537100026361000,9.008361083984376,-0.5155181884765625,-0.0093841552734375,-0.022705078125
1772537100036412700,9.01841259765625,-0.3797760009765625,0.00189208984375,-0.0374603271484375
1772537100046460700,9.028460693359374,-0.252288818359375,-0.0204620361328125,-0.061767578125
1772537100056508700,9.0385087890625,-0.141448974609375,-0.0468292236328125,-0.0635986328125
1772537100066557700,9.0485576171875,-0.03973388671875,-0.0577850341796875,-0.0610809326171875
1772537100076605400,9.05860546875,0.021820068359375,-0.027008056640625,-0.0416717529296875
1772537100086653700,9.06865380859375,0.064239501953125,0.0227203369140625,0.008087158203125
1772537100096702500,9.078702392578125,0.1103515625,0.025543212890625,0.0603485107421875
1772537100106750700,9.088750732421875,0.147247314453125,0.00994873046875,0.0998077392578125
1772537100116799500,9.098799560546874,0.175445556640625,0.0098724365234375,0.1130828857421875
1772537100126847700,9.10884765625,0.18426513671875,0.0048980712890625,0.1082916259765625
1772537100136895700,9.118895751953126,0.19891357421875,-0.002716064453125,0.0946807861328125
1772537100146944800,9.12894482421875,0.2025299072265625,0.0081024169921875,0.088409423828125
1772537100156992800,9.13899267578125,0.16644287109375,0.0260009765625,0.08319091796875
1772537100167040500,9.14904052734375,0.1190185546875,0.0286407470703125,0.061004638671875
1772537100177089800,9.15908984375,0.0644989013671875,-0.004119873046875,0.0490875244140625
1772537100187137500,9.169137451171874,-0.0149688720703125,-0.0558319091796875,0.039459228515625
1772537100197186800,9.179186767578125,-0.06256103515625,-0.09832763671875,0.0372772216796875
1772537100207234600,9.189234619140626,-0.10931396484375,-0.0907440185546875,0.0327911376953125
1772537100217282800,9.19928271484375,-0.2142791748046875,-0.05218505859375,0.0528717041015625
1772537100227331600,9.20933154296875,-0.3544464111328125,-0.0740966796875,0.1153106689453125
1772537100237379800,9.2193798828125,-0.483673095703125,-0.2115936279296875,0.232269287109375
1772537100247427600,9.229427490234375,-0.5128326416015625,-0.4979400634765625,0.2826080322265625
1772537100257476600,9.2394765625,-0.7981414794921875,-0.538055419921875,0.310302734375
1772537100267524600,9.249524658203125,-1.060760498046875,-0.49951171875,0.309173583984375
1772537100277572600,9.259572509765626,-1.0871429443359375,-0.5511016845703125,0.1231231689453125
1772537100287621600,9.26962158203125,-1.2165069580078125,-0.4515228271484375,0.0126953125
1772537100297669600,9.279669677734375,-1.3596649169921875,-0.143707275390625,0.003265380859375
1772537100307718700,9.28971875,-1.386993408203125,0.0403900146484375,0.0338134765625
1772537100317766700,9.2997666015625,-1.34375,-0.1125640869140625,0.1063385009765625
1772537100327814700,9.309814697265624,-1.3672637939453125,-0.0101165771484375,0.3520660400390625
1772537100337863700,9.31986376953125,-1.4892578125,-0.2405242919921875,0.3985443115234375
1772537100347911700,9.32991162109375,-1.6729278564453125,-0.547027587890625,0.3157196044921875
1772537100357959700,9.339959716796875,-1.760986328125,-0.7101287841796875,0.201904296875
1772537100368008700,9.3500087890625,-1.7879791259765625,-0.7602386474609375,0.0947113037109375
1772537100378056700,9.360056640625,-1.83062744140625,-0.712646484375,0.05596923828125
1772537100388104700,9.370104736328125,-1.877532958984375,-0.5749359130859375,0.0330810546875
1772537100398153700,9.38015380859375,-1.89117431640625,-0.41937255859375,-0.0695953369140625
1772537100408201700,9.39020166015625,-1.822540283203125,-0.31298828125,-0.2336578369140625
1772537100418250500,9.40025048828125,-1.7530517578125,-0.287261962890625,-0.3729400634765625
1772537100428298800,9.410298828125,-1.7921142578125,-0.28582763671875,-0.2596893310546875
1772537100438346800,9.4203466796875,-1.8260498046875,-0.2595367431640625,-0.014739990234375
1772537100448395800,9.430395751953125,-1.7869720458984375,-0.2317047119140625,0.147735595703125
1772537100458443500,9.440443603515625,-1.6958465576171875,-0.2046661376953125,0.2091522216796875
1772537100468491800,9.45049169921875,-1.5817413330078125,-0.1953125,0.2266082763671875
1772537100478540500,9.46054052734375,-1.4866790771484375,-0.2018280029296875,0.2259063720703125
1772537100488588500,9.470588623046876,-1.389923095703125,-0.2094879150390625,0.1905059814453125
1772537100498636800,9.48063671875,-1.3642120361328125,-0.172576904296875,0.1638946533203125
1772537100508685600,9.490685546875,-1.3892974853515625,-0.12603759765625,0.1425018310546875
1772537100518733800,9.50073388671875,-1.3759765625,-0.1027069091796875,0.1179656982421875
1772537100528782600,9.510782470703125,-1.3128204345703125,-0.083160400390625,0.112518310546875
1772537100538830800,9.520830810546874,-1.2335052490234375,-0.0807342529296875,0.1156158447265625
1772537100548878600,9.530878662109375,-1.1671295166015625,-0.087158203125,0.10430908203125
1772537100558928000,9.540927978515626,-1.130218505859375,-0.083221435546875,0.0773162841796875
1772537100568975600,9.5509755859375,-1.10015869140625,-0.08160400390625,0.0576324462890625
1772537100579023600,9.561023681640625,-1.034149169921875,-0.0767822265625,0.045654296875
1772537100589072600,9.57107275390625,-0.9402618408203125,-0.0650177001953125,0.01885986328125
1772537100599120600,9.58112060546875,-0.8415985107421875,-0.036529541015625,-0.0055389404296875
1772537100609169700,9.591169677734374,-0.763519287109375,0.008331298828125,-0.0104522705078125
1772537100619217700,9.6012177734375,-0.70184326171875,0.056610107421875,-0.002532958984375
1772537100629265700,9.611265625,-0.6572418212890625,0.0878753662109375,0.0348663330078125
1772537100639314700,9.621314697265625,-0.5914154052734375,0.098907470703125,0.0965423583984375
1772537100649362700,9.63136279296875,-0.5324249267578125,0.0862884521484375,0.12408447265625
1772537100659410700,9.64141064453125,-0.494598388671875,0.031402587890625,-0.002838134765625
1772537100669459500,9.65145947265625,-0.4292755126953125,0.0054931640625,-0.0781097412109375
1772537100679507700,9.6615078125,-0.23248291015625,0.0252227783203125,-0.065765380859375
1772537100689555700,9.6715556640625,-0.2200164794921875,0.0349884033203125,0.0464935302734375
1772537100699604700,9.681604736328126,-0.455047607421875,-0.022796630859375,0.1606597900390625
1772537100709652700,9.69165283203125,-0.540679931640625,-0.086822509765625,0.16278076171875
1772537100719700500,9.701700439453125,-0.495086669921875,-0.0899658203125,0.1262664794921875
1772537100729749800,9.711749755859374,-0.473236083984375,-0.08056640625,0.0884857177734375
1772537100739797500,9.721797607421875,-0.5540924072265625,-0.1139678955078125,0.066009521484375
1772537100749846800,9.7318466796875,-0.633056640625,-0.131988525390625,0.083648681640625
1772537100759894500,9.74189453125,-0.6224517822265625,-0.1177978515625,0.0821685791015625
