time,seconds_elapsed,z,y,x
1772537091083312400,0.0653125,-0.197551429271698,-0.16220036149024963,0.44061681628227234
1772537091093360400,0.0753603515625,-0.22013556957244873,-0.18481379747390747,0.2830074727535248
1772537091103409400,0.085409423828125,-0.15795421600341797,-0.1858351081609726,0.1088777482509613
1772537091113457400,0.09545751953125,-0.07380657643079758,-0.06163540109992027,-0.03079972416162491
1772537091123505400,0.10550537109375,-0.04320206493139267,0.14121970534324646,-0.10272291302680969
1772537091133554400,0.115554443359375,-0.019631225615739822,0.3294711112976074,-0.125037282705307
1772537091143602400,0.1256025390625,0.005374525208026171,0.4681674838066101,-0.08903133869171143
1772537091153650400,0.135650390625,0.04085901752114296,0.5035776495933533,-0.001853293739259243
1772537091163699500,0.145699462890625,0.05309038236737251,0.49335139989852905,0.14185087382793427
1772537091173747500,0.15574755859375,0.01913800835609436,0.5137754082679749,0.33602088689804077
1772537091183796500,0.16579638671875,-0.07313252985477448,0.5394690632820129,0.518321692943573
1772537091193844200,0.17584423828125,-0.19606883823871613,0.5011131763458252,0.6512957215309143
1772537091203892500,0.185892578125,-0.30695992708206177,0.36547863483428955,0.6959196925163269
1772537091213941200,0.195941162109375,-0.40435680747032166,0.23426896333694458,0.6768240332603455
1772537091223989500,0.205989501953125,-0.5166670680046082,0.11547838896512985,0.6466959118843079
1772537091234037500,0.21603759765625,-0.7073997855186462,0.11350472271442413,0.573529839515686
1772537091244086500,0.22608642578125,-1.0155072212219238,0.07746123522520065,0.34843334555625916
1772537091254134500,0.236134521484375,-1.2929655313491821,0.048656217753887177,0.004236556589603424
1772537091264183600,0.24618359375,-1.4138543605804443,0.4998878538608551,-0.46308350563049316
1772537091274231600,0.2562314453125,-1.4008911848068237,1.129656434059143,-0.9790270328521729
1772537091284279300,0.266279296875,-1.2859898805618286,1.7993676662445068,-1.3748798370361328
1772537091294328600,0.27632861328125,-1.1194661855697632,2.221522569656372,-1.4618359804153442
1772537091304376300,0.286376220703125,-1.0570112466812134,2.144832134246826,-1.366884469985962
1772537091314424600,0.296424560546875,-1.081031084060669,1.7284916639328003,-1.1875983476638794
1772537091324473300,0.306473388671875,-1.1885818243026733,1.2814997434616089,-1.0967872142791748
1772537091334521600,0.316521484375,-1.3262875080108643,1.19099760055542,-1.070167899131775
1772537091344569300,0.3265693359375,-1.3002936840057373,1.102671504020691,-1.0430978536605835
1772537091354618400,0.336618408203125,-1.0794281959533691,0.6145052313804626,-1.0109846591949463
1772537091364666400,0.346666259765625,-0.775646984577179,-0.1369115114212036,-0.8609980940818787
1772537091374715400,0.35671533203125,-0.670357882976532,-0.931732177734375,-0.7240591645240784
1772537091384763400,0.366763427734375,-0.7926070690155029,-1.3707774877548218,-0.5549145936965942
1772537091394811400,0.376811279296875,-1.0156060457229614,-1.4941010475158691,-0.4640406370162964
1772537091404860400,0.3868603515625,-1.250976800918579,-1.4302467107772827,-0.5030998587608337
1772537091414908400,0.396908447265625,-1.4076987504959106,-1.2305644750595093,-0.5456870198249817
1772537091424956400,0.406956298828125,-1.3764744997024536,-1.1249115467071533,-0.5048235058784485
1772537091435005400,0.41700537109375,-1.167083740234375,-0.9672814011573792,-0.513458251953125
1772537091445053400,0.427053466796875,-0.8607874512672424,-0.33401739597320557,-0.608492374420166
1772537091455102500,0.4371025390625,-0.557917594909668,-0.12029365450143814,-0.5130478739738464
1772537091465150500,0.447150390625,-0.47713035345077515,-0.25915592908859253,-0.6707272529602051
1772537091475198500,0.457198486328125,-0.395402729511261,-0.49576687812805176,-0.9716612696647644
1772537091485247500,0.46724755859375,-0.20187880098819733,-0.4814680814743042,-1.1830244064331055
1772537091495295500,0.47729541015625,0.09446845203638077,-0.22942014038562775,-1.2659597396850586
1772537091505343500,0.487343505859375,0.3830778896808624,-0.05385124683380127,-1.2411075830459595
1772537091515392500,0.497392578125,0.6533147096633911,-0.20149236917495728,-1.1049833297729492
1772537091525440500,0.5074404296875,0.9561464786529541,-0.6632013916969299,-0.9342150688171387
1772537091535488300,0.51748828125,1.3643789291381836,-1.2914600372314453,-0.8185417056083679
1772537091545537500,0.52753759765625,1.874821424484253,-1.760330080986023,-0.7251816987991333
1772537091555585300,0.537585205078125,2.4186065196990967,-1.9215476512908936,-0.6280325055122375
1772537091565634600,0.547634521484375,2.8889589309692383,-1.7836827039718628,-0.31579259037971497
1772537091575682300,0.557682373046875,3.0465316772460938,-1.3616132736206055,0.1752256155014038
1772537091585730300,0.567730224609375,2.815885543823242,-0.7299271821975708,0.7926558256149292
1772537091595779300,0.577779296875,2.141404867172241,-0.46641644835472107,1.4178261756896973
1772537091605827300,0.587827392578125,1.2576549053192139,-0.51435786485672,1.909106731414795
1772537091615876400,0.59787646484375,0.4469577968120575,-0.75343918800354,2.1344125270843506
1772537091625924400,0.60792431640625,-0.20810632407665253,-1.1446306705474854,2.14276123046875
1772537091635972600,0.61797265625,-0.6691349148750305,-1.3381047248840332,2.205350399017334
1772537091646021400,0.628021484375,-0.9272626042366028,-1.2697373628616333,2.293006420135498
1772537091656069600,0.638069580078125,-0.977069079875946,-1.0791168212890625,2.251652956008911
1772537091666117400,0.648117431640625,-0.801860511302948,-0.8349987268447876,2.029026746749878
1772537091676166700,0.658166748046875,-0.5769813060760498,-0.5285701155662537,1.7366068363189697
1772537091686214400,0.66821435546875,-0.39303117990493774,-0.07748014479875565,1.4755566120147705
1772537091696262400,0.678262451171875,-0.23493634164333344,0.43781834840774536,1.2304224967956543
1772537091706311400,0.6883115234375,-0.17126575112342834,0.7809575796127319,0.9768466949462891
1772537091716359400,0.698359375,-0.32901623845100403,0.9599689245223999,0.8002564907073975
1772537091726408400,0.708408447265625,-0.5196202993392944,1.0242695808410645,0.8090025782585144
1772537091736456400,0.71845654296875,-0.5846291184425354,1.0552573204040527,1.0582821369171143
1772537091746504400,0.72850439453125,-0.5135732889175415,0.9929617643356323,1.4822802543640137
1772537091756553500,0.738553466796875,-0.24884603917598724,0.7846655249595642,2.0184202194213867
1772537091766601200,0.748601318359375,0.006502374075353146,0.23932896554470062,2.3727686405181885
1772537091776649500,0.7586494140625,0.040643833577632904,-0.67140793800354,2.1472220420837402
1772537091786698200,0.7686982421875,-0.1519991159439087,-1.5820037126541138,1.436598777770996
1772537091796746500,0.77874658203125,-0.39322105050086975,-2.0415923595428467,0.7489094138145447
1772537091806795300,0.788795166015625,-0.501947820186615,-1.6951677799224854,0.2550506591796875
1772537091816843500,0.798843505859375,-0.43347978591918945,-0.6163654327392578,-0.00018242653459310532
1772537091826891500,0.8088916015625,-0.2927759289741516,0.41163522005081177,-0.04705033451318741
1772537091836940500,0.8189404296875,-0.12837661802768707,1.2097063064575195,-0.026968766003847122
1772537091846988500,0.828988525390625,0.01443859376013279,1.6164524555206299,0.06921342760324478
1772537091857036300,0.839036376953125,0.13616476953029633,1.4521147012710571,0.12210992723703384
1772537091867085600,0.84908544921875,0.12828393280506134,0.9235848188400269,0.14633004367351532
1772537091877133300,0.85913330078125,0.016507070511579514,0.1483796238899231,0.12130485475063324
1772537091887181600,0.869181640625,-0.03971438854932785,-0.49233299493789673,0.1823788583278656
1772537091897230300,0.879230224609375,-0.08062054216861725,-0.7812931537628174,0.3289848268032074
1772537091907278600,0.889278564453125,-0.148031547665596,-0.7158507704734802,0.438961923122406
1772537091917327400,0.899327392578125,-0.2103649526834488,-0.44136327505111694,0.3964591920375824
1772537091927375400,0.909375244140625,-0.18079107999801636,-0.12907569110393524,0.16065599024295807
1772537091937423400,0.91942333984375,-0.14079226553440094,0.171381875872612,-0.04892546311020851
1772537091947472400,0.929472412109375,0.05320250242948532,0.3150378465652466,-0.24588407576084137
1772537091957520400,0.939520263671875,0.15126195549964905,0.34128543734550476,-0.3599856197834015
1772537091967568400,0.949568359375,0.0853324756026268,0.15731558203697205,-0.49164748191833496
1772537091977617400,0.959617431640625,0.032947562634944916,0.045215949416160583,-0.535505473613739
1772537091987665400,0.96966552734375,0.013398096896708012,0.045463886111974716,-0.47112810611724854
1772537091997714400,0.97971435546875,0.01997344195842743,0.019777433946728706,-0.3790794014930725
1772537092007762400,0.989762451171875,0.0929749459028244,-0.011630291119217873,-0.2096448391675949
1772537092017810400,0.999810546875,0.1771492063999176,0.019365709275007248,0.04694007709622383
1772537092027859000,1.00985888671875,0.16463609039783478,0.03893674537539482,0.28022047877311707
1772537092037907200,1.0199072265625,0.10849931091070175,0.1409113109111786,0.3768588602542877
1772537092047955000,1.029954833984375,0.08339875191450119,0.294982373714447,0.30153802037239075
1772537092058004200,1.040004150390625,0.075202077627182,0.41818714141845703,0.011721104383468628
1772537092068052000,1.050052001953125,0.11615270376205444,0.4700724184513092,-0.4099411964416504
1772537092078100000,1.060099853515625,0.1485559195280075,0.4216462969779968,-0.772726833820343
1772537092088149000,1.07014892578125,0.15851880609989166,0.4088074862957001,-0.8851513862609863
1772537092098197000,1.080197021484375,0.1770179122686386,0.4082024097442627,-0.770037055015564
1772537092108246000,1.09024609375,0.15738163888454437,0.32503533363342285,-0.5147432088851929
1772537092118294000,1.1002939453125,0.1591169536113739,0.20398002862930298,-0.17120423913002014
1772537092128342300,1.11034228515625,0.11982280761003494,0.036805685609579086,0.19926276803016663
1772537092138391000,1.12039111328125,0.03591512516140938,-0.06296005845069885,0.5665528774261475
1772537092148439300,1.130439208984375,0.007406517397612333,-0.07409366965293884,0.8409287929534912
1772537092158487000,1.140487060546875,-0.10100650787353516,-0.22314094007015228,0.9211320281028748
1772537092168536000,1.1505361328125,-0.23973242938518524,-0.42518964409828186,0.8476991057395935
1772537092178584000,1.160583984375,-0.28933992981910706,-0.5156018137931824,0.6503082513809204
1772537092188633000,1.170633056640625,-0.26542234420776367,-0.471322238445282,0.40499410033226013
1772537092198681000,1.18068115234375,-0.23056477308273315,-0.2565995752811432,0.18713180720806122
1772537092208729000,1.19072900390625,-0.1795330047607422,0.0788082629442215,0.056403353810310364
1772537092218778000,1.200778076171875,-0.1448727697134018,0.3572438955307007,0.03002101555466652
1772537092228826000,1.210826171875,-0.13943591713905334,0.4138754606246948,0.06356485933065414
1772537092238873900,1.220873779296875,-0.162736713886261,0.29001185297966003,0.15685778856277466
1772537092248923100,1.230923095703125,-0.19308903813362122,0.06825868040323257,0.256883442401886
1772537092258971000,1.240970947265625,-0.23538349568843842,-0.17005135118961334,0.33682650327682495
1772537092269020200,1.251020263671875,-0.2429679036140442,-0.28083938360214233,0.41529732942581177
1772537092279068000,1.26106787109375,-0.24106773734092712,-0.25928935408592224,0.43759676814079285
1772537092289116200,1.2711162109375,-0.24629712104797363,-0.09207959473133087,0.390582412481308
1772537092299165000,1.2811650390625,-0.1963905543088913,0.2560264468193054,0.3024623990058899
1772537092309213200,1.291213134765625,-0.14150573313236237,0.577186107635498,0.19230392575263977
1772537092319261200,1.30126123046875,-0.09597819298505783,0.7673618793487549,0.07143210619688034
1772537092329310000,1.31131005859375,-0.058930959552526474,0.8068411350250244,-0.013499829918146133
1772537092339358200,1.321358154296875,-0.03870345279574394,0.7194156646728516,0.0358557365834713
1772537092349406000,1.331406005859375,-0.0538397952914238,0.48051467537879944,0.16116997599601746
1772537092359455200,1.341455322265625,-0.10721699893474579,0.032346755266189575,0.1770557314157486
1772537092369503000,1.3515029296875,-0.2132614105939865,-0.6084185838699341,-0.059118978679180145
1772537092379552000,1.361552001953125,-0.35296496748924255,-1.2214457988739014,-0.5120846033096313
1772537092389600000,1.37160009765625,-0.46860477328300476,-1.4728665351867676,-0.9972933530807495
1772537092399648000,1.38164794921875,-0.5364565253257751,-1.2165324687957764,-1.3821731805801392
1772537092409697000,1.391697021484375,-0.523386538028717,-0.5560746788978577,-1.5529334545135498
1772537092419745000,1.4017451171875,-0.4263728857040405,0.30256572365760803,-1.4504179954528809
1772537092429793000,1.41179296875,-0.28671857714653015,0.9366425275802612,-1.1922146081924438
1772537092439842000,1.421842041015625,-0.13279347121715546,1.0781540870666504,-1.001068353652954
1772537092449890000,1.43189013671875,0.04323988035321236,0.979771077632904,-0.820914626121521
1772537092459939000,1.44193896484375,0.11185462772846222,0.6791004538536072,-0.5349488854408264
1772537092469987000,1.451987060546875,0.06073365360498428,0.2536858022212982,-0.2093936949968338
1772537092480035000,1.46203515625,-0.004396346397697926,-0.04850734770298004,0.01179514080286026
1772537092490084000,1.472083984375,-0.06801393628120422,-0.1259419471025467,0.05572265014052391
1772537092500132000,1.482132080078125,-0.12623010575771332,0.028612470254302025,-0.023192403838038445
1772537092510180000,1.49218017578125,-0.1480557769536972,0.28340187668800354,-0.11657987534999847
1772537092520229000,1.50222900390625,-0.12095971405506134,0.48771587014198303,-0.2257859855890274
1772537092530277000,1.512277099609375,-0.08813651651144028,0.5535710453987122,-0.33977195620536804
1772537092540325000,1.5223251953125,-0.04839709401130676,0.5630053281784058,-0.3834581673145294
1772537092550374100,1.5323740234375,0.012467854656279087,0.49640682339668274,-0.3364675045013428
1772537092560422000,1.542421875,0.08879432082176208,0.339962899684906,-0.14599955081939697
1772537092570471200,1.55247119140625,0.18711796402931213,0.0768124908208847,0.1661897748708725
1772537092580519000,1.562518798828125,0.2643299102783203,-0.2571987807750702,0.4833746552467346
1772537092590567200,1.572567138671875,0.2858021855354309,-0.5042551755905151,0.7656830549240112
1772537092600616000,1.582615966796875,0.20502878725528717,-0.6084822416305542,0.9372223019599915
1772537092610664200,1.592664306640625,0.10734429955482483,-0.6114596724510193,0.9691943526268005
1772537092620712000,1.6027119140625,0.09228518605232239,-0.5521731376647949,0.8699823021888733
1772537092630761200,1.61276123046875,0.13939358294010162,-0.4831402897834778,0.6709725260734558
1772537092640809000,1.62280908203125,0.20627620816230774,-0.326968789100647,0.45960938930511475
1772537092650858200,1.632858154296875,0.27396735548973083,-0.10560179501771927,0.2749711275100708
1772537092660906000,1.642906005859375,0.30953043699264526,0.08532635122537613,0.11690744757652283
1772537092670954000,1.6529541015625,0.32920798659324646,0.11561767756938934,0.017314275726675987
1772537092681003000,1.6630029296875,0.3356720209121704,-0.08283975720405579,-0.029099561274051666
1772537092691051000,1.673051025390625,0.3596135675907135,-0.39495769143104553,-0.0439315065741539
1772537092701099300,1.683099365234375,0.40460819005966187,-0.6887528300285339,-0.04512966051697731
1772537092711148000,1.69314794921875,0.4132629334926605,-0.8083956241607666,-0.024408137425780296
1772537092721196000,1.703196044921875,0.410647451877594,-0.7431671023368835,0.02034894749522209
1772537092731244000,1.713244140625,0.4130179286003113,-0.5648122429847717,0.08840762823820114
1772537092741293000,1.72329296875,0.41440197825431824,-0.35857412219047546,0.1476922482252121
1772537092751341000,1.733341064453125,0.3647635877132416,-0.19926942884922028,0.20267906785011292
1772537092761390000,1.74339013671875,0.2524293065071106,-0.11618972569704056,0.22806724905967712
1772537092771438000,1.75343798828125,0.1200084313750267,-0.11139896512031555,0.23626846075057983
1772537092781486000,1.763486083984375,0.011055580340325832,-0.16466137766838074,0.25726109743118286
1772537092791535000,1.77353515625,-0.07558530569076538,-0.20521280169487,0.30608776211738586
1772537092801583000,1.7835830078125,-0.1071525514125824,-0.20563837885856628,0.3999072015285492
1772537092811630800,1.793630859375,-0.12655501067638397,-0.23377200961112976,0.5149690508842468
1772537092821680000,1.80368017578125,-0.1485452651977539,-0.21648836135864258,0.6482238173484802
1772537092831727900,1.813727783203125,-0.1659943014383316,-0.13345445692539215,0.768770158290863
1772537092841777200,1.823777099609375,-0.1923777014017105,-0.10485131293535233,0.8141126036643982
1772537092851825000,1.833824951171875,-0.2161189764738083,-0.12347346544265747,0.7927095890045166
1772537092861873200,1.843873046875,-0.23578882217407227,-0.1039532944560051,0.7191413640975952
1772537092871922000,1.853921875,-0.2680889666080475,-0.03861503675580025,0.6115179657936096
1772537092881970200,1.86397021484375,-0.3092705011367798,-0.00512738386169076,0.48089471459388733
1772537092892018200,1.87401806640625,-0.3412390947341919,0.025305356830358505,0.32017427682876587
1772537092902067000,1.88406689453125,-0.361405611038208,0.05966838821768761,0.16953390836715698
1772537092912115200,1.894115234375,-0.37019455432891846,0.06391240656375885,0.03341042250394821
1772537092922164000,1.9041640625,-0.3613547384738922,0.06782325357198715,-0.07542045414447784
1772537092932212200,1.914212158203125,-0.31628525257110596,0.12184121459722519,-0.11429648101329803
1772537092942260000,1.924260009765625,-0.28385329246520996,0.2731598913669586,-0.09014001488685608
1772537092952309200,1.934309326171875,-0.20151287317276,0.37330248951911926,-0.0704355537891388
1772537092962357000,1.94435693359375,-0.1382705271244049,0.417632132768631,-0.029675336554646492
1772537092972405000,1.954405029296875,-0.07754645496606827,0.3176381587982178,0.024144217371940613
1772537092982454000,1.9644541015625,-0.022273879498243332,0.11911866813898087,0.055439289659261703
1772537092992502000,1.974501953125,0.020805146545171738,-0.05265149474143982,0.09799473732709885
1772537093002551000,1.984551025390625,0.06578008085489273,-0.1773180514574051,0.13755600154399872
1772537093012599000,1.99459912109375,0.04301271587610245,-0.39361199736595154,0.0036040558479726315
1772537093022647000,2.00464697265625,-0.015096128918230534,-0.657374918460846,-0.2861239016056061
1772537093032697000,2.014697021484375,-0.1047394648194313,-0.861491322517395,-0.7183224558830261
1772537093042745000,2.0247451171875,-0.20605596899986267,-0.8414893746376038,-1.2106128931045532
1772537093052793000,2.03479296875,-0.26573580503463745,-0.43386489152908325,-1.5487756729125977
1772537093062842000,2.044842041015625,-0.2353648543357849,0.2606358528137207,-1.5584776401519775
1772537093072890000,2.05489013671875,-0.04661943390965462,0.8153606057167053,-1.210129737854004
1772537093082937900,2.064937744140625,0.2132992297410965,0.864264726638794,-0.6965715885162354
1772537093092987100,2.074987060546875,0.42518350481987,0.3045678734779358,-0.2462662309408188
1772537093103035000,2.085034912109375,0.468519002199173,-0.5033390522003174,-0.007425691932439804
1772537093113084200,2.095084228515625,0.3440881371498108,-1.1684914827346802,-0.04957367852330208
1772537093123132000,2.1051318359375,0.14355424046516418,-1.3059183359146118,-0.23033706843852997
1772537093133180200,2.11518017578125,0.014302506111562252,-0.7791978120803833,-0.37919071316719055
1772537093143229000,2.12522900390625,0.03020956739783287,0.02864203043282032,-0.5528820753097534
1772537093153277200,2.135277099609375,0.1852761209011078,0.7284762859344482,-0.7453290224075317
1772537093163325200,2.1453251953125,0.3602396845817566,1.1066923141479492,-0.9238649606704712
1772537093173374000,2.1553740234375,0.4473327696323395,1.0779320001602173,-1.0901581048965454
1772537093183422200,2.165422119140625,0.4404311776161194,0.8184642195701599,-1.1917365789413452
1772537093193470000,2.175469970703125,0.33378836512565613,0.4200899600982666,-1.2074865102767944
1772537093203519200,2.185519287109375,0.19107940793037415,0.12650761008262634,-1.0239074230194092
1772537093213567000,2.19556689453125,0.09711669385433197,0.050098855048418045,-0.6564750671386719
1772537093223616000,2.205615966796875,0.09492384642362595,0.08950884640216827,-0.24742896854877472
1772537093233664000,2.2156640625,0.1963849663734436,0.17987602949142456,0.1014147698879242
1772537093243712000,2.2257119140625,0.3129424750804901,0.2037334144115448,0.3013705015182495
1772537093253761000,2.235760986328125,0.37399914860725403,0.1714865267276764,0.3559940755367279
1772537093263809000,2.24580908203125,0.3925746977329254,0.16798287630081177,0.2890531122684479
1772537093273857000,2.25585693359375,0.37730732560157776,0.2740960121154785,0.14036110043525696
1772537093283906000,2.265906005859375,0.3762519359588623,0.5261740684509277,-0.037883199751377106
1772537093293954000,2.2759541015625,0.3776727318763733,0.7967211008071899,-0.22456014156341553
1772537093304003000,2.286003173828125,0.3860747218132019,1.0312981605529785,-0.4089808464050293
1772537093314051000,2.296051025390625,0.41190287470817566,1.0996218919754028,-0.5888200998306274
1772537093324099000,2.30609912109375,0.4232069253921509,0.9162704348564148,-0.7451199889183044
1772537093334148000,2.316148193359375,0.418937087059021,0.5500599145889282,-0.812696635723114
1772537093344196000,2.326196044921875,0.3906923830509186,0.13905616104602814,-0.7386389374732971
1772537093354244000,2.336244140625,0.39806535840034485,-0.1467582881450653,-0.4971522390842438
1772537093364293000,2.346293212890625,0.4195903539657593,-0.3178216516971588,-0.19553594291210175
1772537093374341000,2.356341064453125,0.4020305275917053,-0.2782992720603943,0.08729096502065659
1772537093384390100,2.36639013671875,0.40997472405433655,-0.15396346151828766,0.31879183650016785
1772537093394438100,2.376438232421875,0.3826104998588562,-0.020505541935563087,0.47172811627388
1772537093404486000,2.38648583984375,0.3092723488807678,0.09006357938051224,0.5032604932785034
1772537093414535200,2.39653515625,0.23343618214130402,0.2153269648551941,0.4463340640068054
1772537093424583000,2.4065830078125,0.12361088395118713,0.28718435764312744,0.3287328779697418
1772537093434631200,2.416631103515625,0.009127185679972172,0.31264418363571167,0.20027850568294525
1772537093444680000,2.426679931640625,-0.07602232694625854,0.3577195107936859,0.12076769769191742
1772537093454728200,2.436728271484375,-0.11574284732341766,0.4211389720439911,0.08005248755216599
1772537093464777000,2.44677685546875,-0.11429781466722488,0.42830315232276917,0.030963242053985596
1772537093474825200,2.4568251953125,-0.08798018842935562,0.42263779044151306,-0.03714310750365257
1772537093484873000,2.466873046875,-0.045341115444898605,0.4309479296207428,-0.06727304309606552
1772537093494922200,2.476922119140625,-0.010326673276722431,0.4046638607978821,-0.041367944329977036
1772537093504970000,2.486969970703125,0.007256847806274891,0.2824934720993042,0.030588269233703613
1772537093515018000,2.49701806640625,-0.026851586997509003,0.14306820929050446,0.10791128873825073
1772537093525067000,2.50706689453125,-0.07483083009719849,0.1699349731206894,0.19409091770648956
1772537093535115000,2.517114990234375,-0.10995552688837051,0.2841094732284546,0.2641464173793793
1772537093545163300,2.527163330078125,-0.10273809731006622,0.41619348526000977,0.2980026602745056
1772537093555212000,2.5372119140625,-0.056702692061662674,0.49693921208381653,0.3169774115085602
1772537093565260000,2.547260009765625,0.004883971065282822,0.464110404253006,0.3469869792461395
1772537093575309000,2.55730908203125,0.044491302222013474,0.3108508288860321,0.36429858207702637
1772537093585357000,2.567357177734375,0.044862281531095505,0.2127724587917328,0.3638269603252411
1772537093595405000,2.577405029296875,0.03376488760113716,0.20144788920879364,0.36924728751182556
1772537093605454000,2.5874541015625,0.04825780913233757,0.26814010739326477,0.3799191117286682
1772537093615502000,2.597502197265625,0.09867358207702637,0.3399359881877899,0.37653157114982605
1772537093625550000,2.607550048828125,0.17647090554237366,0.23332913219928741,0.3197292685508728
1772537093635599000,2.61759912109375,0.2429111748933792,-0.17868691682815552,0.12699416279792786
1772537093645647000,2.627647216796875,0.2602566182613373,-0.78827303647995,-0.18172186613082886
1772537093655694800,2.63769482421875,0.20632733404636383,-1.2506390810012817,-0.49814721941947937
1772537093665744100,2.647744140625,0.06990505009889603,-1.3454465866088867,-0.671787679195404
1772537093675792000,2.6577919921875,-0.143026664853096,-1.0828460454940796,-0.625822901725769
1772537093685841200,2.667841064453125,-0.31227800250053406,-0.5830903053283691,-0.4251326620578766
1772537093695889000,2.677888916015625,-0.3583530783653259,-0.13175855576992035,-0.2977510094642639
1772537093705937200,2.687937255859375,-0.3133810758590698,0.06503865122795105,-0.3715788722038269
1772537093715986000,2.69798583984375,-0.27186667919158936,0.08593913912773132,-0.542373538017273
1772537093726034200,2.7080341796875,-0.2695254683494568,0.06974180042743683,-0.6370784640312195
1772537093736082200,2.718082275390625,-0.3262273669242859,0.032700154930353165,-0.6107981204986572
1772537093746131000,2.728130859375,-0.3630999028682709,-0.012411396019160748,-0.4401097297668457
1772537093756179200,2.73817919921875,-0.3704289197921753,-0.09472917020320892,-0.2495214194059372
1772537093766228000,2.74822802734375,-0.34387215971946716,-0.18674831092357635,-0.12202443927526474
1772537093776276200,2.758276123046875,-0.30874693393707275,-0.23677952587604523,-0.07294771075248718
1772537093786324000,2.768323974609375,-0.27564382553100586,-0.16918902099132538,-0.08592529594898224
1772537093796373200,2.778373291015625,-0.25961798429489136,-0.11752476543188095,-0.19459158182144165
1772537093806421000,2.7884208984375,-0.2385486513376236,-0.1739020198583603,-0.33504244685173035
1772537093816469000,2.798468994140625,-0.20472916960716248,-0.31166866421699524,-0.4374596178531647
1772537093826518000,2.80851806640625,-0.1759270876646042,-0.4179205596446991,-0.4652973711490631
1772537093836566000,2.81856591796875,-0.12771429121494293,-0.4529517590999603,-0.4296376407146454
1772537093846615000,2.828614990234375,-0.04228007793426514,-0.5187259912490845,-0.37284788489341736
1772537093856663000,2.8386630859375,0.10801941156387329,-0.6093642711639404,-0.31119436025619507
1772537093866711000,2.8487109375,0.3116236627101898,-0.7351126074790955,-0.23219116032123566
1772537093876760000,2.858760009765625,0.455363005399704,-0.9465974569320679,-0.15374189615249634
1772537093886808000,2.86880810546875,0.4797125458717346,-0.9344204068183899,-0.06045961380004883
1772537093896856000,2.87885595703125,0.44991761445999146,-0.7177243232727051,-0.0564345121383667
1772537093906904800,2.88890478515625,0.4101289212703705,-0.4437502920627594,-0.13470375537872314
1772537093916953000,2.898953125,0.4165961444377899,-0.18850067257881165,-0.35087093710899353
1772537093927001000,2.9090009765625,0.47776442766189575,-0.005297826137393713,-0.668429970741272
1772537093937050000,2.919050048828125,0.5489861369132996,-0.0167989544570446,-1.0086338520050049
1772537093947098000,2.92909814453125,0.7122240662574768,-0.1264633983373642,-1.2115800380706787
1772537093957147100,2.939147216796875,0.8232176899909973,-0.31226813793182373,-1.1281933784484863
1772537093967195100,2.949195068359375,0.7192854285240173,-0.5017062425613403,-0.8345814347267151
1772537093977243000,2.959242919921875,0.5343299508094788,-0.4355432093143463,-0.31709274649620056
1772537093987292200,2.969292236328125,0.331339567899704,-0.23511797189712524,0.258073091506958
1772537093997340000,2.97933984375,0.18051891028881073,-0.010161823593080044,0.7603048086166382
1772537094007388200,2.98938818359375,0.11998552829027176,0.15723809599876404,1.1147297620773315
1772537094017437000,2.99943701171875,0.14182265102863312,0.2662348747253418,1.301722764968872
1772537094027483600,3.009483642578125,0.19816048443317413,0.28083673119544983,1.285652995109558
1772537094037533000,3.019532958984375,0.2318638563156128,0.24048078060150146,1.0980000495910645
1772537094047580700,3.02958056640625,0.22038084268569946,0.22558359801769257,0.8280846476554871
1772537094057628700,3.039628662109375,0.17534944415092468,0.2699614465236664,0.5519981980323792
1772537094067677700,3.049677734375,0.09019008278846741,0.32361480593681335,0.28580859303474426
1772537094077725700,3.0597255859375,-0.006962035782635212,0.41511598229408264,0.11307142674922943
1772537094087773700,3.069773681640625,-0.08561237156391144,0.5639739036560059,0.07669078558683395
1772537094097822700,3.07982275390625,-0.11876073479652405,0.6582719087600708,0.13760420680046082
1772537094107870700,3.08987060546875,-0.10524626076221466,0.6698132157325745,0.26159167289733887
1772537094117919700,3.099919677734375,-0.06816014647483826,0.588913083076477,0.3938588798046112
1772537094127967700,3.1099677734375,-0.07088296115398407,0.4511181712150574,0.5033867359161377
1772537094138015700,3.120015625,-0.07894302159547806,0.3484272360801697,0.5919903516769409
1772537094148064500,3.130064453125,-0.09419334679841995,0.3226531445980072,0.6517109274864197
1772537094158112800,3.14011279296875,-0.1114218682050705,0.37539705634117126,0.6801705360412598
1772537094168160800,3.150160888671875,-0.10260094702243805,0.4393123984336853,0.6744889616966248
1772537094178209800,3.160209716796875,-0.06031234189867973,0.4969322681427002,0.5952532291412354
1772537094188257800,3.1702578125,-0.010910172015428543,0.5211976766586304,0.4486401081085205
1772537094198306800,3.180306884765625,0.007764712441712618,0.6082977056503296,0.32786229252815247
1772537094208354800,3.190354736328125,0.015487080439925194,0.6973457932472229,0.2582653760910034
1772537094218402600,3.200402587890625,-0.0005462143453769386,0.6568982601165771,0.17856840789318085
1772537094228451800,3.210451904296875,-0.02786998078227043,0.4239124059677124,0.06944485753774643
1772537094238499600,3.22049951171875,-0.06456993520259857,0.011530156247317791,-0.10631072521209717
1772537094248547800,3.2305478515625,-0.07856485247612,-0.3678304851055145,-0.32387953996658325
1772537094258596600,3.2405966796875,-0.10586971044540405,-0.5834863185882568,-0.4489423632621765
1772537094268644900,3.250644775390625,-0.17669275403022766,-0.5664117336273193,-0.3521367311477661
1772537094278692600,3.260692626953125,-0.2601620852947235,-0.49071139097213745,-0.14559075236320496
1772537094288742000,3.270741943359375,-0.37969619035720825,-0.543721079826355,-0.08018404990434647
1772537094298789600,3.28078955078125,-0.4575856626033783,-0.5616441369056702,-0.2411220669746399
1772537094308838700,3.290838623046875,-0.468996524810791,-0.4063003659248352,-0.4965977668762207
1772537094318886700,3.30088671875,-0.47819188237190247,-0.1260434240102768,-0.676636815071106
1772537094328934700,3.3109345703125,-0.46733149886131287,0.26377731561660767,-0.730445146560669
1772537094338983700,3.320983642578125,-0.41795703768730164,0.6495718955993652,-0.7103321552276611
1772537094349031700,3.33103173828125,-0.3030208647251129,0.9233163595199585,-0.6077134013175964
1772537094359080000,3.341079833984375,-0.2708626687526703,0.9481865167617798,-0.5273162722587585
1772537094369128700,3.351128662109375,-0.3166956603527069,0.7315546274185181,-0.466348797082901
1772537094379176700,3.3611767578125,-0.378440260887146,0.3179191052913666,-0.3933987021446228
1772537094389225700,3.371225830078125,-0.41495004296302795,-0.1539112627506256,-0.3066488802433014
1772537094399273700,3.381273681640625,-0.3930546045303345,-0.5198330879211426,-0.190885528922081
1772537094409321700,3.39132177734375,-0.2822500765323639,-0.7687911987304688,-0.07719758152961731
1772537094419370800,3.401370849609375,-0.1622975617647171,-0.8626263737678528,0.050221092998981476
1772537094429418800,3.411418701171875,-0.07066377997398376,-0.7488113641738892,0.18796004354953766
1772537094439466800,3.421466796875,0.013047625310719013,-0.5350032448768616,0.3309566080570221
1772537094449515800,3.431515869140625,0.04722876474261284,-0.3789968490600586,0.4686281979084015
1772537094459563800,3.441563720703125,0.06107160821557045,-0.2976306080818176,0.578226625919342
1772537094469611500,3.451611572265625,0.09215842187404633,-0.30999886989593506,0.6513231992721558
1772537094479660800,3.461660888671875,0.11312655359506607,-0.40795767307281494,0.6822313070297241
1772537094489708500,3.47170849609375,0.10487688332796097,-0.5384770631790161,0.6401637196540833
1772537094499757800,3.4817578125,0.0662221610546112,-0.6501359343528748,0.4934765696525574
1772537094509805600,3.4918056640625,0.04177301377058029,-0.756141722202301,0.2945096492767334
1772537094519853800,3.501853759765625,0.050490602850914,-0.8449522852897644,0.10671979188919067
1772537094529902600,3.511902587890625,0.09774120897054672,-0.8692027926445007,-0.025300296023488045
1772537094539950600,3.52195068359375,0.1583494246006012,-0.8310873508453369,-0.10932435840368271
1772537094549998800,3.531998779296875,0.20363540947437286,-0.6825628280639648,-0.15544044971466064
1772537094560047600,3.542047607421875,0.2238602638244629,-0.4013998806476593,-0.1706356555223465
1772537094570095900,3.552095947265625,0.20984430611133575,-0.09470174461603165,-0.17496755719184875
1772537094580144600,3.56214453125,0.15547826886177063,0.17620033025741577,-0.1719246208667755
1772537094590193000,3.57219287109375,0.09713879972696304,0.3664722740650177,-0.15676458179950714
1772537094600240600,3.58224072265625,0.04318368807435036,0.41967904567718506,-0.13321025669574738
1772537094610290000,3.5922900390625,-0.014218617230653763,0.345866858959198,-0.09205961972475052
1772537094620337700,3.602337646484375,-0.08127222210168839,0.1910269409418106,-0.0448811873793602
1772537094630385700,3.6123857421875,-0.13654638826847076,0.010360228829085827,-0.005019259639084339
1772537094640434700,3.6224345703125,-0.17988747358322144,-0.15782319009304047,0.01931777223944664
1772537094650482700,3.632482666015625,-0.19492261111736298,-0.24795867502689362,0.03894473612308502
1772537094660531700,3.64253173828125,-0.18974463641643524,-0.20453104376792908,0.07984822988510132
1772537094670579700,3.652579833984375,-0.17987921833992004,-0.0716978907585144,0.11700545251369476
1772537094680627700,3.662627685546875,-0.17056268453598022,0.0940423458814621,0.1512283980846405
1772537094690676700,3.6726767578125,-0.17288069427013397,0.2789924740791321,0.18145820498466492
1772537094700724500,3.682724365234375,-0.18593578040599823,0.4187360107898712,0.20450334250926971
1772537094710772700,3.692772705078125,-0.19631145894527435,0.46679621934890747,0.2111354023218155
1772537094720821500,3.702821533203125,-0.20563571155071259,0.4541909396648407,0.18958191573619843
1772537094730869800,3.712869873046875,-0.20286469161510468,0.4280080795288086,0.15741732716560364
1772537094740917800,3.722917724609375,-0.18751557171344757,0.38623663783073425,0.12529747188091278
1772537094750966800,3.732966796875,-0.1804526001214981,0.333352655172348,0.09042070806026459
1772537094761014800,3.743014892578125,-0.16521133482456207,0.3230701982975006,0.09469588100910187
1772537094771063800,3.753063720703125,-0.14874207973480225,0.37032079696655273,0.13834775984287262
1772537094781111800,3.76311181640625,-0.12864506244659424,0.41265013813972473,0.23379038274288177
1772537094791159600,3.77315966796875,-0.10814404487609863,0.36576786637306213,0.3433704078197479
1772537094801208800,3.783208740234375,-0.0880741998553276,0.21831795573234558,0.42479681968688965
1772537094811256600,3.793256591796875,-0.07838162034749985,-0.0756196603178978,0.40532833337783813
1772537094821304800,3.803304931640625,-0.11090628057718277,-0.5281423926353455,0.2524498403072357
1772537094831353600,3.813353515625,-0.14519713819026947,-1.0131367444992065,-0.017313210293650627
1772537094841401900,3.82340185546875,-0.1502624750137329,-1.2797231674194336,-0.28934311866760254
1772537094851450600,3.83345068359375,-0.1428506225347519,-1.2166467905044556,-0.47701770067214966
1772537094861499000,3.843498779296875,-0.12481570243835449,-0.8985604047775269,-0.5246267318725586
1772537094871546600,3.853546630859375,-0.12245054543018341,-0.483417809009552,-0.48484206199645996
1772537094881595600,3.863595703125,-0.13404355943202972,-0.10651978850364685,-0.4335322678089142
1772537094891643600,3.8736435546875,-0.14575746655464172,0.10571257770061493,-0.424244225025177
1772537094901691600,3.883691650390625,-0.15302284061908722,0.08540917187929153,-0.43609368801116943
1772537094911740700,3.89374072265625,-0.17086735367774963,-0.08891868591308594,-0.4048830270767212
1772537094921788700,3.90378857421875,-0.21442441642284393,-0.2913135886192322,-0.3873453140258789
1772537094931837700,3.913837646484375,-0.28436514735221863,-0.4318062663078308,-0.43554267287254333
1772537094941885700,3.9238857421875,-0.3628000319004059,-0.49639883637428284,-0.5792700052261353
1772537094951933700,3.93393359375,-0.43602684140205383,-0.46592801809310913,-0.7730725407600403
1772537094961982700,3.943982666015625,-0.47653353214263916,-0.2641770541667938,-0.8958415985107422
1772537094972030700,3.95403076171875,-0.47647759318351746,0.03742513433098793,-0.9090865254402161
1772537094982078700,3.96407861328125,-0.43254584074020386,0.31652653217315674,-0.8186671733856201
1772537094992127700,3.974127685546875,-0.3486599922180176,0.46456819772720337,-0.6590479612350464
1772537095002175700,3.98417578125,-0.24130690097808838,0.45057782530784607,-0.5029515624046326
1772537095012223700,3.9942236328125,-0.15448251366615295,0.28615427017211914,-0.36397263407707214
1772537095022272800,4.004272705078125,-0.10465903580188751,0.03323492035269737,-0.23118528723716736
1772537095032321000,4.014321044921875,-0.08975012600421906,-0.1724330186843872,-0.07292507588863373
1772537095042369800,4.024369873046875,-0.056764744222164154,-0.2880895733833313,0.07351496070623398
1772537095052418000,4.03441796875,0.0025768745690584183,-0.3514310121536255,0.17981663346290588
1772537095062465800,4.0444658203125,0.09956999868154526,-0.320122092962265,0.257813960313797
1772537095072515000,4.05451513671875,0.20445699989795685,-0.22032730281352997,0.3029140532016754
1772537095082562800,4.064562744140625,0.2979123890399933,-0.09860859811306,0.3205133080482483
1772537095092610800,4.07461083984375,0.35947880148887634,0.023484287783503532,0.32531365752220154
1772537095102659800,4.084659912109375,0.4006938934326172,0.08406054973602295,0.3181324303150177
1772537095112707800,4.094707763671875,0.42570868134498596,0.052263472229242325,0.2886027693748474
1772537095122756900,4.1047568359375,0.48509371280670166,-0.017316939309239388,0.22211270034313202
1772537095132804900,4.114804931640625,0.5902342796325684,-0.06783150881528854,0.13875176012516022
1772537095142853000,4.12485302734375,0.6970552206039429,-0.08008737862110138,0.041915491223335266
1772537095152902000,4.13490185546875,0.7864346504211426,-0.06370148062705994,-0.040773261338472366
1772537095162950100,4.1449501953125,0.8649928569793701,-0.037390515208244324,-0.11147512495517731
1772537095172998000,4.154997802734375,0.9092628359794617,0.004680771846324205,-0.18585428595542908
1772537095183047000,4.165046875,0.884885847568512,0.09165641665458679,-0.23800776898860931
1772537095193095000,4.175094970703125,0.791175901889801,0.20562613010406494,-0.24571974575519562
1772537095203143000,4.185142822265625,0.656687319278717,0.35062646865844727,-0.1689663827419281
1772537095213192000,4.19519189453125,0.5173584818840027,0.4789319634437561,-0.010988202877342701
1772537095223240000,4.205239990234375,0.39139360189437866,0.5574139952659607,0.15839417278766632
1772537095233289000,4.2152890625,0.28439390659332275,0.5751373171806335,0.3225005567073822
1772537095243337000,4.2253369140625,0.20332728326320648,0.503754198551178,0.45548415184020996
1772537095253384700,4.235384765625,0.15062998235225677,0.37816089391708374,0.5587514042854309
1772537095263434000,4.24543408203125,0.12804079055786133,0.2308260202407837,0.638092041015625
1772537095273481700,4.255481689453125,0.11983372271060944,0.08598042279481888,0.6751861572265625
1772537095283530000,4.265530029296875,0.10987749695777893,-0.01330089196562767,0.6719059348106384
1772537095293578800,4.275578857421875,0.09948291629552841,-0.025411883369088173,0.6327473521232605
1772537095303627000,4.285626953125,0.07571206986904144,0.0377441830933094,0.5740838050842285
1772537095313675800,4.29567578125,0.043234024196863174,0.15369582176208496,0.49737250804901123
1772537095323724000,4.30572412109375,-0.01164333987981081,0.3037870526313782,0.40485242009162903
1772537095333772000,4.31577197265625,-0.0728563666343689,0.5062232613563538,0.3263927698135376
1772537095343820800,4.32582080078125,-0.098440021276474,0.6299049854278564,0.2463860809803009
1772537095353869000,4.335869140625,-0.09832070767879486,0.6645058393478394,0.17200452089309692
1772537095363916800,4.345916748046875,-0.10134392976760864,0.6713176369667053,0.12553980946540833
1772537095373966000,4.355966064453125,-0.08867207914590836,0.6987828612327576,0.12225480377674103
1772537095384013800,4.366013916015625,-0.07284331321716309,0.7237153649330139,0.14646267890930176
1772537095394063000,4.37606298828125,-0.0532003715634346,0.7305476665496826,0.18217486143112183
1772537095404110800,4.38611083984375,-0.024777252227067947,0.6968496441841125,0.2394099235534668
1772537095414158800,4.396158935546875,-0.007149522192776203,0.560982346534729,0.32321640849113464
1772537095424208000,4.406207763671875,-0.0020716730505228043,0.34172511100769043,0.40421032905578613
1772537095434256000,4.416255859375,-0.0006844323943369091,0.08705686777830124,0.46132874488830566
1772537095444304000,4.426303955078125,-0.008608668111264706,-0.19420409202575684,0.4325604736804962
1772537095454353000,4.436352783203125,-0.07626627385616302,-0.4765223264694214,0.2798635959625244
1772537095464401000,4.44640087890625,-0.18233145773410797,-0.6445661783218384,0.07258684933185577
1772537095474449000,4.456448974609375,-0.2797839641571045,-0.6112213134765625,-0.10919786244630814
1772537095484498000,4.466497802734375,-0.3490874171257019,-0.3890470862388611,-0.17890849709510803
1772537095494546000,4.4765458984375,-0.39617425203323364,-0.09663359820842743,-0.12811695039272308
1772537095504595000,4.486594970703125,-0.4256967008113861,0.0584702342748642,-0.09303966164588928
1772537095514643000,4.496642822265625,-0.41527122259140015,0.04436533525586128,-0.16840392351150513
1772537095524691000,4.50669091796875,-0.36263173818588257,-0.1281595677137375,-0.3750383257865906
1772537095534740000,4.516739990234375,-0.32378578186035156,-0.35533758997917175,-0.6522020101547241
1772537095544788000,4.5267880859375,-0.34460213780403137,-0.507847249507904,-0.8808661103248596
1772537095554836000,4.5368359375,-0.434967964887619,-0.5836544036865234,-1.0074232816696167
1772537095564885000,4.546885009765625,-0.5336761474609375,-0.5643824338912964,-1.0940449237823486
1772537095574932700,4.5569326171875,-0.5859636068344116,-0.40143316984176636,-1.1484224796295166
1772537095584982000,4.56698193359375,-0.5492226481437683,-0.14152011275291443,-1.1581445932388306
1772537095595029800,4.57702978515625,-0.411166250705719,0.16756023466587067,-1.0866667032241821
1772537095605078000,4.587078125,-0.23281274735927582,0.34661388397216797,-0.9792046546936035
1772537095615126800,4.597126708984375,-0.05029432848095894,0.3316439688205719,-0.824427604675293
1772537095625175000,4.607175048828125,0.09782802313566208,0.10825962573289871,-0.6351569890975952
1772537095635222800,4.617222900390625,0.19409491121768951,-0.24320146441459656,-0.43125125765800476
1772537095645272000,4.62727197265625,0.2587015926837921,-0.5766244530677795,-0.2343192845582962
1772537095655319800,4.63731982421875,0.3345303237438202,-0.8180511593818665,-0.06330546736717224
1772537095665369000,4.647369140625,0.3934210538864136,-0.9632318019866943,0.10229947417974472
1772537095675416800,4.657416748046875,0.4300011694431305,-0.9932107329368591,0.2700762152671814
1772537095685464800,4.66746484375,0.4197738468647003,-0.9323548674583435,0.41075798869132996
1772537095695513900,4.677513916015625,0.36388900876045227,-0.8243207931518555,0.5210695862770081
1772537095705561900,4.687561767578125,0.3076363801956177,-0.7003090977668762,0.6177386045455933
1772537095715610000,4.697610107421875,0.2714664041996002,-0.5591232180595398,0.6929411888122559
1772537095725659000,4.707658935546875,0.24361132085323334,-0.437621533870697,0.7398724555969238
1772537095735707100,4.71770703125,0.1946011781692505,-0.4135260581970215,0.7398863434791565
1772537095745755000,4.7277548828125,0.10652697831392288,-0.4823855459690094,0.6962528228759766
1772537095755804000,4.737803955078125,-0.006365487817674875,-0.610821008682251,0.6278404593467712
1772537095765852000,4.747851806640625,-0.11956607550382614,-0.7344444394111633,0.5740398168563843
1772537095775901000,4.75790087890625,-0.20622959733009338,-0.7494484186172485,0.5494756698608398
1772537095785949000,4.767948974609375,-0.25806376338005066,-0.6093509793281555,0.5547913312911987
1772537095795997000,4.777996826171875,-0.2782958149909973,-0.30755436420440674,0.5770223140716553
1772537095806046000,4.7880458984375,-0.2797679901123047,0.09766744077205658,0.6067472100257874
1772537095816094000,4.798093994140625,-0.2701958119869232,0.5032799243927002,0.6047607064247131
1772537095826142000,4.808141845703125,-0.23857076466083527,0.8690203428268433,0.5772659778594971
1772537095836191000,4.81819091796875,-0.18956167995929718,1.1439893245697021,0.5507315993309021
1772537095846239000,4.828239013671875,-0.14961132407188416,1.2038744688034058,0.5166361927986145
1772537095856288000,4.8382880859375,-0.12098394334316254,1.080179214477539,0.450138121843338
1772537095866335700,4.848335693359375,-0.09127239137887955,0.8697630763053894,0.3667164742946625
1772537095876384000,4.858384033203125,-0.06512254476547241,0.6235096454620361,0.312656432390213
1772537095886432800,4.868432861328125,-0.022670425474643707,0.414866179227829,0.32044512033462524
1772537095896481000,4.87848095703125,0.018130533397197723,0.29338446259498596,0.3737240433692932
1772537095906529000,4.888529052734375,0.061100639402866364,0.3077852427959442,0.446138858795166
1772537095916577800,4.898577880859375,0.1029207855463028,0.45717206597328186,0.521984338760376
1772537095926626000,4.9086259765625,0.17550018429756165,0.6491401791572571,0.5507976412773132
1772537095936673800,4.918673828125,0.2558693289756775,0.8649004101753235,0.5262802839279175
1772537095946723000,4.92872314453125,0.3300197124481201,1.083173394203186,0.4676244556903839
1772537095956770800,4.938770751953125,0.38700124621391296,1.2558537721633911,0.3854459524154663
1772537095966820000,4.948820068359375,0.4033397436141968,1.3051830530166626,0.31795480847358704
1772537095976867800,4.958867919921875,0.38626569509506226,1.1630021333694458,0.25850051641464233
1772537095986915800,4.968915771484375,0.3316575586795807,0.913783848285675,0.19674502313137054
1772537095996964900,4.97896484375,0.30249887704849243,0.7722679972648621,0.20119249820709229
1772537096007012900,4.989012939453125,0.3684784173965454,0.8335611820220947,0.3260321617126465
1772537096017061000,4.99906103515625,0.5304878354072571,0.9891635179519653,0.5302281975746155
1772537096027110100,5.009110107421875,0.7234125733375549,1.0893609523773193,0.7087656855583191
1772537096037158000,5.019157958984375,0.9093424677848816,0.8835121989250183,0.74350506067276
1772537096047207200,5.029207275390625,1.03019118309021,0.31893378496170044,0.5717665553092957
1772537096057255000,5.0392548828125,1.0480893850326538,-0.49448323249816895,0.21471762657165527
1772537096067303000,5.049302978515625,0.9085003733634949,-1.2881449460983276,-0.19374284148216248
1772537096077352000,5.05935205078125,0.6285068392753601,-1.7537094354629517,-0.5234882235527039
1772537096087400000,5.06939990234375,0.2747378349304199,-1.7224074602127075,-0.6979678869247437
1772537096097448200,5.0794482421875,-0.031194137409329414,-1.2738319635391235,-0.7216929197311401
1772537096107497000,5.0894970703125,-0.20689192414283752,-0.6090422868728638,-0.7046998739242554
1772537096117545200,5.099545166015625,-0.22258806228637695,0.09682241827249527,-0.7507275342941284
1772537096127594000,5.109593994140625,-0.15053650736808777,0.7095052599906921,-0.8303626775741577
1772537096137642200,5.119642333984375,-0.08026394993066788,1.0692908763885498,-0.8530336618423462
1772537096147690000,5.12968994140625,-0.07841704040765762,1.1294140815734863,-0.8122870326042175
1772537096157739300,5.1397392578125,-0.1556287407875061,1.0051387548446655,-0.6903589963912964
1772537096167787000,5.149787109375,-0.2573060989379883,0.831753134727478,-0.5034562349319458
1772537096177835000,5.1598349609375,-0.35797119140625,0.7134730815887451,-0.30052921175956726
1772537096187884000,5.169884033203125,-0.4206913113594055,0.5878350138664246,-0.1742285192012787
1772537096197932000,5.17993212890625,-0.42266735434532166,0.45266255736351013,-0.18135567009449005
1772537096207980000,5.18997998046875,-0.3705444931983948,0.33777856826782227,-0.28278109431266785
1772537096218029000,5.200029052734375,-0.2935485243797302,0.25050678849220276,-0.39770689606666565
1772537096228077000,5.2100771484375,-0.19803185760974884,0.16728299856185913,-0.4760035574436188
1772537096238126000,5.2201259765625,-0.11937087029218674,0.022403575479984283,-0.5159027576446533
1772537096248174000,5.230174072265625,-0.047795750200748444,-0.15078285336494446,-0.4963644742965698
1772537096258222000,5.24022216796875,0.032213594764471054,-0.341685950756073,-0.40204358100891113
1772537096268270800,5.250270751953125,0.12177170813083649,-0.526389479637146,-0.2650766670703888
1772537096278319000,5.260319091796875,0.19651173055171967,-0.647423267364502,-0.13991981744766235
1772537096288367000,5.2703671875,0.24829769134521484,-0.711683452129364,-0.04772358015179634
1772537096298416000,5.280416015625,0.2764955163002014,-0.7550511956214905,-0.0008604673203080893
1772537096308464000,5.290464111328125,0.26962587237358093,-0.793723464012146,0.0054512242786586285
1772537096318513200,5.30051318359375,0.25033074617385864,-0.7400485277175903,-0.02646702714264393
1772537096328561200,5.31056103515625,0.24291224777698517,-0.6192778944969177,-0.09810659289360046
1772537096338609000,5.32060888671875,0.25294438004493713,-0.48642823100090027,-0.20637713372707367
1772537096348658200,5.330658203125,0.2783466577529907,-0.3286284804344177,-0.339703232049942
1772537096358706000,5.340705810546875,0.2896624505519867,-0.14800411462783813,-0.42067664861679077
1772537096368754200,5.350754150390625,0.3159896433353424,0.02905908226966858,-0.40100282430648804
1772537096378803000,5.360802978515625,0.3479989767074585,0.16902416944503784,-0.29833343625068665
1772537096388851200,5.370851318359375,0.3694704473018646,0.2129540890455246,-0.12996625900268555
1772537096398899200,5.380899169921875,0.3689447343349457,0.11469995230436325,0.08526589721441269
1772537096408948000,5.390947998046875,0.3355311453342438,-0.11605975776910782,0.29918405413627625
1772537096418996000,5.400995849609375,0.2811770737171173,-0.35299161076545715,0.4653080403804779
1772537096429044000,5.4110439453125,0.21381507813930511,-0.4949548840522766,0.5631416440010071
1772537096439093000,5.421093017578125,0.14311587810516357,-0.5129980444908142,0.5916984677314758
1772537096449141000,5.43114111328125,0.08112947642803192,-0.38690856099128723,0.5676320195198059
1772537096459190000,5.44118994140625,0.02467072568833828,-0.17055709660053253,0.5032604932785034
1772537096469238000,5.451238037109375,-0.0246140006929636,0.06840728968381882,0.4308414161205292
1772537096479286000,5.4612861328125,-0.05703186243772507,0.28298163414001465,0.36424267292022705
1772537096489335000,5.4713349609375,-0.06861048936843872,0.4500427842140198,0.295138955116272
1772537096499383000,5.481383056640625,-0.06979239732027054,0.546771764755249,0.25313398241996765
1772537096509431000,5.49143115234375,-0.07168617099523544,0.5760619640350342,0.2627328336238861
1772537096519480000,5.50147998046875,-0.08429517596960068,0.5124638080596924,0.32019931077957153
1772537096529528000,5.511528076171875,-0.10109385848045349,0.3582889139652252,0.39187562465667725
1772537096539577000,5.5215771484375,-0.1282826066017151,0.21031782031059265,0.4507701098918915
1772537096549625000,5.531625,-0.16057449579238892,0.08929179608821869,0.4751470685005188
1772537096559673000,5.541673095703125,-0.19343124330043793,0.0007379619055427611,0.4462965130805969
1772537096569721900,5.551721923828125,-0.21895205974578857,0.0025995115283876657,0.3826563060283661
1772537096579770000,5.56177001953125,-0.22690264880657196,0.13323821127414703,0.3170914053916931
1772537096589818000,5.571818115234375,-0.21592271327972412,0.3609619140625,0.257438987493515
1772537096599867100,5.5818671875,-0.16394047439098358,0.6122996211051941,0.22616735100746155
1772537096609915100,5.5919150390625,-0.09382157027721405,0.7541416883468628,0.18714912235736847
1772537096619964200,5.601964111328125,-0.0006913566030561924,0.7174518704414368,0.13767370581626892
1772537096630012200,5.61201220703125,0.10498154163360596,0.431865930557251,-0.0023284016642719507
1772537096640060000,5.622059814453125,0.176910862326622,-0.03972078114748001,-0.23102310299873352
1772537096650109000,5.63210888671875,0.18804793059825897,-0.49254631996154785,-0.4731193482875824
1772537096660157000,5.642156982421875,0.14000077545642853,-0.8263067007064819,-0.6595321297645569
1772537096670205200,5.652205078125,0.02033429965376854,-1.040299415588379,-0.7053675055503845
1772537096680254000,5.66225390625,-0.162324458360672,-1.090972661972046,-0.5586811304092407
1772537096690302200,5.67230224609375,-0.31539416313171387,-0.9688997864723206,-0.3200390040874481
1772537096700350000,5.682349853515625,-0.374633252620697,-0.7969563007354736,-0.18191547691822052
1772537096710399200,5.692399169921875,-0.32798799872398376,-0.5412257313728333,-0.21071702241897583
1772537096720447000,5.702447021484375,-0.24267202615737915,-0.14006656408309937,-0.3613259792327881
1772537096730496300,5.712496337890625,-0.2025752067565918,0.23494353890419006,-0.5578523278236389
1772537096740544000,5.7225439453125,-0.25416943430900574,0.3988320827484131,-0.7582772970199585
1772537096750592000,5.732592041015625,-0.34458455443382263,0.38204696774482727,-0.9204049706459045
1772537096760641000,5.74264111328125,-0.40900853276252747,0.3350094258785248,-0.9849506616592407
1772537096770689000,5.75268896484375,-0.43303370475769043,0.35375621914863586,-0.9815040230751038
1772537096780737300,5.7627373046875,-0.41287118196487427,0.4137234091758728,-0.9332289099693298
1772537096790786000,5.7727861328125,-0.3649342954158783,0.44698628783226013,-0.8552147746086121
1772537096800834000,5.782833984375,-0.3027745187282562,0.43053755164146423,-0.7630292177200317
1772537096810882000,5.792882080078125,-0.2546890079975128,0.32470086216926575,-0.6516081094741821
1772537096820931000,5.80293115234375,-0.22773516178131104,0.15345214307308197,-0.5264022946357727
1772537096830979000,5.81297900390625,-0.1944427192211151,0.01641998626291752,-0.38155296444892883
1772537096841028000,5.823028076171875,-0.1304919570684433,-0.0914526879787445,-0.24988865852355957
1772537096851076000,5.833076171875,-0.038594264537096024,-0.20619390904903412,-0.15737444162368774
1772537096861124000,5.8431240234375,0.06583786755800247,-0.28598833084106445,-0.08442460000514984
1772537096871173000,5.853173095703125,0.16612106561660767,-0.3276369869709015,-0.011799135245382786
1772537096881221000,5.86322119140625,0.25956153869628906,-0.35386326909065247,0.08008258789777756
1772537096891268900,5.873268798828125,0.33972054719924927,-0.34139782190322876,0.1862819939851761
1772537096901318100,5.883318115234375,0.4052513539791107,-0.30347225069999695,0.3147425055503845
1772537096911366000,5.893365966796875,0.4682210087776184,-0.21961091458797455,0.45874252915382385
1772537096921415200,5.903415283203125,0.5576984286308289,-0.12287292629480362,0.584290623664856
1772537096931463000,5.913462890625,0.6925984621047974,-0.08470849692821503,0.6807093024253845
1772537096941511200,5.92351123046875,0.8323757648468018,-0.1127752810716629,0.7530133128166199
1772537096951560000,5.933559814453125,0.9701469540596008,0.07414746284484863,0.9721187949180603
1772537096961608000,5.94360791015625,1.0668386220932007,-0.01677951216697693,1.062700629234314
1772537096971656200,5.95365625,1.0359081029891968,-0.3244563639163971,1.0363914966583252
1772537096981705000,5.963705078125,1.0058170557022095,-0.40356531739234924,1.1062177419662476
1772537096991753200,5.973753173828125,0.8567631244659424,-0.4596000909805298,1.071531891822815
1772537097001802000,5.983802001953125,0.5847764015197754,-0.43817922472953796,0.9719626903533936
1772537097011850200,5.993850341796875,0.2503613829612732,-0.34311822056770325,0.843854546546936
1772537097021898000,6.00389794921875,-0.007278685458004475,-0.14037495851516724,0.6845210790634155
1772537097031947300,6.013947265625,-0.12887249886989594,0.19450609385967255,0.5563750863075256
1772537097041995500,6.02399560546875,-0.17759422957897186,0.5229132771492004,0.4952259957790375
1772537097052043500,6.03404345703125,-0.17655985057353973,0.7141058444976807,0.46563267707824707
1772537097062092500,6.044092529296875,-0.1587209403514862,0.7651466727256775,0.41377294063568115
1772537097072140500,6.054140625,-0.10023313015699387,0.7903186082839966,0.386732280254364
1772537097082188300,6.064188232421875,-0.03479446470737457,0.7991600632667542,0.39889413118362427
1772537097092237600,6.074237548828125,0.008026767522096634,0.7796947360038757,0.43045949935913086
1772537097102285300,6.084285400390625,0.020066119730472565,0.7112230062484741,0.4662920832633972
1772537097112334600,6.09433447265625,0.00802943017333746,0.6377807259559631,0.5027422308921814
1772537097122382300,6.10438232421875,-0.03393053635954857,0.5914755463600159,0.5265037417411804
1772537097132430300,6.114430419921875,-0.10200332850217819,0.5268430113792419,0.5286893844604492
1772537097142479400,6.124479248046875,-0.1834917962551117,0.44652554392814636,0.4873819053173065
1772537097152527400,6.13452734375,-0.25511112809181213,0.3524627089500427,0.424022912979126
1772537097162575400,6.144575439453125,-0.29745832085609436,0.26525670289993286,0.36507144570350647
1772537097172624400,6.154624267578125,-0.3126857280731201,0.23899047076702118,0.322407066822052
1772537097182672400,6.16467236328125,-0.3024948835372925,0.28831008076667786,0.269806444644928
1772537097192721400,6.174721435546875,-0.2562964856624603,0.3648988604545593,0.2151586413383484
1772537097202769400,6.184769287109375,-0.201981320977211,0.4314829707145691,0.15537893772125244
1772537097212817400,6.1948173828125,-0.11913464963436127,0.4875664710998535,0.126569926738739
1772537097222866400,6.204866455078125,-0.040286168456077576,0.46856772899627686,0.12501570582389832
1772537097232914400,6.21491455078125,0.00558118661865592,0.3160911202430725,0.12104307115077972
1772537097242962400,6.22496240234375,0.007407582364976406,0.03996419534087181,0.11322775483131409
1772537097253011500,6.235011474609375,-0.04661623761057854,-0.36961373686790466,0.10085497796535492
1772537097263059500,6.2450595703125,-0.1404564529657364,-0.78729647397995,0.09382050484418869
1772537097273108500,6.2551083984375,-0.21454958617687225,-1.076213002204895,0.07043395191431046
1772537097283156500,6.265156494140625,-0.2760576903820038,-1.222671627998352,-0.008069111965596676
1772537097293204500,6.27520458984375,-0.32950520515441895,-1.150640606880188,-0.11887099593877792
1772537097303253500,6.28525341796875,-0.3492831587791443,-0.8809888362884521,-0.26015356183052063
1772537097313301200,6.29530126953125,-0.3616389036178589,-0.5588302612304688,-0.4616243541240692
1772537097323349500,6.305349609375,-0.3892606794834137,-0.23133522272109985,-0.6346869468688965
1772537097333398300,6.315398193359375,-0.41573062539100647,0.06563334167003632,-0.7242322564125061
1772537097343446500,6.325446533203125,-0.4434163272380829,0.20668552815914154,-0.7363584637641907
1772537097353494500,6.33549462890625,-0.47712233662605286,0.23243777453899384,-0.7120959758758545
1772537097363543600,6.34554345703125,-0.4970763623714447,0.2530636787414551,-0.6981737613677979
1772537097373591300,6.35559130859375,-0.5024935007095337,0.2612158954143524,-0.6839338541030884
1772537097383640600,6.365640625,-0.5047765970230103,0.2327275276184082,-0.6485598683357239
1772537097393688300,6.375688232421875,-0.49913522601127625,0.18980269134044647,-0.5589035153388977
1772537097403736300,6.385736328125,-0.46033698320388794,0.11945156008005142,-0.4398657977581024
1772537097413785300,6.395785400390625,-0.39678677916526794,0.04565217345952988,-0.3059953451156616
1772537097423833300,6.405833251953125,-0.3195265829563141,-0.029266009107232094,-0.20363302528858185
1772537097433881600,6.415881591796875,-0.2450675368309021,-0.0992051437497139,-0.16868461668491364
1772537097443930400,6.425930419921875,-0.1906261444091797,-0.16588643193244934,-0.17202049493789673
1772537097453978600,6.435978515625,-0.1482938677072525,-0.2265457957983017,-0.1687232404947281
1772537097464026400,6.4460263671875,-0.10395143181085587,-0.3196512460708618,-0.15802425146102905
1772537097474075400,6.456075439453125,-0.0633893609046936,-0.45263856649398804,-0.13362330198287964
1772537097484123400,6.466123291015625,-0.01359570398926735,-0.5715771913528442,-0.09872551262378693
1772537097494172400,6.47617236328125,0.04447212815284729,-0.6518403887748718,-0.05985401198267937
1772537097504220400,6.486220458984375,0.10753870755434036,-0.6722966432571411,-0.021626731380820274
1772537097514268400,6.496268310546875,0.1838529258966446,-0.6540928483009338,0.00875168014317751
1772537097524317400,6.5063173828125,0.26385560631752014,-0.640334963798523,-0.00891067087650299
1772537097534365400,6.516365478515625,0.3187630772590637,-0.6504419445991516,-0.08610265702009201
1772537097544413400,6.526413330078125,0.3380424976348877,-0.6391205787658691,-0.2260698825120926
1772537097554462500,6.53646240234375,0.3272787928581238,-0.5867124795913696,-0.4292970299720764
1772537097564510500,6.546510498046875,0.2943735718727112,-0.45796436071395874,-0.6618786454200745
1772537097574559500,6.5565595703125,0.22274573147296906,-0.2600451707839966,-0.9009191393852234
1772537097584607500,6.566607421875,0.134456604719162,-0.04662901908159256,-1.1139723062515259
1772537097594655500,6.576655517578125,0.051127366721630096,0.1750469207763672,-1.2439113855361938
1772537097604704300,6.586704345703125,-0.0013459615875035524,0.4196998178958893,-1.2052971124649048
1772537097614752500,6.59675244140625,0.004641357343643904,0.6004650592803955,-0.9994081854820251
1772537097624800500,6.606800537109375,0.0499369315803051,0.654453456401825,-0.6984350085258484
1772537097634849300,6.616849365234375,0.11191774904727936,0.61126309633255,-0.33017924427986145
1772537097644897500,6.6268974609375,0.17488978803157806,0.4618416726589203,0.06202475354075432
1772537097654946300,6.6369462890625,0.21138015389442444,0.19861190021038055,0.4041360318660736
1772537097664994600,6.64699462890625,0.2044394165277481,-0.10537702590227127,0.6537373065948486
1772537097675042300,6.657042236328125,0.17652736604213715,-0.3800426721572876,0.783336877822876
1772537097685091600,6.667091552734375,0.1566932052373886,-0.5574339628219604,0.791550874710083
1772537097695139300,6.677139404296875,0.1562015861272812,-0.5770851373672485,0.711083710193634
1772537097705187300,6.687187255859375,0.16673199832439423,-0.4470137059688568,0.5903850197792053
1772537097715236400,6.697236328125,0.17458271980285645,-0.21063899993896484,0.4559054672718048
1772537097725284400,6.707284423828125,0.18610408902168274,0.10615972429513931,0.3159169554710388
1772537097735332600,6.71733251953125,0.2025562971830368,0.4119364321231842,0.2134196013212204
1772537097745381400,6.72738134765625,0.2127937525510788,0.5779435038566589,0.1582932323217392
1772537097755429600,6.7374296875,0.2118704468011856,0.6002640128135681,0.1225576102733612
1772537097765478400,6.747478515625,0.21184754371643066,0.49457991123199463,0.09845253825187683
1772537097775526400,6.7575263671875,0.1985730081796646,0.29306623339653015,0.09538990259170532
1772537097785574400,6.767574462890625,0.17359229922294617,0.06018823757767677,0.13411732017993927
1772537097795623400,6.77762353515625,0.15670226514339447,-0.10659488290548325,0.22305677831172943
1772537097805671400,6.78767138671875,0.1729651242494583,-0.17543867230415344,0.3404683768749237
1772537097815719400,6.797719482421875,0.22045408189296722,-0.17888079583644867,0.42519763112068176
1772537097825768400,6.8077685546875,0.284295916557312,-0.11191108822822571,0.4495317339897156
1772537097835816400,6.81781640625,0.35618022084236145,-0.029289444908499718,0.39327991008758545
1772537097845865500,6.827865478515625,0.4400215744972229,0.004063184838742018,0.25182345509529114
1772537097855913500,6.83791357421875,0.5141842365264893,-0.06710899621248245,0.014632205478847027
1772537097865961200,6.847961181640625,0.5224951505661011,-0.22664779424667358,-0.22800174355506897
1772537097876010500,6.858010498046875,0.45117756724357605,-0.4047890305519104,-0.38689497113227844
1772537097886058200,6.868058349609375,0.30377399921417236,-0.5172881484031677,-0.44628188014030457
1772537097896106500,6.8781064453125,0.10887162387371063,-0.45756062865257263,-0.3914055824279785
1772537097906155300,6.8881552734375,-0.09521413594484329,-0.20711830258369446,-0.22257421910762787
1772537097916203500,6.89820361328125,-0.2552112638950348,0.1437039077281952,-0.011071559973061085
1772537097926251500,6.90825146484375,-0.3360365927219391,0.4157745838165283,0.06959239393472672
1772537097936300500,6.918300537109375,-0.3521212935447693,0.5584499835968018,-0.08740654587745667
1772537097946348500,6.9283486328125,-0.29878830909729004,0.6117022633552551,-0.3898628056049347
1772537097956397600,6.9383974609375,-0.25366368889808655,0.6124988198280334,-0.7117870450019836
1772537097966445600,6.948445556640625,-0.2808420658111572,0.6084590554237366,-0.9335988163948059
1772537097976493300,6.958493408203125,-0.3919190466403961,0.5679742097854614,-0.9851325750350952
1772537097986542300,6.968542236328125,-0.5181992053985596,0.4903055429458618,-0.9097054600715637
1772537097996590300,6.97859033203125,-0.6075512170791626,0.41258704662323,-0.7431343197822571
1772537098006638600,6.988638671875,-0.6527812480926514,0.3129909336566925,-0.5646748542785645
1772537098016687400,6.998687255859375,-0.6473007202148438,0.2023126184940338,-0.39995458722114563
1772537098026735600,7.008735595703125,-0.5795999765396118,0.07719465345144272,-0.2596409022808075
1772537098036784600,7.01878466796875,-0.475912481546402,-0.040951959788799286,-0.13213859498500824
1772537098046833000,7.0288330078125,-0.34965547919273376,-0.19356253743171692,0.025305623188614845
1772537098056880600,7.038880615234375,-0.2198098599910736,-0.4159468710422516,0.18308113515377045
1772537098066930000,7.048929931640625,-0.09745411574840546,-0.6196275949478149,0.3202807903289795
1772537098076977700,7.058977783203125,0.02003655955195427,-0.7416823506355286,0.4253251850605011
1772537098087025700,7.069025634765625,0.11862598359584808,-0.7835192680358887,0.4801788628101349
1772537098097074700,7.07907470703125,0.16413994133472443,-0.7297226190567017,0.49942392110824585
1772537098107122700,7.089122802734375,0.15157301723957062,-0.5898454189300537,0.49226853251457214
1772537098117170700,7.099170654296875,0.11300644278526306,-0.38905906677246094,0.4612150192260742
1772537098127219700,7.1092197265625,0.10345608741044998,-0.17560431361198425,0.4138941168785095
1772537098137267700,7.119267822265625,0.12395363301038742,-0.00848483107984066,0.3533114492893219
1772537098147316700,7.129316650390625,0.16280010342597961,0.06258588284254074,0.298801064491272
1772537098157364500,7.139364501953125,0.19406934082508087,0.035887159407138824,0.2521105408668518
1772537098167412700,7.149412841796875,0.22905422747135162,-0.03140665963292122,0.21173276007175446
1772537098177461500,7.15946142578125,0.2591114640235901,-0.1188046783208847,0.12836383283138275
1772537098187509800,7.169509765625,0.2744555175304413,-0.1851370930671692,-0.0035800873301923275
1772537098197557800,7.179557861328125,0.24283155798912048,-0.17476648092269897,-0.12234082818031311
1772537098207606800,7.189606689453125,0.1956174373626709,-0.09466152638196945,-0.1681506633758545
1772537098217654800,7.19965478515625,0.15721705555915833,0.002127066720277071,-0.14088574051856995
1772537098227702500,7.20970263671875,0.1237347275018692,0.0854049101471901,-0.09088143706321716
1772537098237751800,7.219751708984375,0.1218651831150055,0.1856372356414795,-0.031132886186242104
1772537098247799600,7.229799560546875,0.136264368891716,0.2909303605556488,0.06462986022233963
1772537098257848800,7.239848876953125,0.13666090369224548,0.40346357226371765,0.19415216147899628
1772537098267896600,7.249896484375,0.13582254946231842,0.47539022564888,0.3224520683288574
1772537098277944800,7.25994482421875,0.13131168484687805,0.4931316673755646,0.42491692304611206
1772537098287993600,7.26999365234375,0.12785570323467255,0.4571683406829834,0.4972792863845825
1772537098298041900,7.280041748046875,0.10969054698944092,0.38149356842041016,0.532436728477478
1772537098308090600,7.290090576171875,0.08063359558582306,0.2804630994796753,0.5370751619338989
1772537098318139000,7.300138916015625,0.05880099907517433,0.22345945239067078,0.544176459312439
1772537098328186600,7.3101865234375,0.04295039549469948,0.20832444727420807,0.5505334734916687
1772537098338235600,7.320235595703125,0.01317891851067543,0.23172670602798462,0.5176170468330383
1772537098348283600,7.33028369140625,-0.027173031121492386,0.2930592894554138,0.44619372487068176
1772537098358331600,7.34033154296875,-0.06549032777547836,0.36514681577682495,0.33872586488723755
1772537098368380700,7.350380615234375,-0.11421152949333191,0.43696534633636475,0.22261522710323334
1772537098378428700,7.3604287109375,-0.15479649603366852,0.48994654417037964,0.1369173675775528
1772537098388476700,7.3704765625,-0.14868268370628357,0.4887332022190094,0.0882267951965332
1772537098398525700,7.380525634765625,-0.12257358431816101,0.4035397469997406,0.05175880342721939
1772537098408573700,7.39057373046875,-0.08164452761411667,0.27499428391456604,0.037580396980047226
1772537098418622700,7.400622802734375,-0.048650093376636505,0.12051043659448624,0.0503515861928463
1772537098428670700,7.410670654296875,-0.01221512071788311,-0.04952707141637802,0.11482911556959152
1772537098438718700,7.42071875,0.06580937653779984,-0.2481757253408432,0.17500589787960052
1772537098448767700,7.430767822265625,0.12497416138648987,-0.5762888789176941,0.1685490608215332
1772537098458815700,7.440815673828125,0.099178247153759,-0.949959397315979,0.07418154925107956
1772537098468863700,7.45086376953125,0.008686965331435204,-1.1787705421447754,-0.05222592130303383
1772537098478912800,7.460912841796875,-0.13790486752986908,-1.2238361835479736,-0.20779474079608917
1772537098488960800,7.470960693359375,-0.3089088499546051,-1.0935128927230835,-0.3683282136917114
1772537098499008800,7.4810087890625,-0.46209174394607544,-0.8431381583213806,-0.5142127275466919
1772537098509057800,7.491057861328125,-0.5748635530471802,-0.6244074106216431,-0.711986780166626
1772537098519105800,7.501105712890625,-0.6016344428062439,-0.4193570613861084,-0.922985315322876
1772537098529154800,7.51115478515625,-0.5301437377929688,-0.18025818467140198,-1.0924630165100098
1772537098539202800,7.521202880859375,-0.3860110938549042,0.08320754021406174,-1.186215877532959
1772537098549250600,7.53125048828125,-0.22444695234298706,0.30919140577316284,-1.1408332586288452
1772537098559299600,7.541299560546875,-0.11337955296039581,0.42989012598991394,-0.9824691414833069
1772537098569347600,7.55134765625,-0.10541430860757828,0.3427203297615051,-0.8296388387680054
1772537098579395800,7.561395751953125,-0.18145741522312164,0.11544883251190186,-0.6976885199546814
1772537098589444600,7.571444580078125,-0.28940466046333313,-0.13181369006633759,-0.5871478915214539
1772537098599492900,7.581492919921875,-0.3874707520008087,-0.32321640849113464,-0.5436550378799438
1772537098609541600,7.591541748046875,-0.4163503348827362,-0.4390202462673187,-0.5743040442466736
1772537098619590000,7.60158984375,-0.3839907944202423,-0.4754384458065033,-0.6561318039894104
1772537098629637600,7.6116376953125,-0.31488338112831116,-0.45227158069610596,-0.743368923664093
1772537098639687000,7.62168701171875,-0.24804869294166565,-0.3968733251094818,-0.784831166267395
1772537098649734700,7.631734619140625,-0.20072591304779053,-0.30588480830192566,-0.7026753425598145
1772537098659782700,7.64178271484375,-0.15969805419445038,-0.19419291615486145,-0.5052988529205322
1772537098669831700,7.651831787109375,-0.1262255758047104,-0.10557356476783752,-0.26265665888786316
1772537098679879700,7.661879638671875,-0.11065194755792618,-0.07329445332288742,-0.03618090599775314
1772537098689928000,7.671927978515625,-0.11030706763267517,-0.12868234515190125,0.12257172167301178
1772537098699976700,7.681976806640625,-0.1306123435497284,-0.25556492805480957,0.23280954360961914
1772537098710025000,7.69202490234375,-0.16582678258419037,-0.36397209763526917,0.3017177879810333
1772537098720073700,7.70207373046875,-0.19822600483894348,-0.3978288471698761,0.3466002941131592
1772537098730121700,7.712121826171875,-0.2143240123987198,-0.3675321936607361,0.3659854531288147
1772537098740169700,7.722169677734375,-0.22549650073051453,-0.2776515781879425,0.3286023736000061
1772537098750218800,7.73221875,-0.23297519981861115,-0.11016511917114258,0.22941854596138
1772537098760266800,7.742266845703125,-0.2313900738954544,0.0985042005777359,0.07598051428794861
1772537098770314800,7.752314697265625,-0.21491044759750366,0.2820093035697937,-0.12295761704444885
1772537098780363800,7.76236376953125,-0.1864151507616043,0.437057226896286,-0.3312162756919861
1772537098790411800,7.772411865234375,-0.14924247562885284,0.5395156741142273,-0.5178865790367126
1772537098800459500,7.78245947265625,-0.1126897931098938,0.5417926907539368,-0.6389005780220032
1772537098810508800,7.7925087890625,-0.0853351354598999,0.42399442195892334,-0.6312594413757324
1772537098820556500,7.802556640625,-0.06450469046831131,0.23863627016544342,-0.4690801501274109
1772537098830605800,7.812605712890625,-0.049981143325567245,0.057140517979860306,-0.1886703073978424
1772537098840653600,7.822653564453125,-0.05301661416888237,-0.07695923000574112,0.1463276445865631
1772537098850701800,7.832701904296875,-0.061652444303035736,-0.15324707329273224,0.4675498902797699
1772537098860750600,7.84275048828125,-0.06388470530509949,-0.17423172295093536,0.7490750551223755
1772537098870798800,7.852798828125,-0.06617928296327591,-0.13250504434108734,0.9518337249755859
1772537098880846800,7.862846923828125,-0.0722196027636528,-0.018809640780091286,1.0619450807571411
1772537098890895600,7.8728955078125,-0.07652194052934647,0.16848647594451904,1.0902408361434937
1772537098900944000,7.88294384765625,-0.08713223785161972,0.39358964562416077,1.0373356342315674
1772537098910992600,7.89299267578125,-0.09179090708494186,0.6172145009040833,0.9298900961875916
1772537098921041000,7.903041015625,-0.08915277570486069,0.7738938331604004,0.804341733455658
1772537098931088600,7.913088623046875,-0.08484165370464325,0.8066054582595825,0.6661202311515808
1772537098941137700,7.9231376953125,-0.10454345494508743,0.6877927780151367,0.5204362869262695
1772537098951185700,7.933185546875,-0.14816389977931976,0.4572879374027252,0.37110936641693115
1772537098961233700,7.943233642578125,-0.21618422865867615,0.21947456896305084,0.2777338922023773
1772537098971282700,7.95328271484375,-0.2840556800365448,0.08216464519500732,0.29628387093544006
1772537098981330700,7.96333056640625,-0.3422721326351166,0.0352163091301918,0.38291701674461365
1772537098991378700,7.973378662109375,-0.37829723954200745,0.07399752736091614,0.4932030439376831
1772537099001427700,7.983427734375,-0.37165239453315735,0.2309245616197586,0.6275046467781067
1772537099011475700,7.993475830078125,-0.29948338866233826,0.41348186135292053,0.7421313524246216
1772537099021524700,8.003524658203125,-0.18515360355377197,0.5381231307983398,0.7894922494888306
1772537099031572700,8.01357275390625,-0.06969279795885086,0.4958081543445587,0.7067957520484924
1772537099041621000,8.02362109375,0.012795157730579376,0.21082861721515656,0.4847717583179474
1772537099051670000,8.033669921875,0.0433671809732914,-0.27260011434555054,0.12042202055454254
1772537099061718000,8.043718017578126,-0.003951065707951784,-0.7583298087120056,-0.28127241134643555
1772537099071766000,8.05376611328125,-0.13764867186546326,-1.0898730754852295,-0.5818487405776978
1772537099081815000,8.06381494140625,-0.36065539717674255,-1.2746416330337524,-0.7326076626777649
1772537099091863000,8.073863037109374,-0.5818900465965271,-1.2753958702087402,-0.7935375571250916
1772537099101911000,8.0839111328125,-0.653773844242096,-0.9891478419303894,-0.7883257865905762
1772537099111959800,8.093959716796874,-0.5478737354278564,-0.523018479347229,-0.7731366753578186
1772537099122008000,8.104008056640625,-0.37733158469200134,-0.15248115360736847,-0.8010732531547546
1772537099132056800,8.114056884765626,-0.2032894641160965,0.08159046620130539,-0.8253183960914612
1772537099142105000,8.12410498046875,-0.08244694024324417,0.20195789635181427,-0.8069636225700378
1772537099152153000,8.134153076171875,-0.04824129864573479,0.16795065999031067,-0.7569734454154968
1772537099162202000,8.1442021484375,-0.11074888706207275,0.03696227818727493,-0.6559951901435852
1772537099172250000,8.15425,-0.2045491486787796,-0.05625448375940323,-0.4958816468715668
1772537099182297900,8.1642978515625,-0.2594134509563446,-0.06096721440553665,-0.31787675619125366
1772537099192347100,8.17434716796875,-0.23424392938613892,0.0036759611684828997,-0.14856550097465515
1772537099202395000,8.184394775390626,-0.1455870270729065,0.09689752012491226,0.009528257884085178
1772537099212444200,8.194444091796875,-0.039574574679136276,0.13792164623737335,0.11254385858774185
1772537099222492000,8.204491943359375,0.054309312254190445,0.12571078538894653,0.16948330402374268
1772537099232540200,8.2145400390625,0.10005549341440201,0.06332144886255264,0.21228882670402527
1772537099242589000,8.2245888671875,0.10582123696804047,-0.04151681810617447,0.2564499080181122
1772537099252637200,8.23463720703125,0.08642517030239105,-0.1880873441696167,0.31051817536354065
1772537099262685200,8.244685302734375,0.05823454260826111,-0.3572923541069031,0.35834378004074097
1772537099272734200,8.254734130859376,0.03947576880455017,-0.5000966191291809,0.3891131281852722
1772537099282782000,8.264781982421875,0.01660321094095707,-0.5917802453041077,0.3992459177970886
1772537099292831000,8.2748310546875,-0.02069143019616604,-0.5889351963996887,0.40938857197761536
1772537099302879000,8.28487890625,-0.054308246821165085,-0.5059508085250854,0.4147883951663971
1772537099312927000,8.294927001953125,-0.0867021381855011,-0.3509628176689148,0.39169666171073914
1772537099322976000,8.30497607421875,-0.11459182947874069,-0.18033355474472046,0.3580968976020813
1772537099333024000,8.31502392578125,-0.1371421366930008,-0.059713397175073624,0.3268819749355316
1772537099343072000,8.325072021484376,-0.1536542773246765,-0.028874525800347328,0.2986130714416504
1772537099353121000,8.33512109375,-0.16480706632137299,-0.08360248804092407,0.27571919560432434
1772537099363169000,8.3451689453125,-0.1556156873703003,-0.16320569813251495,0.2655312716960907
1772537099373217000,8.355217041015624,-0.1303364336490631,-0.23741388320922852,0.29385530948638916
1772537099383266000,8.36526611328125,-0.0920950397849083,-0.27319371700286865,0.3487694263458252
1772537099393314000,8.37531396484375,-0.03792847320437431,-0.28599339723587036,0.3919997215270996
1772537099403363000,8.385363037109375,0.009354086592793465,-0.2943594455718994,0.41352978348731995
1772537099413411000,8.3954111328125,0.032669797539711,-0.2610699534416199,0.43222013115882874
1772537099423459000,8.405458984375,0.02286776527762413,-0.1904572993516922,0.473183274269104
1772537099433508000,8.415508056640626,-0.04345240071415901,-0.125602126121521,0.5148955583572388
1772537099443556000,8.42555615234375,-0.18433016538619995,-0.09901180118322372,0.5335973501205444
1772537099453604000,8.43560400390625,-0.3571290969848633,-0.1146184578537941,0.5517609119415283
1772537099463653000,8.445653076171874,-0.504631757736206,-0.12698137760162354,0.572262704372406
1772537099473701000,8.455701171875,-0.6060323715209961,-0.15274587273597717,0.5588915348052979
1772537099483750100,8.465750244140626,-0.6530874967575073,-0.19254760444164276,0.5544195175170898
1772537099493798100,8.475798095703125,-0.6452375650405884,-0.16519267857074738,0.5971968173980713
1772537099503846100,8.48584619140625,-0.6066997647285461,-0.026675019413232803,0.6680344939231873
1772537099513895000,8.49589501953125,-0.5788527131080627,0.14952051639556885,0.7163317203521729
1772537099523943000,8.50594287109375,-0.5572344660758972,0.29885780811309814,0.7323152422904968
1772537099533991200,8.5159912109375,-0.5125112533569336,0.3918367326259613,0.7360087633132935
1772537099544040000,8.5260400390625,-0.4772475063800812,0.41039204597473145,0.703539252281189
1772537099554088200,8.536088134765626,-0.41709282994270325,0.46706733107566833,0.6928892731666565
1772537099564136000,8.546135986328125,-0.3006618320941925,0.5634958744049072,0.6997663378715515
1772537099574185200,8.556185302734375,-0.14403200149536133,0.5897753834724426,0.6669844388961792
1772537099584233000,8.56623291015625,0.08478918671607971,0.6176310181617737,0.6225770115852356
1772537099594281000,8.576281005859375,0.2966556251049042,0.6399948596954346,0.5773983597755432
1772537099604330000,8.586330078125,0.44666165113449097,0.6924288272857666,0.568452775478363
1772537099614378000,8.5963779296875,0.5375691652297974,0.7251574397087097,0.5555683970451355
1772537099624427000,8.606427001953126,0.5484045147895813,0.8095831274986267,0.5123476982116699
1772537099634475000,8.61647509765625,0.5001376271247864,0.9962565898895264,0.4657168388366699
1772537099644523300,8.626523193359375,0.3756641745567322,1.0989280939102173,0.3483539819717407
1772537099654572000,8.636572021484374,0.29684844613075256,1.0602158308029175,0.13295219838619232
1772537099664620300,8.646620361328125,0.3133763074874878,0.9411150217056274,-0.24455195665359497
1772537099674668000,8.65666796875,0.4446333944797516,0.7180774211883545,-0.7366638779640198
1772537099684717000,8.666717041015625,0.6972981095314026,0.5570834875106812,-1.1475467681884766
1772537099694765000,8.67676513671875,0.9821785688400269,0.8093255758285522,-1.170087218284607
1772537099704814000,8.68681396484375,0.9962257146835327,1.24941885471344,-0.9716212749481201
1772537099714862000,8.696862060546875,0.7372497916221619,1.506174921989441,-0.7688751220703125
1772537099724910000,8.70691015625,0.44609224796295166,1.4455550909042358,-0.6376241445541382
1772537099734959000,8.716958984375,0.2256309986114502,1.0445138216018677,-0.6829061508178711
1772537099745007000,8.727007080078126,0.06727704405784607,0.4892232120037079,-0.9393917322158813
1772537099755054800,8.737054931640625,-0.1055823490023613,0.0572209432721138,-1.3212701082229614
1772537099765104000,8.747104248046876,-0.16702520847320557,0.131390780210495,-1.7572740316390991
1772537099775151900,8.75715185546875,-0.08824437111616135,0.6274133324623108,-2.21932053565979
1772537099785200000,8.7672001953125,0.105360247194767,1.3578667640686035,-2.527878761291504
1772537099795249000,8.777248779296874,0.39543840289115906,1.9253226518630981,-2.6463613510131836
1772537099805297200,8.787297119140625,0.6338962316513062,1.9855504035949707,-2.538085460662842
1772537099815346000,8.797345947265624,0.6620128154754639,1.5426288843154907,-2.1236584186553955
1772537099825394200,8.807394287109375,0.48941096663475037,0.8153566122055054,-1.481050968170166
1772537099835442200,8.817442138671876,0.1507333219051361,-0.023545539006590843,-0.7922899127006531
1772537099845491200,8.8274912109375,-0.251944363117218,-0.723872184753418,-0.13938584923744202
1772537099855539200,8.837539306640625,-0.5916417241096497,-1.20363187789917,0.3812544047832489
1772537099865587000,8.8475869140625,-0.8033244013786316,-1.3731186389923096,0.7236809730529785
1772537099875636200,8.85763623046875,-0.8349640965461731,-1.227508783340454,0.8717058897018433
1772537099885684000,8.86768408203125,-0.7215720415115356,-0.9730855226516724,0.7591583132743835
1772537099895733000,8.87773291015625,-0.5335030555725098,-0.5856029987335205,0.43740636110305786
1772537099905781000,8.887781005859376,-0.3422686755657196,-0.22605496644973755,-0.006048304960131645
1772537099915829000,8.8978291015625,-0.20452064275741577,0.00818096473813057,-0.41247811913490295
1772537099925878000,8.9078779296875,-0.1556452512741089,0.17291584610939026,-0.6643044948577881
1772537099935926000,8.917926025390624,-0.16221314668655396,0.2337070256471634,-0.8088046908378601
1772537099945974000,8.92797412109375,-0.1718364804983139,0.2110973298549652,-0.8756492137908936
1772537099956023000,8.93802294921875,-0.14508847892284393,-0.0009483516332693398,-0.859393835067749
1772537099966071000,8.948071044921875,-0.08299688249826431,-0.34579867124557495,-0.72618567943573
1772537099976119000,8.958119140625,-0.017674334347248077,-0.5471320748329163,-0.40046751499176025
1772537099986168000,8.96816796875,0.07592032849788666,-0.48148059844970703,0.024084564298391342
1772537099996216000,8.978216064453125,0.16916079819202423,-0.320576936006546,0.35157907009124756
1772537100006265000,8.98826513671875,0.23136664927005768,-0.1229538843035698,0.5298430919647217
1772537100016313000,8.99831298828125,0.22449275851249695,0.16277000308036804,0.5931834578514099
1772537100026361000,9.008361083984376,0.2021632194519043,0.4981887638568878,0.6172557473182678
1772537100036412700,9.01841259765625,0.22340911626815796,0.7453644275665283,0.6330461502075195
1772537100046460700,9.028460693359374,0.24957840144634247,0.8669856786727905,0.6188294291496277
1772537100056508700,9.0385087890625,0.28276726603507996,0.9209482669830322,0.58833247423172
1772537100066557700,9.0485576171875,0.278691828250885,0.987007200717926,0.5213124752044678
1772537100076605400,9.05860546875,0.17682963609695435,1.0352466106414795,0.3899911642074585
1772537100086653700,9.06865380859375,0.03008093684911728,1.0577585697174072,0.30043813586235046
1772537100096702500,9.078702392578125,-0.07780185341835022,1.0342577695846558,0.2950814366340637
1772537100106750700,9.088750732421875,-0.11639132350683212,0.9738988280296326,0.30703452229499817
1772537100116799500,9.098799560546874,-0.10621245950460434,0.8738427758216858,0.2715257704257965
1772537100126847700,9.10884765625,-0.05095932260155678,0.8043904900550842,0.21585692465305328
1772537100136895700,9.118895751953126,0.00028522455249913037,0.8244225382804871,0.15830974280834198
1772537100146944800,9.12894482421875,0.016501745209097862,0.8362967371940613,0.084907166659832
1772537100156992800,9.13899267578125,0.005768406670540571,0.723254382610321,0.009558085352182388
1772537100167040500,9.14904052734375,0.04343988373875618,0.5383071303367615,-0.039800941944122314
1772537100177089800,9.15908984375,0.15966689586639404,0.32846230268478394,-0.08461102098226547
1772537100187137500,9.169137451171874,0.3024815618991852,0.21411602199077606,-0.14383094012737274
1772537100197186800,9.179186767578125,0.42731431126594543,0.2991909682750702,-0.1928299069404602
1772537100207234600,9.189234619140626,0.4449620246887207,0.346762478351593,-0.22452019155025482
1772537100217282800,9.19928271484375,0.31578725576400757,0.14851704239845276,-0.27811869978904724
1772537100227331600,9.20933154296875,0.08315587043762207,-0.21819065511226654,-0.36134594678878784
1772537100237379800,9.2193798828125,-0.061466291546821594,-0.36260083317756653,-0.5364797115325928
1772537100247427600,9.229427490234375,-0.08955704420804977,-0.07947804778814316,-1.1017649173736572
1772537100257476600,9.2394765625,-0.1471220701932907,-0.3162711560726166,-1.8585999011993408
1772537100267524600,9.249524658203125,0.04610411077737808,-0.36204662919044495,-2.370298385620117
1772537100277572600,9.259572509765626,0.36452311277389526,-0.23009152710437775,-2.648106813430786
1772537100287621600,9.26962158203125,0.44183865189552307,-0.22930003702640533,-2.757913112640381
1772537100297669600,9.279669677734375,0.05425658077001572,-0.2733441889286041,-2.6497421264648438
1772537100307718700,9.28971875,-0.16495700180530548,-0.04585989937186241,-2.453667402267456
1772537100317766700,9.2997666015625,-0.4872543513774872,0.2500191628932953,-2.080423355102539
1772537100327814700,9.309814697265624,-0.8081836104393005,0.10114020109176636,-1.510254144668579
1772537100337863700,9.31986376953125,-0.8809457421302795,-0.58601313829422,-0.9281185865402222
1772537100347911700,9.32991162109375,-0.8479803204536438,-1.474697232246399,-0.4706612527370453
1772537100357959700,9.339959716796875,-0.9208611845970154,-2.0846381187438965,-0.1803697794675827
1772537100368008700,9.3500087890625,-1.2100147008895874,-2.3094089031219482,-0.1079922467470169
1772537100378056700,9.360056640625,-1.5885628461837769,-2.0928735733032227,-0.23199968039989471
1772537100388104700,9.370104736328125,-1.8411681652069092,-1.6528719663619995,-0.4799482226371765
1772537100398153700,9.38015380859375,-1.794330358505249,-1.125036358833313,-0.7429489493370056
1772537100408201700,9.39020166015625,-1.3198692798614502,-0.44340673089027405,-0.9268935322761536
1772537100418250500,9.40025048828125,-0.712425947189331,0.1884165108203888,-1.0571950674057007
1772537100428298800,9.410298828125,-0.36729490756988525,0.6142237186431885,-1.148938775062561
1772537100438346800,9.4203466796875,-0.3065623342990875,0.8135719895362854,-1.1904138326644897
1772537100448395800,9.430395751953125,-0.3558894097805023,0.7249475717544556,-1.1410161256790161
1772537100458443500,9.440443603515625,-0.3812408149242401,0.3967995345592499,-0.9804922938346863
1772537100468491800,9.45049169921875,-0.35515597462654114,0.011688081547617912,-0.7489373683929443
1772537100478540500,9.46054052734375,-0.30240538716316223,-0.2079382836818695,-0.4515821039676666
1772537100488588500,9.470588623046876,-0.29306381940841675,-0.19416095316410065,-0.12263350933790207
1772537100498636800,9.48063671875,-0.3337087333202362,-0.13396339118480682,0.11115048825740814
1772537100508685600,9.490685546875,-0.3844113349914551,-0.05717993155121803,0.22099976241588593
1772537100518733800,9.50073388671875,-0.41086557507514954,0.008054197765886784,0.2543875277042389
1772537100528782600,9.510782470703125,-0.40451231598854065,0.030672159045934677,0.252584844827652
1772537100538830800,9.520830810546874,-0.36566585302352905,0.08356013894081116,0.21363931894302368
1772537100548878600,9.530878662109375,-0.30138513445854187,0.08794929832220078,0.11966248601675034
1772537100558928000,9.540927978515626,-0.22574365139007568,0.008504538796842098,-0.0492788664996624
1772537100568975600,9.5509755859375,-0.15885968506336212,-0.057488325983285904,-0.254558265209198
1772537100579023600,9.561023681640625,-0.09588684886693954,-0.01830470561981201,-0.44636231660842896
1772537100589072600,9.57107275390625,-0.026455309242010117,0.12774810194969177,-0.5755216479301453
1772537100599120600,9.58112060546875,0.03406742215156555,0.2795853018760681,-0.6205586194992065
1772537100609169700,9.591169677734374,0.07931879162788391,0.2804718613624573,-0.5758955478668213
1772537100619217700,9.6012177734375,0.07770038396120071,0.08592396229505539,-0.45304498076438904
1772537100629265700,9.611265625,0.013047092594206333,-0.10151570290327072,-0.2828095853328705
1772537100639314700,9.621314697265625,-0.19856981933116913,-0.012885704636573792,-0.1535826325416565
1772537100649362700,9.63136279296875,-0.2987765669822693,0.11358968168497086,-0.00660463934764266
1772537100659410700,9.64141064453125,-0.2102895826101303,0.34997957944869995,0.15655924379825592
1772537100669459500,9.65145947265625,-0.04372324422001839,0.6942663788795471,0.3871253430843353
1772537100679507700,9.6615078125,0.09189716726541519,0.9989091157913208,0.8755893111228943
1772537100689555700,9.6715556640625,0.13919250667095184,0.5905242562294006,1.303510308265686
1772537100699604700,9.681604736328126,0.14063593745231628,-0.1305159330368042,1.5102802515029907
1772537100709652700,9.69165283203125,0.08806514739990234,-0.4794723093509674,1.4505668878555298
1772537100719700500,9.701700439453125,-0.014215420931577682,-0.2967619001865387,1.2304480075836182
1772537100729749800,9.711749755859374,-0.10442467778921127,0.09094535559415817,0.8366637229919434
1772537100739797500,9.721797607421875,-0.13694293797016144,0.38288187980651855,0.3383631408214569
1772537100749846800,9.7318466796875,-0.1994798183441162,0.4310249090194702,-0.10532136261463165
1772537100759894500,9.74189453125,-0.09255336970090866,0.32435891032218933,-0.3063971996307373
