time,seconds_elapsed,z,y,x
1772536321224087000,0.069087158203125,-0.9992523193359375,-0.037261962890625,0.0121002197265625
1772536321234135800,0.0791357421875,-0.99981689453125,-0.0416412353515625,0.016082763671875
1772536321244184000,0.08918408203125,-1.000640869140625,-0.0472564697265625,0.015899658203125
1772536321254231800,0.099231689453125,-0.997772216796875,-0.0498504638671875,0.014923095703125
1772536321264281000,0.109281005859375,-0.9986724853515625,-0.051788330078125,0.013671875
1772536321274328800,0.119328857421875,-0.9987335205078125,-0.05230712890625,0.01141357421875
1772536321284376800,0.129376953125,-0.99609375,-0.0505523681640625,0.0115966796875
1772536321294425900,0.13942578125,-1.003021240234375,-0.0514678955078125,0.01190185546875
1772536321304473900,0.149473876953125,-1.0075531005859375,-0.05078125,0.0090484619140625
1772536321314522000,0.159522216796875,-1.002838134765625,-0.048828125,0.006317138671875
1772536321324571000,0.16957080078125,-1.0030517578125,-0.0472412109375,0.0060272216796875
1772536321334619100,0.179619140625,-1.0063934326171875,-0.0480804443359375,0.0040435791015625
1772536321344667000,0.1896669921875,-1.00018310546875,-0.048370361328125,0.00140380859375
1772536321354716200,0.199716064453125,-1.0026397705078125,-0.050506591796875,0.0072174072265625
1772536321364764000,0.209763916015625,-1.001983642578125,-0.0543212890625,0.0025482177734375
1772536321374812000,0.21981201171875,-0.99102783203125,-0.055419921875,0.0022125244140625
1772536321384860200,0.229860107421875,-0.9906768798828125,-0.0601654052734375,0.0097808837890625
1772536321394909000,0.239908935546875,-0.99688720703125,-0.0635528564453125,0.0105133056640625
1772536321404957200,0.249957275390625,-0.9993896484375,-0.060821533203125,0.00823974609375
1772536321415005000,0.2600048828125,-0.9936676025390625,-0.0585479736328125,0.0073394775390625
1772536321425054000,0.270053955078125,-0.98931884765625,-0.0593109130859375,0.0074310302734375
1772536321435102000,0.28010205078125,-0.994140625,-0.05889892578125,0.0086822509765625
1772536321445150000,0.29014990234375,-1.0012359619140625,-0.0575103759765625,0.00567626953125
1772536321455199000,0.300198974609375,-0.9961395263671875,-0.057769775390625,0.0019073486328125
1772536321465247000,0.3102470703125,-0.9911956787109375,-0.0588836669921875,0.0008087158203125
1772536321475295000,0.320294921875,-0.997650146484375,-0.0595245361328125,0.0043182373046875
1772536321485344000,0.330343994140625,-1.00396728515625,-0.0612945556640625,0.002716064453125
1772536321495391700,0.340391845703125,-1.000457763671875,-0.06036376953125,0.0003509521484375
1772536321505440000,0.35043994140625,-0.997772216796875,-0.0591888427734375,0.0011444091796875
1772536321515488800,0.36048876953125,-1,-0.0587921142578125,0.006103515625
1772536321525537000,0.370537109375,-1.0016021728515625,-0.057464599609375,0.0026702880859375
1772536321535585000,0.3805849609375,-1.00067138671875,-0.0564117431640625,0.0005645751953125
1772536321545634000,0.390634033203125,-1.0012664794921875,-0.05548095703125,-0.000244140625
1772536321555682000,0.40068212890625,-1.0009918212890625,-0.054962158203125,-0.0006256103515625
1772536321565729800,0.410729736328125,-1.000213623046875,-0.0578765869140625,-0.002044677734375
1772536321575779000,0.420779052734375,-0.999176025390625,-0.0580902099609375,-0.002105712890625
1772536321585826800,0.430826904296875,-1.002105712890625,-0.0581512451171875,-0.0023651123046875
1772536321595875000,0.440875,-0.99884033203125,-0.0575714111328125,-0.00567626953125
1772536321605923800,0.450923828125,-0.9955902099609375,-0.05645751953125,-0.0060577392578125
1772536321615972000,0.46097216796875,-1.00054931640625,-0.05755615234375,-0.0036468505859375
1772536321626019800,0.471019775390625,-1.008270263671875,-0.0590362548828125,-0.00128173828125
1772536321636067800,0.48106787109375,-1.006622314453125,-0.056976318359375,-0.002838134765625
1772536321646116900,0.491116943359375,-0.998870849609375,-0.05242919921875,-0.0033416748046875
1772536321656164900,0.501164794921875,-0.9990386962890625,-0.049102783203125,-0.0003509521484375
1772536321666213000,0.511213134765625,-1.00579833984375,-0.0512542724609375,-0.0023651123046875
1772536321676262000,0.521261962890625,-1.0030364990234375,-0.0535736083984375,-0.002685546875
1772536321686310100,0.53131005859375,-1.00128173828125,-0.0537872314453125,0.0003814697265625
1772536321696358000,0.54135791015625,-1.0041046142578125,-0.055206298828125,0.0022430419921875
1772536321706407000,0.551406982421875,-1.0092620849609375,-0.056640625,0.000823974609375
1772536321716455000,0.561454833984375,-1.005523681640625,-0.0555572509765625,-0.0025787353515625
1772536321726503000,0.5715029296875,-0.9950714111328125,-0.0526123046875,-0.0015869140625
1772536321736552000,0.581552001953125,-0.9996337890625,-0.054718017578125,-0.0022125244140625
1772536321746600000,0.591599853515625,-1.0048370361328125,-0.0603790283203125,-0.0009918212890625
1772536321756648000,0.60164794921875,-1.0019073486328125,-0.0624847412109375,-0.0000152587890625
1772536321766697000,0.611697021484375,-0.99591064453125,-0.060211181640625,0.0003204345703125
1772536321776745000,0.621744873046875,-0.9971466064453125,-0.059295654296875,-0.0001220703125
1772536321786793000,0.63179296875,-1.00030517578125,-0.05975341796875,0.0005035400390625
1772536321796842000,0.641842041015625,-0.996856689453125,-0.0591888427734375,-0.00048828125
1772536321806890000,0.651889892578125,-0.9952850341796875,-0.0570068359375,0.000579833984375
1772536321816938000,0.66193798828125,-0.99884033203125,-0.059478759765625,0.001312255859375
1772536321826985700,0.67198583984375,-1.00030517578125,-0.0600738525390625,-0.0000457763671875
1772536321837035000,0.682034912109375,-0.99871826171875,-0.05853271484375,0.001739501953125
1772536321847082800,0.692082763671875,-1.00433349609375,-0.058197021484375,-0.0009307861328125
1772536321857131000,0.702131103515625,-1.002655029296875,-0.055816650390625,-0.0032501220703125
1772536321867179800,0.7121796875,-1.004058837890625,-0.05517578125,-0.0002288818359375
1772536321877228000,0.72222802734375,-1.0062255859375,-0.056396484375,0.0005340576171875
1772536321887276000,0.732276123046875,-1.0097503662109375,-0.05609130859375,0.0028076171875
1772536321897325000,0.742324951171875,-1.0121307373046875,-0.055572509765625,0.0037384033203125
1772536321907373000,0.752373046875,-1.00909423828125,-0.0530242919921875,-0.00299072265625
1772536321917420800,0.7624208984375,-1.00103759765625,-0.0527801513671875,-0.003082275390625
1772536321927470000,0.772469970703125,-1.0022125244140625,-0.0555419921875,-0.0008087158203125
1772536321937517800,0.782517822265625,-1.007080078125,-0.059844970703125,-0.004913330078125
1772536321947566000,0.792566162109375,-1.0054168701171875,-0.0609893798828125,-0.007080078125
1772536321957614800,0.80261474609375,-0.998046875,-0.06048583984375,-0.007568359375
1772536321967663000,0.8126630859375,-0.9954833984375,-0.058990478515625,-0.0084228515625
1772536321977710800,0.8227109375,-0.997833251953125,-0.06317138671875,-0.0093994140625
1772536321987760000,0.832760009765625,-1.000244140625,-0.065582275390625,-0.0067901611328125
1772536321997808000,0.84280810546875,-0.9992828369140625,-0.065338134765625,-0.0078277587890625
1772536322007856000,0.852856201171875,-0.99542236328125,-0.064208984375,-0.0095672607421875
1772536322017905200,0.8629052734375,-0.9923553466796875,-0.06243896484375,-0.0103912353515625
1772536322027953200,0.872953125,-0.9916534423828125,-0.0616302490234375,-0.0095672607421875
1772536322038001400,0.88300146484375,-0.990875244140625,-0.0623626708984375,-0.0100860595703125
1772536322048050200,0.89305029296875,-0.993560791015625,-0.0623626708984375,-0.0083160400390625
1772536322058098400,0.903098388671875,-0.997833251953125,-0.0628662109375,-0.0072174072265625
1772536322068146200,0.913146240234375,-0.998779296875,-0.06243896484375,-0.0090789794921875
1772536322078194200,0.923194091796875,-0.9935760498046875,-0.0609588623046875,-0.009002685546875
1772536322088243200,0.9332431640625,-0.990478515625,-0.06060791015625,-0.009033203125
1772536322098291200,0.943291259765625,-0.994659423828125,-0.0611572265625,-0.0087738037109375
1772536322108339200,0.953339111328125,-1.002532958984375,-0.0622406005859375,-0.006866455078125
1772536322118388200,0.96338818359375,-1.0018310546875,-0.0599365234375,-0.00701904296875
1772536322128436000,0.97343603515625,-1.0008392333984375,-0.058502197265625,-0.0059051513671875
1772536322138484200,0.983484130859375,-1.0029144287109375,-0.0581207275390625,-0.0060272216796875
1772536322148533000,0.993532958984375,-1.0028076171875,-0.0608978271484375,-0.0064239501953125
1772536322158581200,1.003581298828125,-1.0015411376953125,-0.0625457763671875,-0.003692626953125
1772536322168629200,1.013629150390625,-1.006072998046875,-0.0621795654296875,-0.0035552978515625
1772536322178678300,1.02367822265625,-1.012420654296875,-0.062255859375,-0.004913330078125
1772536322188726300,1.033726318359375,-1.0088348388671875,-0.0588226318359375,-0.005615234375
1772536322198774000,1.04377392578125,-1.0031890869140625,-0.055450439453125,-0.00738525390625
1772536322208823300,1.0538232421875,-1.004302978515625,-0.05682373046875,-0.00775146484375
1772536322218871000,1.06387109375,-1.0042877197265625,-0.05877685546875,-0.0084991455078125
1772536322228919300,1.073919189453125,-0.9993133544921875,-0.0596771240234375,-0.0085296630859375
1772536322238968000,1.083968017578125,-0.9958343505859375,-0.0602874755859375,-0.0079345703125
1772536322249016300,1.094016357421875,-1.0030517578125,-0.062255859375,-0.0054168701171875
1772536322259064300,1.104064208984375,-1.0041351318359375,-0.0625,-0.009063720703125
1772536322269113300,1.11411328125,-0.99139404296875,-0.05853271484375,-0.0126953125
1772536322279161000,1.1241611328125,-0.9869537353515625,-0.057037353515625,-0.008636474609375
1772536322289209000,1.134208984375,-0.9979248046875,-0.06292724609375,-0.0081634521484375
1772536322299257300,1.14425732421875,-0.9998931884765625,-0.06488037109375,-0.009368896484375
1772536322309306000,1.15430615234375,-0.9976959228515625,-0.06329345703125,-0.00848388671875
1772536322319354400,1.164354248046875,-0.9975738525390625,-0.0618896484375,-0.0095367431640625
1772536322329402000,1.174402099609375,-0.9951324462890625,-0.0607147216796875,-0.010284423828125
1772536322339451400,1.184451416015625,-0.9961090087890625,-0.060546875,-0.0090789794921875
1772536322349499100,1.1944990234375,-0.99908447265625,-0.0601654052734375,-0.0073394775390625
1772536322359547100,1.204547119140625,-0.999786376953125,-0.0599517822265625,-0.0071563720703125
1772536322369596200,1.21459619140625,-1.000335693359375,-0.059417724609375,-0.0078125
1772536322379644200,1.22464404296875,-1.002471923828125,-0.0588836669921875,-0.0080718994140625
1772536322389692400,1.2346923828125,-1.0045318603515625,-0.0573883056640625,-0.0082550048828125
1772536322399741200,1.2447412109375,-1.0046844482421875,-0.057708740234375,-0.0083770751953125
1772536322409789200,1.2547890625,-1.0052947998046875,-0.05950927734375,-0.0077972412109375
1772536322419837200,1.264837158203125,-1.0056610107421875,-0.060699462890625,-0.0074005126953125
1772536322429886200,1.27488623046875,-1.0057830810546875,-0.0603485107421875,-0.0062408447265625
1772536322439934200,1.284934326171875,-1.006011962890625,-0.0607147216796875,-0.0066986083984375
1772536322449982200,1.294982177734375,-1.0049591064453125,-0.060546875,-0.0066680908203125
1772536322460030200,1.3050302734375,-1.001678466796875,-0.0584869384765625,-0.0089874267578125
1772536322470079200,1.315079345703125,-0.996795654296875,-0.0576171875,-0.01123046875
1772536322480127000,1.325126953125,-0.999725341796875,-0.0572662353515625,-0.007720947265625
1772536322490175200,1.33517529296875,-1.0081329345703125,-0.0597381591796875,-0.007843017578125
1772536322500224000,1.34522412109375,-1.001739501953125,-0.058258056640625,-0.0088348388671875
1772536322510272300,1.355272216796875,-0.997100830078125,-0.05560302734375,-0.0101318359375
1772536322520320300,1.3653203125,-1.00201416015625,-0.0574493408203125,-0.0108184814453125
1772536322530369300,1.375369384765625,-1.00390625,-0.0621490478515625,-0.0085906982421875
1772536322540417300,1.385417236328125,-1.000732421875,-0.0619964599609375,-0.0089111328125
1772536322550465000,1.395465087890625,-0.99652099609375,-0.06109619140625,-0.00921630859375
1772536322560514300,1.405514404296875,-0.995208740234375,-0.0614471435546875,-0.0094757080078125
1772536322570562000,1.41556201171875,-1.000244140625,-0.0615692138671875,-0.0103607177734375
1772536322580610300,1.4256103515625,-0.998138427734375,-0.060302734375,-0.010345458984375
1772536322590659000,1.4356591796875,-0.997589111328125,-0.0593719482421875,-0.009735107421875
1772536322600707300,1.445707275390625,-1.0039825439453125,-0.0595855712890625,-0.0102996826171875
1772536322610755300,1.45575537109375,-1.0024261474609375,-0.0567474365234375,-0.0135040283203125
1772536322620803000,1.465802978515625,-0.9970703125,-0.0553436279296875,-0.0135040283203125
1772536322630852000,1.47585205078125,-1.000885009765625,-0.0583343505859375,-0.0123748779296875
1772536322640900000,1.485900146484375,-1.0046539306640625,-0.0616912841796875,-0.0106201171875
1772536322650948400,1.4959482421875,-1.00823974609375,-0.0624542236328125,-0.0096282958984375
1772536322660997000,1.5059970703125,-1.0056915283203125,-0.06231689453125,-0.010650634765625
1772536322671045400,1.51604541015625,-0.9967803955078125,-0.0579376220703125,-0.0110626220703125
1772536322681093000,1.526093017578125,-0.996185302734375,-0.056793212890625,-0.00921630859375
1772536322691142100,1.53614208984375,-0.99664306640625,-0.06146240234375,-0.009185791015625
1772536322701190100,1.546190185546875,-0.9952545166015625,-0.0643463134765625,-0.0080718994140625
1772536322711238100,1.556238037109375,-0.9949493408203125,-0.0648040771484375,-0.0074462890625
1772536322721287200,1.566287109375,-1.0037841796875,-0.0651702880859375,-0.004425048828125
1772536322731335200,1.576335205078125,-1.0038299560546875,-0.0630645751953125,-0.0097808837890625
1772536322741383400,1.586383544921875,-0.9949951171875,-0.05792236328125,-0.011505126953125
1772536322751432200,1.59643212890625,-0.9970703125,-0.06036376953125,-0.010986328125
1772536322761480200,1.606480224609375,-1.0030975341796875,-0.0647735595703125,-0.010345458984375
1772536322771528200,1.616528076171875,-1.0023040771484375,-0.0666046142578125,-0.009368896484375
1772536322781577200,1.6265771484375,-1.006622314453125,-0.0655975341796875,-0.006011962890625
1772536322791625200,1.636625244140625,-1.01141357421875,-0.0628814697265625,-0.009429931640625
1772536322801673200,1.646673095703125,-1.004486083984375,-0.0567474365234375,-0.0119171142578125
1772536322811721000,1.656720947265625,-1.003662109375,-0.0533599853515625,-0.00933837890625
1772536322821770200,1.666770263671875,-1.00555419921875,-0.0548553466796875,-0.010406494140625
1772536322831818000,1.67681787109375,-1.0011749267578125,-0.0579833984375,-0.00909423828125
1772536322841866200,1.6868662109375,-1.00189208984375,-0.0604705810546875,-0.007781982421875
1772536322851915000,1.6969150390625,-1.0027923583984375,-0.0629425048828125,-0.0088348388671875
1772536322861963300,1.70696337890625,-0.999359130859375,-0.0626220703125,-0.008575439453125
1772536322872011300,1.71701123046875,-0.9995574951171875,-0.062713623046875,-0.00860595703125
1772536322882060300,1.727060302734375,-0.9999542236328125,-0.0638580322265625,-0.0107879638671875
1772536322892108300,1.7371083984375,-0.9962310791015625,-0.0652008056640625,-0.0106964111328125
1772536322902156000,1.747156005859375,-0.9948272705078125,-0.066802978515625,-0.0103607177734375
1772536322912205300,1.757205322265625,-0.9970550537109375,-0.06768798828125,-0.0102691650390625
1772536322922253000,1.767253173828125,-0.997802734375,-0.068450927734375,-0.010467529296875
1772536322932301300,1.77730126953125,-0.998016357421875,-0.0683441162109375,-0.011505126953125
1772536322942350000,1.78735009765625,-0.998443603515625,-0.0675506591796875,-0.0104827880859375
1772536322952398300,1.7973984375,-0.9960174560546875,-0.066497802734375,-0.0099945068359375
1772536322962446300,1.8074462890625,-0.9947357177734375,-0.064208984375,-0.0093536376953125
1772536322972494000,1.817494140625,-0.9972076416015625,-0.0671539306640625,-0.00799560546875
1772536322982543000,1.827543212890625,-0.9986114501953125,-0.069244384765625,-0.0067901611328125
1772536322992591000,1.837591064453125,-0.9983673095703125,-0.0700225830078125,-0.006439208984375
1772536323002640100,1.84764013671875,-0.9968109130859375,-0.0695343017578125,-0.0069427490234375
1772536323012689200,1.857689208984375,-1.0001983642578125,-0.067474365234375,-0.00604248046875
1772536323022737200,1.867737060546875,-1.002197265625,-0.066558837890625,-0.007904052734375
1772536323032785200,1.87778515625,-1.000244140625,-0.0654296875,-0.008331298828125
1772536323042834000,1.887833984375,-0.9989776611328125,-0.064605712890625,-0.008819580078125
1772536323052882200,1.897882080078125,-1.0014801025390625,-0.064178466796875,-0.005828857421875
1772536323062930200,1.90793017578125,-1.00555419921875,-0.0657196044921875,-0.00738525390625
1772536323072979200,1.917979248046875,-1.0025482177734375,-0.064849853515625,-0.0084228515625
1772536323083027200,1.928027099609375,-1.001373291015625,-0.0632171630859375,-0.0081787109375
1772536323093075000,1.938074951171875,-1.0023193359375,-0.063323974609375,-0.0082244873046875
1772536323103124200,1.948124267578125,-1.00225830078125,-0.065338134765625,-0.0074615478515625
1772536323113172000,1.958171875,-1.0046234130859375,-0.0667266845703125,-0.00689697265625
1772536323123220200,1.96822021484375,-1.004638671875,-0.0658721923828125,-0.0091705322265625
1772536323133269000,1.97826904296875,-0.9990997314453125,-0.0654144287109375,-0.011260986328125
1772536323143317200,1.988317138671875,-0.9995269775390625,-0.067962646484375,-0.0096893310546875
1772536323153365200,1.998365234375,-1.0012969970703125,-0.072296142578125,-0.0101165771484375
1772536323163413000,2.0084130859375,-0.9972076416015625,-0.073333740234375,-0.0099639892578125
1772536323173462300,2.018462158203125,-0.9972991943359375,-0.0728607177734375,-0.0090179443359375
1772536323183510000,2.028510009765625,-0.996124267578125,-0.071258544921875,-0.0092620849609375
1772536323193558300,2.038558349609375,-0.9937896728515625,-0.07080078125,-0.0092926025390625
1772536323203607000,2.04860693359375,-0.995819091796875,-0.0701141357421875,-0.0107574462890625
1772536323213655300,2.0586552734375,-0.9963531494140625,-0.0699310302734375,-0.010040283203125
1772536323223703000,2.068703125,-0.995025634765625,-0.0689849853515625,-0.0083160400390625
1772536323233752000,2.078751953125,-0.997467041015625,-0.067596435546875,-0.006591796875
1772536323243800000,2.088800048828125,-0.9983673095703125,-0.0644683837890625,-0.0077056884765625
1772536323253848000,2.09884814453125,-0.9949188232421875,-0.06182861328125,-0.006256103515625
1772536323263897000,2.10889697265625,-0.9972381591796875,-0.064300537109375,-0.0063323974609375
1772536323273945000,2.118945068359375,-1.0025787353515625,-0.0677642822265625,-0.00311279296875
1772536323283993000,2.1289931640625,-1.00677490234375,-0.070556640625,-0.002777099609375
1772536323294042000,2.1390419921875,-1.0009765625,-0.071136474609375,-0.0066375732421875
1772536323304090000,2.149090087890625,-0.9977569580078125,-0.068511962890625,-0.0058746337890625
1772536323314138000,2.15913818359375,-1.000091552734375,-0.067779541015625,-0.00799560546875
1772536323324186000,2.16918603515625,-0.998565673828125,-0.0691070556640625,-0.0071563720703125
1772536323334235100,2.179235107421875,-0.99591064453125,-0.0714111328125,-0.0068817138671875
1772536323344283100,2.189283203125,-0.994659423828125,-0.07452392578125,-0.004669189453125
1772536323354331100,2.1993310546875,-1.0030364990234375,-0.07684326171875,-0.000335693359375
1772536323364380200,2.209380126953125,-1.009490966796875,-0.0749664306640625,-0.0035247802734375
1772536323374428200,2.21942822265625,-0.9986419677734375,-0.0683135986328125,-0.0077972412109375
1772536323384476200,2.22947607421875,-0.995880126953125,-0.062652587890625,-0.0050506591796875
1772536323394525000,2.23952490234375,-1.0073089599609375,-0.0645294189453125,-0.0077056884765625
1772536323404573200,2.2495732421875,-1.0068359375,-0.0677337646484375,-0.0055084228515625
1772536323414621200,2.25962109375,-1.0020599365234375,-0.0677490234375,-0.003326416015625
1772536323424670200,2.269670166015625,-1.0041656494140625,-0.06787109375,-0.001556396484375
1772536323434718200,2.27971826171875,-1.00592041015625,-0.0698394775390625,-0.0031280517578125
1772536323444766000,2.289765869140625,-0.9965667724609375,-0.06646728515625,-0.0034942626953125
1772536323454815200,2.299815185546875,-0.993316650390625,-0.06463623046875,-0.003082275390625
1772536323464863000,2.309863037109375,-0.9970245361328125,-0.0671844482421875,-0.0037841796875
1772536323474911200,2.3199111328125,-0.9962921142578125,-0.0682830810546875,-0.0046234130859375
1772536323484959200,2.329959228515625,-0.9917755126953125,-0.0679168701171875,-0.00927734375
1772536323495008300,2.34000830078125,-0.99005126953125,-0.0679931640625,-0.0057373046875
1772536323505056300,2.35005615234375,-1.000152587890625,-0.06964111328125,-0.003814697265625
1772536323515104000,2.36010400390625,-1.0059051513671875,-0.0700531005859375,-0.0067138671875
1772536323525153300,2.3701533203125,-0.9972686767578125,-0.065399169921875,-0.00994873046875
1772536323535201000,2.380200927734375,-0.996124267578125,-0.0612945556640625,-0.0071258544921875
1772536323545249300,2.390249267578125,-1.005340576171875,-0.0646514892578125,-0.00634765625
1772536323555298000,2.400298095703125,-1.0033416748046875,-0.0692138671875,-0.0067901611328125
1772536323565346000,2.410345947265625,-1.002044677734375,-0.0675811767578125,-0.003509521484375
1772536323575394000,2.42039404296875,-1.0050048828125,-0.067108154296875,-0.00396728515625
1772536323585443000,2.430443115234375,-0.999969482421875,-0.0674285888671875,-0.0063018798828125
1772536323595491000,2.440490966796875,-0.99700927734375,-0.06805419921875,-0.0053863525390625
1772536323605539000,2.4505390625,-0.9986114501953125,-0.069610595703125,-0.002532958984375
1772536323615588000,2.460588134765625,-0.9996490478515625,-0.0710296630859375,-0.0028533935546875
1772536323625636000,2.470635986328125,-1.001068115234375,-0.07037353515625,-0.0023651123046875
1772536323635684000,2.48068408203125,-1.0014190673828125,-0.068023681640625,-0.003021240234375
1772536323645732000,2.490732177734375,-1.0001678466796875,-0.0660552978515625,-0.0035247802734375
1772536323655781000,2.500781005859375,-1.001220703125,-0.0652618408203125,-0.002532958984375
1772536323665829000,2.5108291015625,-1.000091552734375,-0.0637664794921875,-0.003692626953125
1772536323675877000,2.520877197265625,-1.0020904541015625,-0.0637969970703125,-0.0022430419921875
1772536323685926100,2.530926025390625,-1.00244140625,-0.063751220703125,-0.0016021728515625
1772536323695974100,2.54097412109375,-1.00177001953125,-0.06231689453125,-0.003570556640625
1772536323706022100,2.551022216796875,-1.0022735595703125,-0.06146240234375,-0.00555419921875
1772536323716071200,2.5610712890625,-1.000762939453125,-0.06048583984375,-0.005767822265625
1772536323726119200,2.571119140625,-1.0012664794921875,-0.0611572265625,-0.0059967041015625
1772536323736167200,2.581167236328125,-1.001556396484375,-0.062835693359375,-0.0064849853515625
1772536323746216000,2.5912158203125,-0.9994964599609375,-0.06317138671875,-0.007110595703125
1772536323756264200,2.60126416015625,-0.99896240234375,-0.06298828125,-0.007843017578125
1772536323766312200,2.611312255859375,-1.0000152587890625,-0.06536865234375,-0.0081939697265625
1772536323776361200,2.621361328125,-1.0003204345703125,-0.0657501220703125,-0.00885009765625
1772536323786409200,2.6314091796875,-0.9961700439453125,-0.065521240234375,-0.01007080078125
1772536323796457000,2.64145703125,-0.9970855712890625,-0.065032958984375,-0.00799560546875
1772536323806505200,2.651505126953125,-1.001434326171875,-0.06683349609375,-0.0065460205078125
1772536323816554000,2.661553955078125,-0.9962158203125,-0.0667266845703125,-0.0066375732421875
1772536323826602200,2.671602294921875,-0.9936065673828125,-0.064483642578125,-0.0058135986328125
1772536323836650200,2.681650146484375,-1.0024566650390625,-0.0652923583984375,-0.002716064453125
1772536323846699000,2.691698974609375,-1.0064239501953125,-0.065948486328125,-0.003173828125
1772536323856747300,2.701747314453125,-0.997100830078125,-0.0605316162109375,-0.00592041015625
1772536323866795000,2.711794921875,-0.9941253662109375,-0.0586700439453125,-0.0035247802734375
1772536323876844300,2.72184423828125,-1.0026397705078125,-0.0621490478515625,0.00006103515625
1772536323886892000,2.73189208984375,-1.0077667236328125,-0.064971923828125,0.000823974609375
1772536323896940300,2.741940185546875,-1.0043487548828125,-0.06317138671875,0.000518798828125
1772536323906989000,2.751989013671875,-1.0010833740234375,-0.0608062744140625,-0.0017242431640625
1772536323917037000,2.762037109375,-1.0016326904296875,-0.0617828369140625,-0.001007080078125
1772536323927085000,2.7720849609375,-1.0025177001953125,-0.064544677734375,-0.001739501953125
1772536323937134000,2.782134033203125,-1.0000152587890625,-0.065185546875,-0.00244140625
1772536323947182000,2.79218212890625,-0.998077392578125,-0.06622314453125,-0.00225830078125
1772536323957230000,2.80222998046875,-0.9986724853515625,-0.066864013671875,-0.003875732421875
1772536323967278000,2.812278076171875,-0.9968719482421875,-0.065826416015625,-0.0037689208984375
1772536323977327000,2.8223271484375,-0.9948272705078125,-0.06524658203125,-0.00396728515625
1772536323987375000,2.832375,-0.997772216796875,-0.066009521484375,-0.0043182373046875
1772536323997422000,2.842422119140625,-1.0017547607421875,-0.06695556640625,-0.0045166015625
1772536324007471000,2.85247119140625,-0.99981689453125,-0.0654144287109375,-0.0039215087890625
1772536324017519000,2.86251904296875,-0.999053955078125,-0.0615997314453125,-0.0024261474609375
1772536324027567000,2.872567138671875,-1.00311279296875,-0.0613861083984375,-0.003204345703125
1772536324037616000,2.8826162109375,-1.0052947998046875,-0.0614471435546875,-0.0036773681640625
1772536324047664000,2.8926640625,-1.002960205078125,-0.05731201171875,-0.003204345703125
1772536324057712000,2.902712158203125,-1.003570556640625,-0.0559234619140625,-0.0027618408203125
1772536324067761200,2.91276123046875,-1.0063629150390625,-0.0573883056640625,-0.0017852783203125
1772536324077809200,2.92280908203125,-1.00665283203125,-0.0589599609375,-0.00140380859375
1772536324087857000,2.93285693359375,-1.003143310546875,-0.059173583984375,-0.0028076171875
1772536324097905200,2.9429052734375,-0.998931884765625,-0.05859375,-0.002197265625
1772536324107954000,2.952953857421875,-1.0009765625,-0.0616607666015625,-0.0008544921875
1772536324118002200,2.963002197265625,-1.0010528564453125,-0.0638580322265625,-0.0017852783203125
1772536324128050200,2.97305029296875,-0.9986572265625,-0.0641326904296875,-0.002410888671875
1772536324138099000,2.983098876953125,-0.9981689453125,-0.06396484375,-0.00225830078125
1772536324148147200,2.993147216796875,-1.002349853515625,-0.0657958984375,-0.000335693359375
1772536324158195000,3.00319482421875,-0.99774169921875,-0.0676727294921875,-0.00750732421875
1772536324168244200,3.013244140625,-0.99041748046875,-0.060699462890625,-0.0085296630859375
1772536324178292000,3.0232919921875,-0.993408203125,-0.0596160888671875,-0.0071868896484375
1772536324188340200,3.03334033203125,-0.999176025390625,-0.0628814697265625,-0.0063629150390625
1772536324198389000,3.043388916015625,-1.0009307861328125,-0.0632171630859375,-0.0076751708984375
1772536324208437000,3.05343701171875,-0.9964447021484375,-0.06292724609375,-0.0074005126953125
1772536324218485000,3.063485107421875,-0.999603271484375,-0.0649871826171875,-0.0050048828125
1772536324228534000,3.073533935546875,-1.0043182373046875,-0.0648193359375,-0.0058135986328125
1772536324238582000,3.08358203125,-0.9998779296875,-0.0634002685546875,-0.006317138671875
1772536324248630000,3.093630126953125,-0.998992919921875,-0.0614013671875,-0.00390625
1772536324258678000,3.103677978515625,-1.0063018798828125,-0.0614013671875,-0.0043487548828125
1772536324268727000,3.11372705078125,-1.00555419921875,-0.060089111328125,-0.004425048828125
1772536324278775000,3.123775146484375,-1.0015716552734375,-0.0569915771484375,-0.0059661865234375
1772536324288823000,3.133822998046875,-1.0030364990234375,-0.05584716796875,-0.003997802734375
1772536324298872000,3.1438720703125,-1.0084686279296875,-0.0590057373046875,-0.0032501220703125
1772536324308920000,3.153920166015625,-1.00787353515625,-0.0611572265625,-0.004302978515625
1772536324318968000,3.163968017578125,-1.0012359619140625,-0.0594024658203125,-0.002288818359375
1772536324329017000,3.17401708984375,-1.00048828125,-0.05950927734375,-0.0036773681640625
1772536324339065000,3.184065185546875,-1.002960205078125,-0.06201171875,-0.004547119140625
1772536324349113000,3.194113037109375,-1.0048675537109375,-0.0631256103515625,-0.0045166015625
1772536324359162000,3.204162109375,-0.9984588623046875,-0.06378173828125,-0.006988525390625
1772536324369210000,3.214210205078125,-0.994232177734375,-0.0648345947265625,-0.007415771484375
1772536324379258000,3.224258056640625,-0.9980010986328125,-0.0684356689453125,-0.00677490234375
1772536324389306000,3.23430615234375,-1.001800537109375,-0.071197509765625,-0.0072174072265625
1772536324399355100,3.244355224609375,-0.9968719482421875,-0.0706939697265625,-0.0081634521484375
1772536324409403100,3.254403076171875,-0.995361328125,-0.0664520263671875,-0.0095367431640625
1772536324419451000,3.264450927734375,-0.9987640380859375,-0.066192626953125,-0.01031494140625
1772536324429500200,3.274500244140625,-0.9976043701171875,-0.0660400390625,-0.0088958740234375
1772536324439548000,3.2845478515625,-0.9995880126953125,-0.0649261474609375,-0.0065155029296875
1772536324449596200,3.29459619140625,-1.002777099609375,-0.0642242431640625,-0.005157470703125
1772536324459645000,3.30464501953125,-1.000732421875,-0.06134033203125,-0.0065155029296875
1772536324469693200,3.314693115234375,-0.9993133544921875,-0.057098388671875,-0.0056610107421875
1772536324479741200,3.3247412109375,-1.003326416015625,-0.0561981201171875,-0.006256103515625
1772536324489790000,3.3347900390625,-1.005462646484375,-0.0568695068359375,-0.007049560546875
1772536324499838200,3.344838134765625,-1.0038604736328125,-0.0574798583984375,-0.007354736328125
1772536324509886000,3.354885986328125,-1.0017547607421875,-0.0585479736328125,-0.0070037841796875
1772536324519935200,3.364935302734375,-1.004547119140625,-0.0606231689453125,-0.00634765625
1772536324529983000,3.37498291015625,-1.0049285888671875,-0.062835693359375,-0.0059967041015625
1772536324540031000,3.385031005859375,-1.0018463134765625,-0.06256103515625,-0.005462646484375
1772536324550079200,3.395079345703125,-1.0016021728515625,-0.0631561279296875,-0.0083770751953125
1772536324560128000,3.4051279296875,-1.0023651123046875,-0.0648651123046875,-0.008880615234375
1772536324570176000,3.415176025390625,-0.998870849609375,-0.066070556640625,-0.0088348388671875
1772536324580224000,3.42522412109375,-0.996246337890625,-0.06488037109375,-0.0083770751953125
1772536324590273000,3.43527294921875,-0.9948577880859375,-0.06500244140625,-0.0079803466796875
1772536324600321000,3.445321044921875,-0.994293212890625,-0.0655364990234375,-0.00787353515625
1772536324610369000,3.455369140625,-0.9954071044921875,-0.0665130615234375,-0.0071868896484375
1772536324620418000,3.46541796875,-1.0023345947265625,-0.0657806396484375,-0.005279541015625
1772536324630466000,3.475466064453125,-1.0041656494140625,-0.0647125244140625,-0.005126953125
1772536324640514000,3.48551416015625,-0.9989776611328125,-0.06158447265625,-0.00787353515625
1772536324650563000,3.49556298828125,-0.9997711181640625,-0.0600128173828125,-0.007293701171875
1772536324660611000,3.505611083984375,-1.002288818359375,-0.0608062744140625,-0.0079498291015625
1772536324670659000,3.5156591796875,-1.0035247802734375,-0.0620574951171875,-0.0098114013671875
1772536324680707000,3.52570703125,-1.0025787353515625,-0.062591552734375,-0.0084686279296875
1772536324690756000,3.535756103515625,-1.006072998046875,-0.0617218017578125,-0.00787353515625
1772536324700804000,3.54580419921875,-1.0059814453125,-0.058837890625,-0.0071258544921875
1772536324710852000,3.55585205078125,-1.0033416748046875,-0.058258056640625,-0.0081787109375
1772536324720901000,3.565901123046875,-1.0013275146484375,-0.057769775390625,-0.008636474609375
1772536324730949000,3.57594921875,-0.9985198974609375,-0.0586395263671875,-0.007232666015625
1772536324740997000,3.5859970703125,-0.9972991943359375,-0.0613250732421875,-0.005584716796875
1772536324751046100,3.596046142578125,-0.997528076171875,-0.065155029296875,-0.0065765380859375
1772536324761094100,3.60609423828125,-0.9981689453125,-0.0666046142578125,-0.00628662109375
1772536324771142000,3.616141845703125,-0.998260498046875,-0.066986083984375,-0.0073394775390625
1772536324781191200,3.626191162109375,-0.9969024658203125,-0.0664825439453125,-0.0082244873046875
1772536324791239000,3.636239013671875,-0.9959716796875,-0.0658721923828125,-0.008148193359375
1772536324801287200,3.646287109375,-0.99591064453125,-0.0670013427734375,-0.0076751708984375
1772536324811335200,3.656335205078125,-0.997344970703125,-0.067047119140625,-0.0075225830078125
1772536324821384200,3.66638427734375,-0.997772216796875,-0.06658935546875,-0.008331298828125
1772536324831432200,3.67643212890625,-0.99578857421875,-0.065643310546875,-0.008636474609375
1772536324841480000,3.68647998046875,-0.995452880859375,-0.0662078857421875,-0.006591796875
1772536324851529200,3.696529296875,-0.9981842041015625,-0.0651702880859375,-0.0067138671875
1772536324861577000,3.706576904296875,-0.99957275390625,-0.0641632080078125,-0.0060272216796875
1772536324871625200,3.716625244140625,-0.9994964599609375,-0.0630035400390625,-0.0025634765625
1772536324881674000,3.726674072265625,-1.0029144287109375,-0.0634002685546875,-0.0028533935546875
1772536324891722000,3.736721923828125,-0.9955596923828125,-0.0611419677734375,-0.0063018798828125
1772536324901770200,3.746770263671875,-0.9988250732421875,-0.0576324462890625,-0.00213623046875
1772536324911819000,3.756819091796875,-1.002471923828125,-0.058837890625,-0.0030670166015625
1772536324921867000,3.766866943359375,-1.003143310546875,-0.0595855712890625,-0.003814697265625
1772536324931915000,3.7769150390625,-1.002838134765625,-0.059814453125,-0.0059356689453125
1772536324941964000,3.786964111328125,-1.0023345947265625,-0.061370849609375,-0.0046539306640625
1772536324952012000,3.797011962890625,-1.0063934326171875,-0.06280517578125,-0.004486083984375
1772536324962060000,3.80706005859375,-1.004608154296875,-0.0621490478515625,-0.0050048828125
1772536324972108000,3.81710791015625,-1.002105712890625,-0.0617828369140625,-0.0054473876953125
1772536324982157000,3.827156982421875,-1.003387451171875,-0.0620574951171875,-0.0072784423828125
1772536324992205000,3.837205078125,-1.0012359619140625,-0.0628662109375,-0.0079193115234375
1772536325002254000,3.847254150390625,-1.0002899169921875,-0.0630645751953125,-0.008392333984375
1772536325012303000,3.85730322265625,-1.001739501953125,-0.0646820068359375,-0.0080718994140625
1772536325022351000,3.86735107421875,-1.00262451171875,-0.06500244140625,-0.00897216796875
1772536325032399000,3.877399169921875,-0.998809814453125,-0.063934326171875,-0.0090179443359375
1772536325042448100,3.8874482421875,-0.99993896484375,-0.06304931640625,-0.009857177734375
1772536325052496000,3.897495849609375,-0.9992523193359375,-0.0612945556640625,-0.009674072265625
1772536325062544100,3.907544189453125,-0.9986419677734375,-0.0615692138671875,-0.0080108642578125
1772536325072593000,3.917593017578125,-1.0012054443359375,-0.0618743896484375,-0.008331298828125
1772536325082641200,3.92764111328125,-0.9995574951171875,-0.0603485107421875,-0.0082855224609375
1772536325092689200,3.937689208984375,-0.9975433349609375,-0.0601348876953125,-0.0079498291015625
1772536325102737200,3.947737060546875,-0.998870849609375,-0.06170654296875,-0.008270263671875
1772536325112786200,3.9577861328125,-0.99517822265625,-0.062744140625,-0.0088958740234375
1772536325122834000,3.967833984375,-0.994232177734375,-0.0634002685546875,-0.0072479248046875
1772536325132882200,3.977882080078125,-1.0012664794921875,-0.0656890869140625,-0.00567626953125
1772536325142931000,3.987930908203125,-1.0023345947265625,-0.066131591796875,-0.0076904296875
1772536325152979200,3.997979248046875,-1.000091552734375,-0.062469482421875,-0.008270263671875
1772536325163027000,4.00802685546875,-1.00146484375,-0.060272216796875,-0.009429931640625
1772536325173076200,4.018076171875,-1.0030670166015625,-0.062408447265625,-0.010406494140625
1772536325183124000,4.0281240234375,-0.9999542236328125,-0.0629119873046875,-0.0099639892578125
1772536325193172000,4.038171875,-0.9973297119140625,-0.0623626708984375,-0.0073394775390625
1772536325203220200,4.04822021484375,-1.0011444091796875,-0.065399169921875,-0.006256103515625
1772536325213269000,4.05826904296875,-1.00079345703125,-0.06597900390625,-0.0055084228515625
1772536325223317200,4.068317138671875,-0.9994964599609375,-0.0643768310546875,-0.0042266845703125
1772536325233365000,4.078364990234375,-1.000946044921875,-0.0637359619140625,-0.0037384033203125
1772536325243414300,4.088414306640625,-1.003692626953125,-0.063629150390625,-0.0045928955078125
1772536325253462000,4.0984619140625,-1.0003509521484375,-0.0610809326171875,-0.0038909912109375
1772536325263510000,4.108510009765625,-1.0012359619140625,-0.0597686767578125,-0.003143310546875
1772536325273559000,4.11855908203125,-1.0066070556640625,-0.0605926513671875,-0.0049591064453125
1772536325283607000,4.12860693359375,-1.0054473876953125,-0.0621185302734375,-0.0054473876953125
1772536325293655000,4.138655029296875,-1.00604248046875,-0.0619049072265625,-0.0036773681640625
1772536325303704000,4.1487041015625,-1.006195068359375,-0.0622100830078125,-0.0051727294921875
1772536325313752000,4.158751953125,-1.004150390625,-0.0630340576171875,-0.0047454833984375
1772536325323800000,4.168800048828125,-1.0027008056640625,-0.0641326904296875,-0.0056610107421875
1772536325333848000,4.17884814453125,-1.002593994140625,-0.0632781982421875,-0.0055389404296875
1772536325343897000,4.18889697265625,-1.0000152587890625,-0.06427001953125,-0.0064697265625
1772536325353945000,4.198945068359375,-0.999481201171875,-0.0643310546875,-0.004913330078125
1772536325363993000,4.2089931640625,-1.000518798828125,-0.0664215087890625,-0.0040740966796875
1772536325374042000,4.2190419921875,-0.99639892578125,-0.0666656494140625,-0.00823974609375
1772536325384090000,4.229090087890625,-0.99334716796875,-0.0635528564453125,-0.0057373046875
1772536325394138000,4.23913818359375,-0.9982452392578125,-0.0650787353515625,-0.00701904296875
1772536325404187000,4.249186767578125,-0.997589111328125,-0.0644378662109375,-0.007293701171875
1772536325414235100,4.259235107421875,-0.9983367919921875,-0.0637359619140625,-0.0048828125
1772536325424283100,4.269283203125,-1.00567626953125,-0.0644989013671875,-0.0059814453125
1772536325434332200,4.279332275390625,-0.997406005859375,-0.06341552734375,-0.0124053955078125
1772536325444380200,4.289380126953125,-0.9958648681640625,-0.0586090087890625,-0.010009765625
1772536325454428000,4.299427978515625,-0.9998321533203125,-0.0613861083984375,-0.0097808837890625
1772536325464476200,4.30947607421875,-1.0019683837890625,-0.0645599365234375,-0.01165771484375
1772536325474525000,4.31952490234375,-0.9999237060546875,-0.06622314453125,-0.0095672607421875
1772536325484573200,4.3295732421875,-1.0012359619140625,-0.068084716796875,-0.0071563720703125
1772536325494621000,4.339620849609375,-0.9996185302734375,-0.0678253173828125,-0.0081024169921875
1772536325504670200,4.349670166015625,-0.9994964599609375,-0.066009521484375,-0.0066680908203125
1772536325514718000,4.359718017578125,-1.001495361328125,-0.06597900390625,-0.006134033203125
1772536325524766000,4.369765869140625,-1.0016021728515625,-0.0645751953125,-0.0059356689453125
1772536325534815000,4.37981494140625,-1.0014190673828125,-0.061431884765625,-0.004974365234375
1772536325544863000,4.389863037109375,-1.0009918212890625,-0.06011962890625,-0.0045928955078125
1772536325554911200,4.3999111328125,-1.002532958984375,-0.0595855712890625,-0.0033721923828125
1772536325564960000,4.4099599609375,-1.00372314453125,-0.0609893798828125,-0.006439208984375
1772536325575008300,4.42000830078125,-1.00091552734375,-0.061126708984375,-0.0050048828125
1772536325585056000,4.430055908203125,-1.0003814697265625,-0.0617218017578125,-0.00543212890625
1772536325595104000,4.44010400390625,-1.00372314453125,-0.0638275146484375,-0.00634765625
1772536325605153000,4.450153076171875,-1.0022735595703125,-0.0658111572265625,-0.008270263671875
1772536325615201000,4.460200927734375,-1.0015716552734375,-0.065185546875,-0.00830078125
1772536325625249000,4.4702490234375,-1.0016326904296875,-0.0639801025390625,-0.0101470947265625
1772536325635298000,4.480298095703125,-1.0012054443359375,-0.06536865234375,-0.00830078125
1772536325645346000,4.490345947265625,-1.001312255859375,-0.0666656494140625,-0.009063720703125
1772536325655394000,4.50039404296875,-0.9989013671875,-0.0666351318359375,-0.0096893310546875
1772536325665443000,4.510443115234375,-0.997802734375,-0.0671844482421875,-0.0074005126953125
1772536325675491000,4.520490966796875,-0.999725341796875,-0.06756591796875,-0.0079193115234375
1772536325685539000,4.5305390625,-1.002960205078125,-0.06671142578125,-0.006378173828125
1772536325695588000,4.540588134765625,-1.00201416015625,-0.064239501953125,-0.0072174072265625
1772536325705636000,4.550635986328125,-0.9972991943359375,-0.060394287109375,-0.0076904296875
1772536325715684000,4.56068408203125,-0.99774169921875,-0.0611572265625,-0.007110595703125
1772536325725732000,4.570732177734375,-0.99951171875,-0.063323974609375,-0.0074920654296875
1772536325735781000,4.580781005859375,-0.9988861083984375,-0.0661468505859375,-0.0057830810546875
1772536325745829000,4.5908291015625,-1.0001678466796875,-0.0683135986328125,-0.0049896240234375
1772536325755877000,4.600877197265625,-1.00079345703125,-0.0676422119140625,-0.0060577392578125
1772536325765926100,4.610926025390625,-1.0025787353515625,-0.0658721923828125,-0.0065765380859375
1772536325775974100,4.62097412109375,-1.0003509521484375,-0.064910888671875,-0.0076904296875
1772536325786022100,4.631022216796875,-1.0002899169921875,-0.0644989013671875,-0.0079803466796875
1772536325796071200,4.6410712890625,-1.000335693359375,-0.0654449462890625,-0.008056640625
1772536325806119000,4.651118896484375,-0.9987335205078125,-0.066680908203125,-0.0069580078125
1772536325816167200,4.661167236328125,-0.9975738525390625,-0.0674591064453125,-0.006500244140625
1772536325826216000,4.6712158203125,-0.9980926513671875,-0.06854248046875,-0.005340576171875
1772536325836264200,4.68126416015625,-0.9978790283203125,-0.069610595703125,-0.00518798828125
1772536325846312000,4.69131201171875,-0.99859619140625,-0.072113037109375,-0.005096435546875
1772536325856360000,4.70135986328125,-1.00030517578125,-0.0712738037109375,-0.0046234130859375
1772536325866409000,4.711408935546875,-1.00146484375,-0.0693511962890625,-0.005462646484375
1772536325876457000,4.72145703125,-1.000732421875,-0.0673370361328125,-0.00762939453125
1772536325886505200,4.731505126953125,-0.9990081787109375,-0.065948486328125,-0.007049560546875
1772536325896554000,4.741553955078125,-1.0025482177734375,-0.0678863525390625,-0.0081634521484375
1772536325906602200,4.751602294921875,-1.0055389404296875,-0.0682373046875,-0.0080108642578125
1772536325916650000,4.76164990234375,-1.0030670166015625,-0.06591796875,-0.0081024169921875
1772536325926699300,4.77169921875,-1.002410888671875,-0.0651092529296875,-0.007354736328125
1772536325936747000,4.7817470703125,-1.0051116943359375,-0.0661163330078125,-0.0050048828125
1772536325946795000,4.791794921875,-1.0072174072265625,-0.0648040771484375,-0.0054168701171875
1772536325956844000,4.801843994140625,-1.0014495849609375,-0.061370849609375,-0.0080413818359375
1772536325966892000,4.81189208984375,-0.9962158203125,-0.059722900390625,-0.0052947998046875
1772536325976940000,4.82193994140625,-0.996490478515625,-0.0640869140625,-0.0058746337890625
1772536325986988000,4.831988037109375,-1.0013885498046875,-0.069488525390625,-0.0019683837890625
1772536325997037000,4.842037109375,-1.003570556640625,-0.0712738037109375,-0.00250244140625
1772536326007084000,4.852083984375,-0.9984588623046875,-0.0695343017578125,-0.005828857421875
1772536326017132000,4.862132080078125,-0.994110107421875,-0.06829833984375,-0.005859375
1772536326027181000,4.87218115234375,-0.996185302734375,-0.0693206787109375,-0.00457763671875
1772536326037229000,4.88222900390625,-0.9965057373046875,-0.06976318359375,-0.0042724609375
1772536326047277000,4.892277099609375,-0.9973907470703125,-0.0687713623046875,-0.0030670166015625
1772536326057326000,4.902326171875,-1.00384521484375,-0.067138671875,-0.0035247802734375
1772536326067374000,4.9123740234375,-1.0023193359375,-0.0658111572265625,-0.0055999755859375
1772536326077422000,4.922422119140625,-1.000091552734375,-0.065155029296875,-0.0057525634765625
1772536326087471000,4.93247119140625,-1.0037994384765625,-0.06719970703125,-0.0037994384765625
1772536326097519000,4.94251904296875,-1.0029754638671875,-0.0707244873046875,-0.0029449462890625
1772536326107567000,4.952567138671875,-1.00128173828125,-0.072906494140625,-0.0015869140625
1772536326117615000,4.962614990234375,-1.004119873046875,-0.0735015869140625,-0.0009307861328125
1772536326127664000,4.9726640625,-0.99945068359375,-0.0718994140625,-0.004608154296875
1772536326137712000,4.982712158203125,-0.99359130859375,-0.0705108642578125,-0.0037078857421875
1772536326147760000,4.992760009765625,-0.9982147216796875,-0.072601318359375,-0.0037841796875
1772536326157809000,5.002808837890625,-0.998687744140625,-0.0751190185546875,-0.0044097900390625
1772536326167857200,5.012857177734375,-0.99566650390625,-0.0750579833984375,-0.0036163330078125
1772536326177905200,5.0229052734375,-0.9985198974609375,-0.0737457275390625,-0.0049896240234375
1772536326187954200,5.0329541015625,-0.9980316162109375,-0.071624755859375,-0.00701904296875
1772536326198002200,5.043002197265625,-0.993804931640625,-0.0684814453125,-0.0077972412109375
1772536326208050000,5.0530498046875,-0.9940643310546875,-0.067779541015625,-0.0087127685546875
1772536326218098200,5.06309814453125,-0.998291015625,-0.0683441162109375,-0.0081329345703125
1772536326228147000,5.07314697265625,-1.001953125,-0.0681304931640625,-0.00750732421875
1772536326238195200,5.0831953125,-1.0001373291015625,-0.0664215087890625,-0.00909423828125
1772536326248243200,5.0932431640625,-0.9986724853515625,-0.0642852783203125,-0.01123046875
1772536326258292000,5.1032919921875,-0.9991455078125,-0.0653839111328125,-0.0094146728515625
1772536326268340200,5.11334033203125,-1.001007080078125,-0.069305419921875,-0.0104217529296875
1772536326278388000,5.123387939453125,-0.9994354248046875,-0.070648193359375,-0.00909423828125
1772536326288437200,5.133437255859375,-1.0004119873046875,-0.07110595703125,-0.007904052734375
1772536326298485000,5.143485107421875,-1.00152587890625,-0.0710296630859375,-0.009368896484375
1772536326308533200,5.153533203125,-0.9969329833984375,-0.0703582763671875,-0.00860595703125
1772536326318582000,5.16358203125,-0.996124267578125,-0.071014404296875,-0.007476806640625
1772536326328630000,5.173630126953125,-0.999176025390625,-0.0718841552734375,-0.0069580078125
1772536326338678000,5.183677978515625,-0.99945068359375,-0.0735015869140625,-0.0068817138671875
1772536326348726000,5.19372607421875,-0.9940338134765625,-0.0719146728515625,-0.0101776123046875
1772536326358775000,5.203775146484375,-0.9925994873046875,-0.0720062255859375,-0.00738525390625
1772536326368823000,5.213822998046875,-1.0015716552734375,-0.0747833251953125,-0.004730224609375
1772536326378871000,5.22387109375,-1.00262451171875,-0.073944091796875,-0.0058135986328125
1772536326388920000,5.233920166015625,-0.997955322265625,-0.071533203125,-0.0057525634765625
1772536326398968000,5.243968017578125,-0.99896240234375,-0.0705718994140625,-0.0057525634765625
1772536326409016000,5.25401611328125,-1.004974365234375,-0.069854736328125,-0.004913330078125
1772536326419065000,5.264065185546875,-1.004058837890625,-0.068572998046875,-0.0075531005859375
1772536326429113000,5.274113037109375,-0.9981842041015625,-0.0651397705078125,-0.0079803466796875
1772536326439161000,5.2841611328125,-1.00048828125,-0.065277099609375,-0.006103515625
1772536326449210000,5.294210205078125,-1.003173828125,-0.0668182373046875,-0.0054779052734375
1772536326459258000,5.304258056640625,-1.00103759765625,-0.0652008056640625,-0.00579833984375
1772536326469306000,5.31430615234375,-1.000396728515625,-0.064422607421875,-0.006683349609375
1772536326479354000,5.32435400390625,-1.00274658203125,-0.06695556640625,-0.0074462890625
1772536326489403100,5.334403076171875,-1.002227783203125,-0.0688018798828125,-0.0072174072265625
1772536326499451100,5.344451171875,-1.0011749267578125,-0.0688629150390625,-0.007049560546875
1772536326509499100,5.3544990234375,-1.0023956298828125,-0.068115234375,-0.0085296630859375
1772536326519548200,5.364548095703125,-0.9992218017578125,-0.0666656494140625,-0.009368896484375
1772536326529596200,5.37459619140625,-0.9982757568359375,-0.0650482177734375,-0.010223388671875
1772536326539644000,5.384643798828125,-1.00042724609375,-0.066131591796875,-0.0108642578125
1772536326549692200,5.394692138671875,-1.0013580322265625,-0.066680908203125,-0.0109100341796875
1772536326559741000,5.404740966796875,-1.0006103515625,-0.0654754638671875,-0.009063720703125
1772536326569789200,5.4147890625,-1.0019378662109375,-0.065032958984375,-0.0091094970703125
1772536326579837200,5.424837158203125,-1.00140380859375,-0.064605712890625,-0.00933837890625
1772536326589886200,5.43488623046875,-0.9981689453125,-0.0630340576171875,-0.0095367431640625
1772536326599934200,5.444934326171875,-0.996795654296875,-0.062896728515625,-0.0084075927734375
1772536326609982000,5.45498193359375,-0.9975128173828125,-0.064727783203125,-0.00762939453125
1772536326620031200,5.46503125,-0.9985198974609375,-0.06610107421875,-0.00689697265625
1772536326630079000,5.475078857421875,-0.997955322265625,-0.0652313232421875,-0.0069732666015625
1772536326640127200,5.485127197265625,-0.99810791015625,-0.065673828125,-0.0061187744140625
1772536326650175000,5.495175048828125,-1.000091552734375,-0.06549072265625,-0.00811767578125
1772536326660224000,5.50522412109375,-0.999176025390625,-0.0636749267578125,-0.007843017578125
1772536326670272000,5.51527197265625,-1.0021209716796875,-0.0629119873046875,-0.007781982421875
1772536326680320000,5.525320068359375,-1.0032958984375,-0.0641632080078125,-0.0083160400390625
1772536326690369000,5.535369140625,-1.0012664794921875,-0.0641937255859375,-0.0060882568359375
1772536326700417000,5.5454169921875,-1.0030670166015625,-0.064453125,-0.0076751708984375
1772536326710465000,5.555465087890625,-1.002349853515625,-0.065704345703125,-0.0076446533203125
1772536326720514000,5.56551416015625,-1.001220703125,-0.066741943359375,-0.006378173828125
1772536326730562000,5.57556201171875,-1.0021209716796875,-0.066314697265625,-0.0073699951171875
1772536326740610000,5.585610107421875,-1.000885009765625,-0.0674591064453125,-0.0084381103515625
1772536326750659000,5.5956591796875,-0.9987945556640625,-0.068328857421875,-0.0071868896484375
1772536326760707000,5.60570703125,-1,-0.0675506591796875,-0.0074005126953125
1772536326770755000,5.615755126953125,-1.00433349609375,-0.066558837890625,-0.005767822265625
1772536326780803000,5.625802978515625,-1.0005950927734375,-0.0642242431640625,-0.0059967041015625
1772536326790852000,5.63585205078125,-0.998748779296875,-0.061981201171875,-0.00579833984375
1772536326800900000,5.645900146484375,-1.00482177734375,-0.061981201171875,-0.004852294921875
1772536326810948000,5.655947998046875,-1.009429931640625,-0.0627288818359375,-0.004913330078125
1772536326820997000,5.6659970703125,-1.0023956298828125,-0.0607452392578125,-0.0064544677734375
1772536326831045000,5.676045166015625,-0.9989013671875,-0.0603485107421875,-0.0074920654296875
1772536326841093000,5.686093017578125,-1.0053253173828125,-0.0633544921875,-0.0048675537109375
1772536326851142100,5.69614208984375,-1.006744384765625,-0.0654754638671875,-0.005340576171875
1772536326861190100,5.706190185546875,-1.0012054443359375,-0.064727783203125,-0.0071258544921875
1772536326871238000,5.71623779296875,-1.000152587890625,-0.0637969970703125,-0.008697509765625
1772536326881286100,5.7262861328125,-1.0000152587890625,-0.0670623779296875,-0.00860595703125
1772536326891335000,5.7363349609375,-1.000152587890625,-0.0700225830078125,-0.0070037841796875
1772536326901383200,5.746383056640625,-0.999542236328125,-0.07037353515625,-0.00872802734375
1772536326911431200,5.75643115234375,-0.995513916015625,-0.0692291259765625,-0.009552001953125
1772536326921480200,5.766480224609375,-0.9951629638671875,-0.0679779052734375,-0.0090179443359375
1772536326931528200,5.776528076171875,-0.999542236328125,-0.0695037841796875,-0.0085906982421875
1772536326941576000,5.786575927734375,-0.9993896484375,-0.06744384765625,-0.0090789794921875
1772536326951625200,5.796625244140625,-0.9954986572265625,-0.064910888671875,-0.0089263916015625
1772536326961673000,5.8066728515625,-0.9976959228515625,-0.065643310546875,-0.0084991455078125
1772536326971721200,5.81672119140625,-0.998077392578125,-0.0665130615234375,-0.0088348388671875
1772536326981770000,5.82677001953125,-0.995758056640625,-0.0660400390625,-0.0073089599609375
1772536326991818200,5.836818359375,-0.996978759765625,-0.0668792724609375,-0.0070037841796875
1772536327001866000,5.846865966796875,-0.997772216796875,-0.067108154296875,-0.0061187744140625
1772536327011918300,5.85691845703125,-0.9989776611328125,-0.06561279296875,-0.0057373046875
1772536327021967400,5.86696728515625,-1.0017547607421875,-0.0648345947265625,-0.006927490234375
1772536327032015400,5.877015380859375,-1.001983642578125,-0.0640716552734375,-0.0083770751953125
1772536327042063400,5.8870634765625,-1.000823974609375,-0.0637359619140625,-0.0079345703125
1772536327052112400,5.8971123046875,-1.000946044921875,-0.064239501953125,-0.0089263916015625
1772536327062160100,5.90716015625,-0.9996490478515625,-0.0662078857421875,-0.0078582763671875
1772536327072208400,5.91720849609375,-1.000732421875,-0.0680389404296875,-0.00537109375
1772536327082257200,5.927257080078125,-1.0012054443359375,-0.0684051513671875,-0.006622314453125
1772536327092305400,5.937305419921875,-0.9997100830078125,-0.0693206787109375,-0.005401611328125
1772536327102353400,5.947353515625,-1.003662109375,-0.07098388671875,-0.0054168701171875
1772536327112401200,5.957401123046875,-1.001678466796875,-0.0695953369140625,-0.006988525390625
1772536327122450400,5.967450439453125,-1.0012359619140625,-0.0682525634765625,-0.0062255859375
1772536327132498200,5.977498291015625,-1.005828857421875,-0.0678253173828125,-0.0075836181640625
1772536327142546400,5.98754638671875,-1.0040283203125,-0.0662384033203125,-0.0080108642578125
1772536327152595200,5.99759521484375,-1.003570556640625,-0.065216064453125,-0.0067138671875
1772536327162643500,6.0076435546875,-1.0024261474609375,-0.0655517578125,-0.0069580078125
1772536327172691500,6.01769140625,-1.000579833984375,-0.066650390625,-0.0056915283203125
1772536327182740500,6.027740478515625,-0.999664306640625,-0.066741943359375,-0.005645751953125
1772536327192788500,6.03778857421875,-1.0015716552734375,-0.067779541015625,-0.006103515625
1772536327202836200,6.047836181640625,-1.0001068115234375,-0.0664825439453125,-0.0068817138671875
1772536327212884500,6.057884521484375,-0.9978179931640625,-0.0641632080078125,-0.00665283203125
1772536327222933200,6.067933349609375,-0.9955596923828125,-0.0631866455078125,-0.008636474609375
1772536327232981500,6.0779814453125,-0.994171142578125,-0.0651397705078125,-0.008270263671875
1772536327243029200,6.088029296875,-0.9954986572265625,-0.0673065185546875,-0.006988525390625
1772536327253078500,6.09807861328125,-0.996551513671875,-0.0706329345703125,-0.0062103271484375
1772536327263126300,6.108126220703125,-0.9983978271484375,-0.0721893310546875,-0.00775146484375
1772536327273174300,6.11817431640625,-0.9985504150390625,-0.0711669921875,-0.0084228515625
1772536327283223300,6.128223388671875,-1.0003814697265625,-0.0702972412109375,-0.007659912109375
1772536327293271300,6.138271240234375,-0.998748779296875,-0.0684967041015625,-0.0109710693359375
1772536327303319600,6.148319580078125,-0.9980316162109375,-0.0667877197265625,-0.0102691650390625
1772536327313368300,6.158368408203125,-1.00225830078125,-0.066864013671875,-0.0079498291015625
1772536327323416600,6.16841650390625,-1.00213623046875,-0.068023681640625,-0.0069427490234375
1772536327333464300,6.17846435546875,-1.0015106201171875,-0.06939697265625,-0.006103515625
1772536327343512300,6.18851220703125,-1.0019073486328125,-0.0698089599609375,-0.0073394775390625
1772536327353561300,6.198561279296875,-1.0029144287109375,-0.0708160400390625,-0.006805419921875
1772536327363609300,6.208609375,-1.003265380859375,-0.0700531005859375,-0.0080108642578125
1772536327373657300,6.2186572265625,-1.001739501953125,-0.068389892578125,-0.008453369140625
1772536327383706400,6.228706298828125,-0.9998321533203125,-0.067657470703125,-0.0083770751953125
1772536327393754400,6.23875439453125,-0.999481201171875,-0.0678863525390625,-0.00738525390625
1772536327403802400,6.24880224609375,-1.0005035400390625,-0.0687103271484375,-0.008026123046875
1772536327413851100,6.25885107421875,-0.99969482421875,-0.0680084228515625,-0.0092315673828125
1772536327423899400,6.2688994140625,-0.998779296875,-0.068603515625,-0.0086669921875
1772536327433947400,6.278947509765625,-1.0006103515625,-0.0704498291015625,-0.0082855224609375
1772536327443995400,6.288995361328125,-1.0003814697265625,-0.0700531005859375,-0.0066986083984375
1772536327454044400,6.29904443359375,-0.9987945556640625,-0.06939697265625,-0.0076751708984375
1772536327464092200,6.309092041015625,-0.9982757568359375,-0.0691070556640625,-0.0079803466796875
1772536327474140400,6.319140380859375,-0.9993438720703125,-0.069183349609375,-0.0084381103515625
1772536327484189200,6.329189208984375,-0.9995880126953125,-0.0699920654296875,-0.0093536376953125
1772536327494237400,6.339237548828125,-1.001129150390625,-0.0712432861328125,-0.0093841552734375
1772536327504285400,6.349285400390625,-1.000640869140625,-0.071319580078125,-0.009521484375
1772536327514334500,6.35933447265625,-0.999542236328125,-0.07208251953125,-0.009185791015625
1772536327524382500,6.369382568359375,-0.99835205078125,-0.072723388671875,-0.009765625
1772536327534430200,6.37943017578125,-1.0002593994140625,-0.0728759765625,-0.0088348388671875
1772536327544478500,6.389478515625,-0.9994659423828125,-0.07275390625,-0.0098724365234375
1772536327554527200,6.39952734375,-0.9958648681640625,-0.0711517333984375,-0.0100555419921875
1772536327564575500,6.409575439453125,-1.0003204345703125,-0.0712738037109375,-0.0084991455078125
1772536327574623200,6.419623291015625,-1.001220703125,-0.0730438232421875,-0.0074310302734375
1772536327584672500,6.429672607421875,-0.998626708984375,-0.070343017578125,-0.0079498291015625
1772536327594720300,6.43972021484375,-1.000640869140625,-0.0674591064453125,-0.0082244873046875
1772536327604768300,6.449768310546875,-0.9993438720703125,-0.066650390625,-0.00927734375
1772536327614817300,6.4598173828125,-0.9965057373046875,-0.0667266845703125,-0.0088348388671875
1772536327624865300,6.469865234375,-0.997833251953125,-0.06695556640625,-0.008514404296875
1772536327634913500,6.47991357421875,-1.00128173828125,-0.070404052734375,-0.0076751708984375
1772536327644961300,6.489961181640625,-1.000091552734375,-0.0717315673828125,-0.0067901611328125
1772536327655010600,6.500010498046875,-0.9985809326171875,-0.0699920654296875,-0.00799560546875
1772536327665058300,6.510058349609375,-1.00469970703125,-0.0675811767578125,-0.007781982421875
1772536327675106300,6.520106201171875,-1.0059814453125,-0.0662384033203125,-0.0107879638671875
1772536327685155300,6.5301552734375,-0.9997406005859375,-0.0653839111328125,-0.0129547119140625
1772536327695203300,6.540203369140625,-0.997589111328125,-0.0652923583984375,-0.01171875
1772536327705251300,6.550251220703125,-1.002716064453125,-0.069091796875,-0.009307861328125
1772536327715300400,6.56030029296875,-1.0042724609375,-0.0702972412109375,-0.0097198486328125
1772536327725348400,6.570348388671875,-0.9989471435546875,-0.0681304931640625,-0.0094146728515625
1772536327735396400,6.580396240234375,-0.9984893798828125,-0.0705413818359375,-0.00811767578125
1772536327745445400,6.5904453125,-1.002044677734375,-0.0749969482421875,-0.006195068359375
1772536327755493400,6.600493408203125,-1.00201416015625,-0.0744171142578125,-0.007904052734375
1772536327765541400,6.610541259765625,-0.995086669921875,-0.0702667236328125,-0.010711669921875
1772536327775589400,6.62058935546875,-0.9957427978515625,-0.0703582763671875,-0.010284423828125
1772536327785638400,6.630638427734375,-1.00244140625,-0.072906494140625,-0.009033203125
1772536327795686400,6.640686279296875,-1.006317138671875,-0.0713348388671875,-0.009796142578125
1772536327805734400,6.650734375,-1.001861572265625,-0.06768798828125,-0.01275634765625
1772536327815783200,6.660783203125,-0.999267578125,-0.0680389404296875,-0.0111846923828125
1772536327825831400,6.67083154296875,-1.004241943359375,-0.0694122314453125,-0.00823974609375
1772536327835879400,6.68087939453125,-1.006988525390625,-0.0692901611328125,-0.007843017578125
1772536327845927400,6.690927490234375,-1.003448486328125,-0.0663299560546875,-0.0085601806640625
1772536327855976400,6.7009765625,-0.99951171875,-0.063720703125,-0.010772705078125
1772536327866024200,6.711024169921875,-0.9984588623046875,-0.06536865234375,-0.0107421875
1772536327876072400,6.721072509765625,-0.997711181640625,-0.068817138671875,-0.00982666015625
1772536327886121200,6.731121337890625,-0.9986724853515625,-0.07196044921875,-0.008514404296875
1772536327896169500,6.74116943359375,-1.001434326171875,-0.073974609375,-0.008026123046875
1772536327906217200,6.75121728515625,-0.9979705810546875,-0.073394775390625,-0.009857177734375
1772536327916266500,6.7612666015625,-0.9953765869140625,-0.070556640625,-0.0107574462890625
1772536327926314200,6.771314208984375,-0.997955322265625,-0.0702056884765625,-0.0117034912109375
1772536327936362200,6.7813623046875,-0.9994354248046875,-0.0731201171875,-0.0126953125
1772536327946411300,6.791411376953125,-0.9966583251953125,-0.0735626220703125,-0.0117340087890625
1772536327956459300,6.801459228515625,-0.998260498046875,-0.072265625,-0.0114898681640625
1772536327966507500,6.811507568359375,-0.997772216796875,-0.073150634765625,-0.011810302734375
1772536327976555300,6.82155517578125,-0.99627685546875,-0.073516845703125,-0.0099334716796875
1772536327986604500,6.8316044921875,-0.9978179931640625,-0.073699951171875,-0.010009765625
1772536327996652300,6.84165234375,-0.997955322265625,-0.073638916015625,-0.0101318359375
1772536328006696200,6.8516962890625,-0.9983673095703125,-0.0738983154296875,-0.0093841552734375
1772536328016745200,6.8617451171875,-0.9996795654296875,-0.072845458984375,-0.009918212890625
1772536328026793200,6.871793212890625,-0.998870849609375,-0.071990966796875,-0.0106201171875
1772536328036841200,6.88184130859375,-1.000946044921875,-0.072021484375,-0.00946044921875
1772536328046890200,6.89189013671875,-1.002227783203125,-0.071929931640625,-0.0092926025390625
1772536328056938200,6.901938232421875,-1.0045013427734375,-0.07073974609375,-0.0086212158203125
1772536328066986000,6.911986083984375,-1.0034332275390625,-0.0681610107421875,-0.009307861328125
1772536328077034200,6.9220341796875,-1.0031890869140625,-0.0665130615234375,-0.0102691650390625
1772536328087083000,6.9320830078125,-1.0032806396484375,-0.066375732421875,-0.009857177734375
1772536328097131300,6.94213134765625,-1.002532958984375,-0.067901611328125,-0.0109100341796875
1772536328107179300,6.95217919921875,-1.0032958984375,-0.0706329345703125,-0.01025390625
1772536328117228300,6.962228271484375,-1.004058837890625,-0.07330322265625,-0.0109100341796875
1772536328127276300,6.9722763671875,-1.0003204345703125,-0.0743408203125,-0.0100860595703125
1772536328137324000,6.982323974609375,-0.9988555908203125,-0.073760986328125,-0.01141357421875
1772536328147373300,6.992373291015625,-0.9976654052734375,-0.0735015869140625,-0.0138092041015625
1772536328157421000,7.002421142578125,-0.9971160888671875,-0.07281494140625,-0.0153045654296875
1772536328167469300,7.01246923828125,-0.9962921142578125,-0.0735931396484375,-0.0142974853515625
1772536328177517000,7.02251708984375,-0.9975128173828125,-0.0753936767578125,-0.0130767822265625
1772536328187566300,7.03256640625,-0.9972991943359375,-0.0764617919921875,-0.0132598876953125
1772536328197614000,7.042614013671875,-0.9943389892578125,-0.076904296875,-0.0119476318359375
1772536328207662000,7.052662109375,-0.9970703125,-0.0759429931640625,-0.0112762451171875
1772536328217711000,7.062711181640625,-0.999114990234375,-0.0743408203125,-0.01104736328125
1772536328227759000,7.072759033203125,-0.998565673828125,-0.0701446533203125,-0.0132904052734375
1772536328237807400,7.082807373046875,-0.996978759765625,-0.067657470703125,-0.013641357421875
1772536328247856000,7.092856201171875,-0.9987335205078125,-0.0680999755859375,-0.0115814208984375
1772536328257904400,7.102904296875,-0.998870849609375,-0.07086181640625,-0.010650634765625
1772536328267952000,7.1129521484375,-0.9981536865234375,-0.0717315673828125,-0.010498046875
1772536328278000000,7.123000244140625,-0.9973602294921875,-0.072418212890625,-0.009307861328125
1772536328288049200,7.133049072265625,-0.998931884765625,-0.073944091796875,-0.009063720703125
1772536328298097200,7.14309716796875,-1.0008697509765625,-0.074188232421875,-0.011566162109375
1772536328308145400,7.1531455078125,-1.0008697509765625,-0.072845458984375,-0.0102996826171875
1772536328318194200,7.163194091796875,-1.00225830078125,-0.072265625,-0.01190185546875
1772536328328242200,7.1732421875,-0.9979095458984375,-0.0716705322265625,-0.0121917724609375
1772536328338290200,7.183290283203125,-0.9978485107421875,-0.072235107421875,-0.010711669921875
1772536328348339200,7.193339111328125,-1.0004425048828125,-0.07342529296875,-0.010833740234375
1772536328358387200,7.20338720703125,-1.002044677734375,-0.0760345458984375,-0.0094451904296875
1772536328368435200,7.213435302734375,-1.0005645751953125,-0.0755157470703125,-0.0087890625
1772536328378483200,7.223483154296875,-0.9993438720703125,-0.0757293701171875,-0.0083465576171875
1772536328388532200,7.2335322265625,-1.0010223388671875,-0.0778045654296875,-0.0095062255859375
1772536328398580200,7.243580322265625,-0.999481201171875,-0.0756072998046875,-0.0094146728515625
1772536328408628200,7.253628173828125,-0.999481201171875,-0.0734405517578125,-0.010498046875
1772536328418677000,7.263677001953125,-0.9987945556640625,-0.0721282958984375,-0.0112457275390625
1772536328428725200,7.273725341796875,-1.001556396484375,-0.0700836181640625,-0.011199951171875
1772536328438773200,7.283773193359375,-1.0008697509765625,-0.0694122314453125,-0.0117034912109375
1772536328448822300,7.293822265625,-1.000457763671875,-0.0679473876953125,-0.0112457275390625
1772536328458870300,7.303870361328125,-1.00408935546875,-0.0673980712890625,-0.0121002197265625
1772536328468918000,7.31391796875,-1.0046844482421875,-0.0684967041015625,-0.011016845703125
1772536328478966300,7.32396630859375,-1.0026397705078125,-0.0677642822265625,-0.0098876953125
1772536328489015000,7.33401513671875,-1.00225830078125,-0.06805419921875,-0.009490966796875
1772536328499063300,7.344063232421875,-0.999725341796875,-0.070037841796875,-0.0118865966796875
1772536328509111000,7.354111083984375,-0.996490478515625,-0.07171630859375,-0.010345458984375
1772536328519160300,7.364160400390625,-0.995147705078125,-0.0742950439453125,-0.009918212890625
1772536328529208000,7.3742080078125,-0.996917724609375,-0.077911376953125,-0.0094757080078125
1772536328539256000,7.384256103515625,-0.99749755859375,-0.07977294921875,-0.0111236572265625
1772536328549305000,7.39430517578125,-0.9945831298828125,-0.0794219970703125,-0.0119171142578125
1772536328559353000,7.40435302734375,-0.991912841796875,-0.07684326171875,-0.011444091796875
1772536328569401300,7.4144013671875,-0.9951934814453125,-0.0761871337890625,-0.01239013671875
1772536328579449000,7.424448974609375,-0.9985504150390625,-0.0761871337890625,-0.0117034912109375
1772536328589498400,7.434498291015625,-0.9983062744140625,-0.074859619140625,-0.0110626220703125
1772536328599546000,7.444546142578125,-0.9980316162109375,-0.072479248046875,-0.010345458984375
1772536328609594000,7.454593994140625,-0.9997100830078125,-0.071044921875,-0.0098724365234375
1772536328619643100,7.46464306640625,-1.0008544921875,-0.070587158203125,-0.0091094970703125
1772536328629691100,7.474691162109375,-1.0020599365234375,-0.0701904296875,-0.0077056884765625
1772536328639739400,7.484739501953125,-1.0031890869140625,-0.071075439453125,-0.0077362060546875
1772536328649788200,7.4947880859375,-1.0029144287109375,-0.0723114013671875,-0.007354736328125
1772536328659836400,7.50483642578125,-1.0037841796875,-0.0716400146484375,-0.007598876953125
1772536328669884200,7.51488427734375,-1.00421142578125,-0.0707855224609375,-0.0081329345703125
1772536328679932200,7.52493212890625,-1.0030517578125,-0.06976318359375,-0.0086517333984375
1772536328689981200,7.534981201171875,-1.0018157958984375,-0.0703887939453125,-0.009002685546875
1772536328700029200,7.545029296875,-1.00396728515625,-0.071624755859375,-0.0093536376953125
1772536328710077200,7.5550771484375,-1.0021820068359375,-0.0718231201171875,-0.0091400146484375
1772536328720126200,7.565126220703125,-1.0005035400390625,-0.0729217529296875,-0.0093841552734375
1772536328730174200,7.57517431640625,-0.999603271484375,-0.0739898681640625,-0.009674072265625
1772536328740222200,7.58522216796875,-1.0002288818359375,-0.0736541748046875,-0.01043701171875
1772536328750270200,7.595270263671875,-0.9979248046875,-0.072509765625,-0.0125885009765625
1772536328760319200,7.6053193359375,-0.998809814453125,-0.0726470947265625,-0.0111846923828125
1772536328770367200,7.6153671875,-0.999847412109375,-0.074554443359375,-0.012725830078125
1772536328780415200,7.625415283203125,-0.9967041015625,-0.0725860595703125,-0.012176513671875
1772536328790464300,7.63546435546875,-0.9969024658203125,-0.0737762451171875,-0.0120391845703125
1772536328800512300,7.64551220703125,-0.9980316162109375,-0.0748443603515625,-0.01116943359375
1772536328810560300,7.655560302734375,-0.9977264404296875,-0.074462890625,-0.0113525390625
1772536328820609000,7.665609130859375,-0.998809814453125,-0.07440185546875,-0.012725830078125
1772536328830657300,7.6756572265625,-0.997161865234375,-0.07391357421875,-0.0132293701171875
1772536328840705300,7.685705322265625,-0.9968719482421875,-0.073333740234375,-0.0120849609375
1772536328850753300,7.695753173828125,-1.00146484375,-0.073822021484375,-0.006256103515625
1772536328860802000,7.705802001953125,-1.0052337646484375,-0.0744171142578125,-0.0102996826171875
1772536328870850000,7.71585009765625,-0.997711181640625,-0.069610595703125,-0.0082550048828125
1772536328880898300,7.725898193359375,-1.0016326904296875,-0.0675048828125,-0.0076751708984375
1772536328890947000,7.735947021484375,-1.0015411376953125,-0.0695648193359375,-0.010528564453125
1772536328900995300,7.745995361328125,-0.9999542236328125,-0.0703582763671875,-0.00933837890625
1772536328911043000,7.75604296875,-0.9993743896484375,-0.072113037109375,-0.0099639892578125
1772536328921092400,7.76609228515625,-0.997772216796875,-0.0740203857421875,-0.00738525390625
1772536328931140000,7.77614013671875,-1.0009765625,-0.0769805908203125,-0.0078125
1772536328941188000,7.78618798828125,-1.000732421875,-0.075714111328125,-0.009246826171875
1772536328951236400,7.796236328125,-0.997589111328125,-0.0736236572265625,-0.0083465576171875
1772536328961285000,7.80628515625,-0.99847412109375,-0.0738372802734375,-0.0108184814453125
1772536328971333400,7.81633349609375,-0.997467041015625,-0.0739593505859375,-0.01031494140625
1772536328981381000,7.826381103515625,-0.997222900390625,-0.07379150390625,-0.0088043212890625
1772536328991430400,7.836430419921875,-0.99713134765625,-0.0732574462890625,-0.00762939453125
1772536329001478100,7.84647802734375,-1.000091552734375,-0.073516845703125,-0.006103515625
1772536329011526100,7.856526123046875,-1.001556396484375,-0.0741424560546875,-0.0066986083984375
1772536329021575200,7.8665751953125,-0.9996795654296875,-0.0738525390625,-0.006195068359375
1772536329031623200,7.876623046875,-1.0008544921875,-0.074188232421875,-0.0051422119140625
1772536329041671200,7.886671142578125,-1.0025177001953125,-0.0745086669921875,-0.0051116943359375
1772536329051719200,7.89671923828125,-1.000152587890625,-0.0731201171875,-0.006500244140625
1772536329061768200,7.906768310546875,-1.0005950927734375,-0.07080078125,-0.0072784423828125
1772536329071816200,7.916816162109375,-1.002410888671875,-0.0711212158203125,-0.00762939453125
1772536329081864200,7.9268642578125,-1.004486083984375,-0.0714874267578125,-0.008453369140625
1772536329091913200,7.936913330078125,-1.0019683837890625,-0.0713958740234375,-0.0079498291015625
1772536329101961200,7.946961181640625,-1.0036163330078125,-0.070404052734375,-0.0068511962890625
1772536329112009200,7.95700927734375,-1.0050201416015625,-0.0712127685546875,-0.0064849853515625
1772536329122057200,7.96705712890625,-1.0021209716796875,-0.0711669921875,-0.0057373046875
1772536329132106200,7.977106201171875,-1.0007781982421875,-0.0695343017578125,-0.0064239501953125
1772536329142154200,7.987154296875,-0.9990081787109375,-0.0697784423828125,-0.0079803466796875
1772536329152202200,7.9972021484375,-0.995025634765625,-0.0718994140625,-0.007354736328125
1772536329162251300,8.007251220703125,-0.9947967529296875,-0.073577880859375,-0.007171630859375
1772536329172299300,8.01729931640625,-0.995758056640625,-0.0760345458984375,-0.007415771484375
1772536329182347300,8.02734716796875,-0.996795654296875,-0.0775909423828125,-0.0055999755859375
1772536329192396300,8.037396240234376,-0.9947509765625,-0.076263427734375,-0.007080078125
1772536329202444300,8.0474443359375,-0.9957122802734375,-0.0760955810546875,-0.00921630859375
1772536329212492300,8.0574921875,-0.995208740234375,-0.0754852294921875,-0.009521484375
1772536329222540000,8.0675400390625,-0.9981536865234375,-0.0739593505859375,-0.0096435546875
1772536329232589300,8.07758935546875,-0.99847412109375,-0.0735931396484375,-0.00909423828125
1772536329242637000,8.087636962890626,-1.0008087158203125,-0.0730438232421875,-0.0095672607421875
1772536329252685300,8.097685302734375,-1.0015106201171875,-0.0715179443359375,-0.01007080078125
1772536329262734000,8.107734130859376,-1.0012969970703125,-0.071380615234375,-0.0092315673828125
1772536329272782000,8.117781982421874,-1.0000762939453125,-0.0712127685546875,-0.00830078125
1772536329282830300,8.127830322265625,-1.001983642578125,-0.0704345703125,-0.0073089599609375
1772536329292879000,8.137879150390624,-1.0023345947265625,-0.071746826171875,-0.006744384765625
1772536329302927400,8.14792724609375,-1.002471923828125,-0.072265625,-0.006378173828125
1772536329312975000,8.15797509765625,-1.0023040771484375,-0.071807861328125,-0.005584716796875
1772536329323023000,8.168023193359375,-1.0012664794921875,-0.07183837890625,-0.00567626953125
1772536329333072100,8.178072021484375,-1.00103759765625,-0.0720977783203125,-0.0046844482421875
1772536329343120100,8.1881201171875,-1.0019378662109375,-0.0716400146484375,-0.005615234375
1772536329353168100,8.198168212890625,-1.0011444091796875,-0.0723724365234375,-0.006317138671875
1772536329363217200,8.208217041015626,-1.0005035400390625,-0.07318115234375,-0.0072784423828125
1772536329373265200,8.21826513671875,-1.000701904296875,-0.0739898681640625,-0.0081329345703125
1772536329383313200,8.228313232421876,-1.000244140625,-0.073516845703125,-0.0082550048828125
1772536329393361200,8.238361083984374,-0.9986572265625,-0.0736236572265625,-0.0091400146484375
1772536329403410200,8.24841015625,-1.0013275146484375,-0.0728302001953125,-0.0087890625
1772536329413458200,8.258458251953124,-1.0006256103515625,-0.0735626220703125,-0.0092315673828125
1772536329423506200,8.268506103515625,-0.9987030029296875,-0.0721588134765625,-0.0081329345703125
1772536329433555200,8.27855517578125,-0.9994049072265625,-0.0717315673828125,-0.0078887939453125
1772536329443603200,8.288603271484375,-1.0000152587890625,-0.0734100341796875,-0.0095672607421875
1772536329453651200,8.298651123046875,-0.9992523193359375,-0.0755767822265625,-0.007049560546875
1772536329463700200,8.3087001953125,-0.999847412109375,-0.0765838623046875,-0.00872802734375
1772536329473748200,8.318748291015625,-0.9970855712890625,-0.075897216796875,-0.008819580078125
1772536329483796200,8.328796142578126,-0.9956207275390625,-0.0753021240234375,-0.0092315673828125
1772536329493844200,8.33884423828125,-0.997802734375,-0.0750274658203125,-0.0100860595703125
1772536329503893200,8.348893310546876,-0.998321533203125,-0.074859619140625,-0.0081024169921875
1772536329513941200,8.358941162109375,-1.0001068115234375,-0.07464599609375,-0.005889892578125
1772536329523989200,8.3689892578125,-1.0005950927734375,-0.0736541748046875,-0.0069122314453125
1772536329534038300,8.379038330078124,-0.9978179931640625,-0.0724029541015625,-0.0067901611328125
1772536329544086300,8.389086181640625,-0.997406005859375,-0.07281494140625,-0.00518798828125
1772536329554134000,8.399134033203126,-0.997650146484375,-0.0727081298828125,-0.0055999755859375
1772536329564182300,8.409182373046875,-0.998199462890625,-0.0720367431640625,-0.0054473876953125
1772536329574231000,8.41923095703125,-0.9990234375,-0.073822021484375,-0.0040435791015625
1772536329584279300,8.429279296875,-1.0034027099609375,-0.07586669921875,-0.00335693359375
1772536329594327300,8.439327392578125,-1.0027923583984375,-0.0752716064453125,-0.00421142578125
1772536329604376300,8.449376220703124,-1.0004425048828125,-0.0732879638671875,-0.006011962890625
1772536329614424300,8.45942431640625,-1.000579833984375,-0.073333740234375,-0.007659912109375
1772536329624472000,8.46947216796875,-0.9993133544921875,-0.0738067626953125,-0.0064697265625
1772536329634521300,8.479521240234375,-0.9993743896484375,-0.0747528076171875,-0.0073699951171875
1772536329644569000,8.489569091796875,-1.001678466796875,-0.074737548828125,-0.00335693359375
1772536329654617300,8.499617431640624,-0.999725341796875,-0.075164794921875,-0.008331298828125
1772536329664665300,8.509665283203125,-0.999481201171875,-0.0757598876953125,-0.0033111572265625
1772536329674714000,8.519714111328126,-1.0046539306640625,-0.076507568359375,-0.0050811767578125
1772536329684762000,8.52976220703125,-1.0009002685546875,-0.0762939453125,-0.0045013427734375
1772536329694810000,8.53981005859375,-1.0005950927734375,-0.07391357421875,-0.0038604736328125
1772536329704859100,8.549859130859375,-0.9997406005859375,-0.074432373046875,-0.0074615478515625
1772536329714907100,8.5599072265625,-0.9993896484375,-0.0751190185546875,-0.0074005126953125
1772536329724955100,8.569955078125,-1.001129150390625,-0.0757598876953125,-0.007659912109375
1772536329735003100,8.580003173828125,-1.002410888671875,-0.0765838623046875,-0.0067138671875
1772536329745052200,8.59005224609375,-1,-0.0737152099609375,-0.0067291259765625
1772536329755100200,8.60010009765625,-0.9997711181640625,-0.07293701171875,-0.00738525390625
1772536329765148200,8.610148193359375,-1.001617431640625,-0.072021484375,-0.0076904296875
1772536329775197200,8.620197265625,-1.0009765625,-0.07342529296875,-0.006744384765625
1772536329785245200,8.6302451171875,-1,-0.073272705078125,-0.0065155029296875
1772536329795293200,8.640293212890626,-0.9969329833984375,-0.073699951171875,-0.0076904296875
1772536329805342200,8.65034228515625,-0.994476318359375,-0.07342529296875,-0.00689697265625
1772536329815390200,8.66039013671875,-0.994110107421875,-0.0749664306640625,-0.00592041015625
1772536329825438200,8.670438232421875,-0.9972991943359375,-0.07550048828125,-0.0048675537109375
1772536329835486200,8.680486328125,-0.9987335205078125,-0.0756072998046875,-0.0047454833984375
1772536329845535200,8.69053515625,-0.9968109130859375,-0.074951171875,-0.0037689208984375
1772536329855583200,8.700583251953125,-0.99676513671875,-0.0751495361328125,-0.005523681640625
1772536329865631000,8.710630859375,-0.9969635009765625,-0.076934814453125,-0.0065460205078125
1772536329875680300,8.72068017578125,-0.99761962890625,-0.077392578125,-0.0056304931640625
1772536329885728000,8.73072802734375,-1.000335693359375,-0.0770111083984375,-0.0068817138671875
1772536329895776300,8.7407763671875,-0.999969482421875,-0.077911376953125,-0.007110595703125
1772536329905825000,8.750824951171875,-1.000152587890625,-0.076171875,-0.0069122314453125
1772536329915873300,8.760873291015624,-1.0021514892578125,-0.075469970703125,-0.0073394775390625
1772536329925921300,8.77092138671875,-1.0005950927734375,-0.0741119384765625,-0.0079193115234375
1772536329935969000,8.780968994140625,-0.9980926513671875,-0.0732879638671875,-0.0057373046875
1772536329946018300,8.791018310546875,-0.9993743896484375,-0.0742950439453125,-0.0042266845703125
1772536329956066000,8.801066162109375,-0.9993438720703125,-0.07763671875,-0.005157470703125
1772536329966114300,8.8111142578125,-0.9991912841796875,-0.0774688720703125,-0.003692626953125
1772536329976163000,8.8211630859375,-1.00042724609375,-0.0763397216796875,-0.003662109375
1772536329986211300,8.83121142578125,-0.9998931884765625,-0.075286865234375,-0.005645751953125
1772536329996259300,8.84125927734375,-0.9999847412109375,-0.0740966796875,-0.0049285888671875
1772536330006306800,8.851306884765625,-1.0016632080078125,-0.0726776123046875,-0.0055999755859375
1772536330016356000,8.861356201171875,-1.001190185546875,-0.070953369140625,-0.0067596435546875
1772536330026403800,8.87140380859375,-1.0005950927734375,-0.071014404296875,-0.0064239501953125
1772536330036452000,8.8814521484375,-1.001922607421875,-0.0728912353515625,-0.005401611328125
1772536330046500900,8.8915009765625,-1.00311279296875,-0.0740966796875,-0.00482177734375
1772536330056548900,8.901548828125,-1.0014801025390625,-0.0748443603515625,-0.0063629150390625
1772536330066596900,8.911596923828125,-0.999237060546875,-0.0757293701171875,-0.006805419921875
1772536330076644900,8.921644775390625,-0.9994354248046875,-0.07647705078125,-0.004974365234375
1772536330086694000,8.93169384765625,-0.998748779296875,-0.0764007568359375,-0.00531005859375
1772536330096742000,8.941741943359375,-0.9950103759765625,-0.0754241943359375,-0.0067596435546875
1772536330106790100,8.9517900390625,-0.9949951171875,-0.0758819580078125,-0.0059814453125
1772536330116839000,8.9618388671875,-0.9970855712890625,-0.0762481689453125,-0.0054931640625
1772536330126887000,8.971886962890625,-0.9996490478515625,-0.0766754150390625,-0.0059661865234375
1772536330136935000,8.981934814453124,-0.9992828369140625,-0.07635498046875,-0.005767822265625
1772536330146984000,8.99198388671875,-0.996063232421875,-0.0749664306640625,-0.0051116943359375
1772536330157032000,9.002031982421874,-0.998016357421875,-0.0755462646484375,-0.0059661865234375
1772536330167080000,9.012079833984375,-1.0000457763671875,-0.0751953125,-0.0051727294921875
1772536330177128000,9.0221279296875,-0.998779296875,-0.075103759765625,-0.003692626953125
1772536330187177000,9.032177001953125,-1.00006103515625,-0.075927734375,-0.0031280517578125
1772536330197225000,9.042224853515625,-1.0011138916015625,-0.07635498046875,-0.00250244140625
1772536330207273000,9.05227294921875,-1.0020599365234375,-0.0760345458984375,-0.0026397705078125
1772536330217322000,9.062322021484375,-0.99920654296875,-0.0745849609375,-0.0044097900390625
1772536330227370000,9.072369873046876,-0.9965972900390625,-0.0735626220703125,-0.0047454833984375
1772536330237418000,9.08241796875,-0.997406005859375,-0.0743255615234375,-0.0039520263671875
1772536330247465700,9.0924658203125,-0.9984283447265625,-0.076568603515625,-0.002227783203125
1772536330257515000,9.102514892578125,-1.000732421875,-0.07696533203125,0.0000762939453125
1772536330267562800,9.112562744140625,-1.0048065185546875,-0.076019287109375,-0.000885009765625
1772536330277611000,9.122611083984374,-1.0019073486328125,-0.075469970703125,-0.0030670166015625
1772536330287659800,9.13265966796875,-0.9977874755859375,-0.074676513671875,-0.0029296875
1772536330297708000,9.1427080078125,-0.9982452392578125,-0.073150634765625,-0.0049896240234375
1772536330307756000,9.152756103515625,-0.9954681396484375,-0.074371337890625,-0.00592041015625
1772536330317805000,9.16280517578125,-0.995880126953125,-0.0756378173828125,-0.004913330078125
1772536330327853000,9.17285302734375,-0.9947052001953125,-0.078033447265625,-0.0038604736328125
1772536330337900800,9.18290087890625,-0.9957427978515625,-0.08001708984375,-0.002471923828125
1772536330347949000,9.192948974609376,-1.001678466796875,-0.07958984375,-0.0012969970703125
1772536330357997800,9.202997802734375,-1.0019073486328125,-0.07861328125,-0.003173828125
1772536330368046000,9.213046142578126,-0.9988250732421875,-0.0755767822265625,-0.004608154296875
1772536330378094000,9.223093994140624,-1.0035247802734375,-0.072662353515625,-0.0021820068359375
1772536330388143000,9.23314306640625,-0.9998626708984375,-0.073638916015625,-0.0047149658203125
1772536330398190800,9.24319091796875,-1.002227783203125,-0.0731201171875,-0.0008087158203125
1772536330408238800,9.25323876953125,-1.0025787353515625,-0.0740966796875,-0.003021240234375
1772536330418287900,9.263287841796876,-1.0010986328125,-0.0738525390625,-0.0013885498046875
1772536330428335900,9.2733359375,-1.0049896240234375,-0.0740203857421875,-0.00262451171875
1772536330438384000,9.283384033203125,-1.0026092529296875,-0.0720367431640625,-0.0020904541015625
1772536330448431900,9.293431884765624,-1.0000762939453125,-0.070465087890625,-0.00152587890625
1772536330458481000,9.30348095703125,-1.0024871826171875,-0.071563720703125,-0.002349853515625
1772536330468529000,9.31352880859375,-1.0002288818359375,-0.0720062255859375,-0.002532958984375
1772536330478577000,9.323576904296875,-0.999298095703125,-0.07208251953125,-0.0026397705078125
1772536330488626000,9.3336259765625,-0.9960479736328125,-0.0747222900390625,-0.0033721923828125
1772536330498674000,9.343673828125,-0.99444580078125,-0.0764923095703125,0.000885009765625
1772536330508722200,9.35372216796875,-0.99835205078125,-0.078125,0.0003204345703125
1772536330518770000,9.36377001953125,-0.9984588623046875,-0.07965087890625,0.001312255859375
1772536330528819000,9.37381884765625,-0.9944915771484375,-0.076812744140625,-0.003143310546875
1772536330538867000,9.383866943359376,-0.9883575439453125,-0.0735626220703125,-0.0065765380859375
1772536330548915000,9.3939150390625,-0.9820098876953125,-0.072021484375,-0.00396728515625
1772536330558964000,9.4039638671875,-0.997589111328125,-0.073089599609375,0.000091552734375
1772536330569012000,9.414011962890624,-1.0119476318359375,-0.07427978515625,-0.002960205078125
1772536330579059700,9.424059814453125,-1.0023956298828125,-0.0724334716796875,-0.0040740966796875
1772536330589108000,9.43410791015625,-1.00103759765625,-0.0727081298828125,-0.0027313232421875
1772536330599156700,9.44415673828125,-1.0008392333984375,-0.0758056640625,-0.002288818359375
1772536330609205000,9.454205078125,-0.9991607666015625,-0.0765228271484375,-0.00164794921875
1772536330619253000,9.4642529296875,-1.0042266845703125,-0.0795440673828125,-0.001739501953125
1772536330629302000,9.474302001953125,-1.0030975341796875,-0.08087158203125,-0.0013427734375
1772536330639350000,9.48435009765625,-1.0016326904296875,-0.0784912109375,-0.000579833984375
1772536330649397800,9.494397705078125,-1.00372314453125,-0.0742340087890625,0.0001373291015625
1772536330659446000,9.504446044921876,-1.000701904296875,-0.0705413818359375,-0.0000762939453125
1772536330669494800,9.514494873046875,-0.9967041015625,-0.0665283203125,0.0003662109375
1772536330679543000,9.52454296875,-0.99957275390625,-0.0657501220703125,-0.0023193359375
