time,seconds_elapsed,z,y,x
1772536321239160000,0.08416015625,0.01326739601790905,-0.007164375856518745,0.09705293923616409
1772536321249208000,0.0942080078125,0.009577537886798382,-0.018011998385190964,0.07673224806785583
1772536321259255800,0.104255859375,0.004320191219449043,-0.026635846123099327,0.06290564686059952
1772536321269305000,0.11430517578125,0.00234934501349926,-0.03810592368245125,0.05038147792220116
1772536321279352800,0.124352783203125,-0.004141577519476414,-0.05033888667821884,0.037435851991176605
1772536321289401000,0.134401123046875,-0.009942851960659027,-0.06899179518222809,0.023893777281045914
1772536321299449900,0.144449951171875,-0.008226444944739342,-0.07938823848962784,0.016066214069724083
1772536321309497900,0.154497802734375,-0.004713624715805054,-0.07760114222764969,0.01892608217895031
1772536321319546000,0.164546142578125,-0.0034283827990293503,-0.0697765052318573,0.0351569838821888
1772536321329595000,0.174594970703125,0.00252655241638422,-0.05236091464757919,0.05311320349574089
1772536321339643000,0.184642822265625,0.00460381805896759,-0.02850964665412903,0.07497455924749374
1772536321349691000,0.19469091796875,0.0012023691087961197,-0.03134066238999367,0.08700737357139587
1772536321359740000,0.204739990234375,0.0033547356724739075,-0.01426394097507,0.08608538657426834
1772536321369788000,0.214787841796875,0.002040416467934847,0.010556941851973534,0.0871860533952713
1772536321379836000,0.2248359375,-0.002469114027917385,0.01035933569073677,0.08235134929418564
1772536321389885000,0.234885009765625,0.002174855675548315,-0.007895602844655514,0.060367777943611145
1772536321399933000,0.244932861328125,0.014233116060495377,-0.025152087211608887,0.037083227187395096
1772536321409981000,0.25498095703125,0.025150299072265625,-0.032085299491882324,0.0204695463180542
1772536321420030000,0.265030029296875,0.024978257715702057,-0.03379371762275696,0.010255523957312107
1772536321430078000,0.275077880859375,0.02198738418519497,-0.03637179732322693,0.002841755747795105
1772536321440126000,0.2851259765625,0.02005632594227791,-0.03317573666572571,-0.005710719618946314
1772536321450175000,0.295175048828125,0.018153116106987,-0.017452554777264595,-0.004263722337782383
1772536321460223000,0.305222900390625,0.018199987709522247,0.0001314994879066944,0.0004785684868693352
1772536321470271000,0.31527099609375,0.011089779436588287,-0.0003274637274444103,0.001527506159618497
1772536321480320000,0.325320068359375,0.009684162214398384,-0.008963296189904213,-0.004966079257428646
1772536321490368000,0.335367919921875,0.00822470337152481,-0.01595998741686344,-0.005878990050405264
1772536321500416000,0.345416015625,0.010461226105690002,-0.019071359187364578,-0.007655850611627102
1772536321510464000,0.355464111328125,0.006732156500220299,-0.01786639913916588,-0.005871963687241077
1772536321520513000,0.365512939453125,0.009580140933394432,-0.017466925084590912,-0.004556628875434399
1772536321530561000,0.37556103515625,0.008564095944166183,-0.006621513515710831,0.002753728535026312
1772536321540608800,0.38560888671875,0.01317962072789669,-0.00821275170892477,0.0067612528800964355
1772536321550658000,0.395657958984375,0.013408146798610687,-0.014645067043602467,0.007470349781215191
1772536321560705800,0.405705810546875,0.0185933206230402,-0.018316499888896942,0.004631686024367809
1772536321570754000,0.415754150390625,0.015364260412752628,-0.020786289125680923,0.005495472811162472
1772536321580802800,0.425802734375,0.007441889028996229,-0.025598620995879173,0.005978304427117109
1772536321590850800,0.435850830078125,0.0035711503587663174,-0.021182391792535782,0.013831393793225288
1772536321600899000,0.445899169921875,-0.003578105941414833,-0.007550468202680349,0.013454290106892586
1772536321610947800,0.45594775390625,-0.009388652630150318,-0.009736467152833939,0.012023760937154293
1772536321620996000,0.46599609375,-0.009615288116037846,-0.021273545920848846,-0.00025128060951828957
1772536321631043800,0.4760439453125,-0.006985567510128021,-0.02579413168132305,-0.002471085637807846
1772536321641093000,0.486093017578125,-0.011391500942409039,-0.014193135313689709,0.0017095443326979876
1772536321651140900,0.496140869140625,-0.009220294654369354,0.00033964868634939194,0.004599420819431543
1772536321661188900,0.50618896484375,-0.006226368248462677,-0.003374395426362753,0.003313913010060787
1772536321671238000,0.51623779296875,-0.002637426368892193,-0.007222322281450033,0.006597468629479408
1772536321681286000,0.526285888671875,-0.0023410161957144737,-0.011238369159400463,0.009517092257738113
1772536321691334000,0.536333984375,-0.008962325751781464,-0.01752438396215439,0.005931801162660122
1772536321701383000,0.5463828125,-0.006843249313533306,-0.020855732262134552,0.0029685022309422493
1772536321711431000,0.556430908203125,-0.0050405533984303474,-0.015921682119369507,0.017831113189458847
1772536321721479000,0.56647900390625,-0.012349599972367287,0.006068571005016565,0.035871900618076324
1772536321731528000,0.57652783203125,-0.010625424794852734,0.019754579290747643,0.035958923399448395
1772536321741576000,0.586575927734375,-0.007313252426683903,0.005840895231813192,0.032296013087034225
1772536321751624000,0.5966240234375,-0.0039435457438230515,-0.0038809548132121563,0.025873081758618355
1772536321761672000,0.606671875,-0.007623234763741493,-0.00239784037694335,0.023747079074382782
1772536321771721000,0.616720947265625,-0.012158758006989956,0.0016489443369209766,0.018658967688679695
1772536321781769000,0.62676904296875,-0.010993358679115772,-0.005663563031703234,0.014095107093453407
1772536321791817000,0.63681689453125,-0.010807114653289318,-0.004626990295946598,0.01184389553964138
1772536321801866000,0.646865966796875,-0.006644060835242271,-0.0007640752010047436,0.007138089742511511
1772536321811914000,0.6569140625,-0.003069504164159298,-0.005768623203039169,-0.0032523968257009983
1772536321821962000,0.6669619140625,-0.0025006532669067383,-0.015061190351843834,-0.005455097183585167
1772536321832011000,0.677010986328125,-0.0028807474300265312,-0.02608647570014,-0.0031457068398594856
1772536321842059000,0.68705908203125,0.001003472600132227,-0.03360937535762787,-0.01228674128651619
1772536321852107000,0.69710693359375,0.005759677849709988,-0.03728765621781349,-0.010384567081928253
1772536321862156000,0.707156005859375,0.0058859121054410934,-0.04051327705383301,-0.005428690928965807
1772536321872204000,0.7172041015625,0.005931294523179531,-0.048358574509620667,-0.0007267567561939359
1772536321882252000,0.727251953125,0.011114871129393578,-0.06751575320959091,-0.0026687337085604668
1772536321892300800,0.73730078125,0.01635415107011795,-0.08133566379547119,-0.008229701779782772
1772536321902349000,0.74734912109375,0.027898157015442848,-0.07281408458948135,-0.0015909739304333925
1772536321912396800,0.757396728515625,0.026890264824032784,-0.0488305501639843,0.018541788682341576
1772536321922446000,0.767446044921875,0.019276820123195648,-0.03583778813481331,0.025569871068000793
1772536321932493800,0.777493896484375,0.019210334867239,-0.032647982239723206,0.02876773476600647
1772536321942541800,0.787541748046875,0.01657167449593544,-0.032414425164461136,0.036321260035037994
1772536321952590800,0.7975908203125,0.007328923791646957,-0.014701798558235168,0.044052205979824066
1772536321962638800,0.807638916015625,-0.0010544415563344955,0.003391717094928026,0.052843302488327026
1772536321972687000,0.81768701171875,-0.007529548369348049,0.0054562888108193874,0.049978580325841904
1772536321982734800,0.82773486328125,-0.007126878947019577,-0.0120228361338377,0.03743269667029381
1772536321992784100,0.8377841796875,-0.005438430234789848,-0.02405817247927189,0.030517879873514175
1772536322002832100,0.84783203125,-0.005609138868749142,-0.03116614930331707,0.022518809884786606
1772536322012880100,0.857880126953125,-0.01132497563958168,-0.027622712776064873,0.019960392266511917
1772536322022929200,0.86792919921875,-0.015633970499038696,-0.014709045179188251,0.018920693546533585
1772536322032977200,0.87797705078125,-0.02001124806702137,-0.004516162443906069,0.011957777664065361
1772536322043025200,0.888025146484375,-0.029129376634955406,-0.010784710757434368,0.0009695752523839474
1772536322053074200,0.89807421875,-0.03254035860300064,-0.025128241628408432,-0.016703736037015915
1772536322063122200,0.9081220703125,-0.030766157433390617,-0.03684961050748825,-0.02786397933959961
1772536322073170200,0.918170166015625,-0.028799574822187424,-0.028368409723043442,-0.024522162973880768
1772536322083219200,0.92821923828125,-0.028146304190158844,-0.016654228791594505,-0.02483854629099369
1772536322093267200,0.93826708984375,-0.027452604845166206,-0.0162111334502697,-0.02558802254498005
1772536322103315200,0.948315185546875,-0.029279800131917,-0.019060982391238213,-0.03298548236489296
1772536322113364200,0.9583642578125,-0.026182498782873154,-0.021811725571751595,-0.03267870843410492
1772536322123412200,0.968412109375,-0.02020157128572464,-0.010649885050952435,-0.025926264002919197
1772536322133460200,0.978460205078125,-0.015811890363693237,0.002711983397603035,-0.021275628358125687
1772536322143508200,0.98850830078125,-0.013133017346262932,0.00942528061568737,-0.013956993818283081
1772536322153557200,0.99855712890625,-0.013965028338134289,0.012285478413105011,-0.010168625973165035
1772536322163605200,1.008605224609375,-0.0154801020398736,0.0009028618223965168,-0.017711231485009193
1772536322173653200,1.0186533203125,-0.013141265138983727,-0.02203250117599964,-0.01956663466989994
1772536322183702300,1.028702392578125,-0.009042661637067795,-0.023689519613981247,-0.011065559461712837
1772536322193750000,1.03875,-0.005042271688580513,-0.008750995621085167,-0.000277830520644784
1772536322203798300,1.04879833984375,-0.0035903165116906166,0.004685983061790466,0.008983578532934189
1772536322213847000,1.058846923828125,0.00020793918520212173,0.006155303213745356,0.01763198897242546
1772536322223895300,1.068895263671875,0.0015531014651060104,0.014492595568299294,0.02028130181133747
1772536322233943300,1.078943359375,-0.005485203117132187,0.010341159999370575,0.015461431816220284
1772536322243992000,1.088991943359375,-0.00719095766544342,-0.013424623757600784,-0.0011950434418395162
1772536322254040300,1.099040283203125,-0.004554428160190582,-0.023433847352862358,-0.005351971834897995
1772536322264088000,1.109088134765625,0.0008898722007870674,-0.002273701597005129,0.004212238825857639
1772536322274137300,1.119137451171875,-0.004758276045322418,0.019175278022885323,0.013566961511969566
1772536322284185000,1.12918505859375,-0.00696816761046648,0.014218870550394058,0.009409233927726746
1772536322294233000,1.139233154296875,-0.0062130047008395195,0.00203852541744709,-0.005987422540783882
1772536322304282000,1.1492822265625,-0.011520151980221272,-0.009767800569534302,-0.011461017653346062
1772536322314330000,1.159330078125,-0.012622692622244358,-0.011736399494111538,-0.022216418758034706
1772536322324378400,1.16937841796875,-0.012433609925210476,-0.009419183246791363,-0.02308167889714241
1772536322334426000,1.179426025390625,-0.013412414118647575,-0.002645514439791441,-0.024445483461022377
1772536322344475400,1.189475341796875,-0.009454159066081047,-0.004813061095774174,-0.027992812916636467
1772536322354523100,1.199523193359375,-0.012558979913592339,-0.0005542444996535778,-0.027380142360925674
1772536322364571100,1.209571044921875,-0.010846566408872604,0.003701486624777317,-0.029553016647696495
1772536322374620200,1.2196201171875,-0.006126922555267811,0.007001390215009451,-0.021229123696684837
1772536322384668200,1.229668212890625,-0.003858707845211029,0.005111078266054392,-0.017051156610250473
1772536322394716200,1.239716064453125,0.001189960166811943,0.006624407134950161,-0.014240292832255363
1772536322404765200,1.24976513671875,0.0047487420961260796,0.007112830877304077,-0.00940718688070774
1772536322414813200,1.259813232421875,0.000935286283493042,0.0043992530554533005,-0.0028000702150166035
1772536322424861200,1.269861083984375,0.002532916609197855,-0.000343570951372385,-0.0015017790719866753
1772536322434910200,1.27991015625,0.004021135624498129,-0.0054426779970526695,0.00026152050122618675
1772536322444958200,1.289958251953125,0.0029108640737831593,-0.009274434298276901,-0.0007621987024322152
1772536322455006200,1.300006103515625,0.004753113258630037,-0.0028555034659802914,0.003168507246300578
1772536322465055200,1.31005517578125,0.011123394593596458,0.008097279816865921,0.005659095011651516
1772536322475103200,1.320103271484375,0.0075837671756744385,0.0050910403952002525,0.005676689557731152
1772536322485151200,1.330151123046875,0.007415722124278545,-0.013058135285973549,0.0024010019842535257
1772536322495200300,1.3402001953125,0.010238561779260635,-0.007032044697552919,0.010474517941474915
1772536322505248300,1.350248291015625,0.009961859323084354,0.007277119904756546,0.018887976184487343
1772536322515296300,1.360296142578125,0.010275870561599731,0.010013822466135025,0.02143971621990204
1772536322525345000,1.370344970703125,0.013563010841608047,-0.0002337559126317501,0.022269291803240776
1772536322535393300,1.380393310546875,0.01131823193281889,-0.007158240769058466,0.019855402410030365
1772536322545441000,1.39044091796875,0.008949882350862026,-0.001006338745355606,0.014806580729782581
1772536322555489300,1.4004892578125,0.005042852833867073,0.0008718036115169525,0.01079585961997509
1772536322565538000,1.4105380859375,0.005014889873564243,-0.007171741686761379,0.00021618581376969814
1772536322575586000,1.4205859375,0.007463171612471342,-0.010071353986859322,-0.010253786109387875
1772536322585634300,1.43063427734375,0.00594543619081378,-0.01282799243927002,-0.014274094253778458
1772536322595683000,1.44068310546875,0.004146259743720293,-0.01685383915901184,-0.011832180432975292
1772536322605731300,1.4507314453125,0.00008840113878250122,-0.007184698712080717,-0.000013338401913642883
1772536322615779000,1.460779052734375,-0.0026958081871271133,0.019908299669623375,0.01140543632209301
1772536322625828400,1.470828369140625,-0.0022638430818915367,0.02787994034588337,0.018101155757904053
1772536322635876000,1.4808759765625,-0.0058994898572564125,0.012470472604036331,0.012296468019485474
1772536322645924000,1.490924072265625,-0.0033969171345233917,-0.012125151231884956,0.0005125128664076328
1772536322655973000,1.50097314453125,-0.00433530006557703,-0.019367245957255363,-0.0017476696521043777
1772536322666021000,1.511021240234375,-0.004083631560206413,-0.010430742986500263,0.006348606664687395
1772536322676069400,1.5210693359375,-0.004281823523342609,0.007858460769057274,0.01644032634794712
1772536322686118100,1.5311181640625,-0.0001387437805533409,0.007566045504063368,0.020669160410761833
1772536322696166400,1.54116650390625,0.004320548847317696,0.0021274290047585964,0.013029390946030617
1772536322706214100,1.551214111328125,0.002276039682328701,-0.004777348600327969,0.0019708811305463314
1772536322716262100,1.56126220703125,0.00020893104374408722,-0.02036532573401928,-0.012487441301345825
1772536322726311200,1.571311279296875,0.0049469610676169395,-0.01862335205078125,-0.010843471623957157
1772536322736359200,1.581359130859375,0.004968799185007811,0.009006677195429802,0.005813268944621086
1772536322746407200,1.5914072265625,0.003764517605304718,0.026006700471043587,0.01611970365047455
1772536322756456200,1.601456298828125,0.004120933823287487,0.016394656151533127,0.01752478815615177
1772536322766504200,1.611504150390625,0.00040156301110982895,0.0037041609175503254,0.013998230919241905
1772536322776552200,1.62155224609375,-0.005513439886271954,-0.018524320796132088,0.002306705806404352
1772536322786601200,1.631601318359375,-0.0027836998924613,-0.02858094871044159,-0.004499268718063831
1772536322796649200,1.641649169921875,0.0002961987629532814,-0.014128019101917744,0.007186661474406719
1772536322806697200,1.651697265625,-0.0028684353455901146,0.006775664631277323,0.022307557985186577
1772536322816746200,1.661746337890625,0.000005217269062995911,0.013542058877646923,0.03642851859331131
1772536322826794200,1.671794189453125,-0.0022787097841501236,0.020763486623764038,0.0447239987552166
1772536322836842200,1.68184228515625,0.0008774092420935631,0.016366615891456604,0.04339698702096939
1772536322846891300,1.691891357421875,0.002721381839364767,0.006647677160799503,0.042281124740839005
1772536322856939300,1.701939208984375,0.0031486665830016136,0.0045420583337545395,0.0373702347278595
1772536322866987300,1.7119873046875,0.0052781300619244576,0.0029638689011335373,0.030090216547250748
1772536322877036000,1.7220361328125,0.004757470916956663,-0.0002474128268659115,0.029237838461995125
1772536322887084300,1.732084228515625,0.002910302486270666,0.003074614331126213,0.02964104153215885
1772536322897132000,1.742132080078125,-0.0013200808316469193,0.008595125749707222,0.032355088740587234
1772536322907180300,1.75218017578125,-0.008627528324723244,0.0058486079797148705,0.02902880124747753
1772536322917229000,1.76222900390625,-0.010357131250202656,-0.0038970995228737593,0.024818815290927887
1772536322927277000,1.772277099609375,-0.012083658017218113,-0.008101431652903557,0.0206267349421978
1772536322937325300,1.7823251953125,-0.011047324165701866,-0.01139061152935028,0.016434960067272186
1772536322947374000,1.7923740234375,-0.0073692332953214645,-0.0012647402472794056,0.016886631026864052
1772536322957422300,1.80242236328125,-0.006228274665772915,0.013812278397381306,0.018840428441762924
1772536322967470000,1.812469970703125,-0.005386450327932835,0.018048301339149475,0.017574628815054893
1772536322977519400,1.822519287109375,-0.004799344576895237,0.011673098430037498,0.014015375636518002
1772536322987567000,1.832567138671875,-0.0015835780650377274,0.0054993582889437675,0.005365161225199699
1772536322997616000,1.8426162109375,-0.0033856285735964775,0.005679231137037277,0.0000608004629611969
1772536323007665200,1.8526650390625,-0.0025003934279084206,-0.0017118393443524837,-0.0030995728448033333
1772536323017713200,1.862713134765625,-0.005392417311668396,-0.007622283883392811,-0.0035081421956419945
1772536323027761200,1.87276123046875,-0.0019449545070528984,-0.0007918081246316433,0.0005246826913207769
1772536323037810200,1.88281005859375,-0.005942837335169315,0.0038868882693350315,0.006557070650160313
1772536323047858000,1.89285791015625,-0.008178827352821827,0.003299395088106394,0.0066292425617575645
1772536323057906200,1.90290625,-0.004798742942512035,-0.005026712082326412,0.0032494247425347567
1772536323067954200,1.9129541015625,-0.00425439327955246,-0.002345707733184099,-0.0007839328609406948
1772536323078003200,1.923003173828125,-0.0026448937132954597,-0.004145325161516666,0.0055571552366018295
1772536323088051200,1.93305126953125,-0.00487156305462122,-0.0021024146117269993,0.008100474253296852
1772536323098099200,1.94309912109375,-0.00305250845849514,-0.0004985393024981022,0.009123559109866619
1772536323108148200,1.953148193359375,-0.005345224402844906,-0.00188418198376894,0.014195815660059452
1772536323118196000,1.963196044921875,-0.003984990529716015,0.00029097776859998703,0.022892510518431664
1772536323128244200,1.973244140625,-0.00476742722094059,0.0152893690392375,0.033977121114730835
1772536323138293000,1.98329296875,-0.006578219123184681,0.019172945991158485,0.04088044539093971
1772536323148341200,1.99334130859375,-0.005063412711024284,0.01293928362429142,0.03994886949658394
1772536323158389000,2.003388916015625,-0.006216146983206272,0.0052282484248280525,0.03454967588186264
1772536323168438300,2.013438232421875,-0.015596332959830761,0.005568600259721279,0.02642757073044777
1772536323178486000,2.023486083984375,-0.014923549257218838,0.0026352028362452984,0.026165924966335297
1772536323188534000,2.033533935546875,-0.01048485841602087,0.007217970211058855,0.018510667607188225
1772536323198583000,2.0435830078125,-0.008683133870363235,0.004048100207000971,0.009905235841870308
1772536323208631000,2.053631103515625,-0.009864779189229012,-0.000003366265445947647,-0.0013847020454704762
1772536323218679300,2.06367919921875,-0.007140787318348885,0.0025041098706424236,-0.008633702993392944
1772536323228728000,2.07372802734375,-0.01547941192984581,0.0014950376935303211,-0.014503843151032925
1772536323238776300,2.0837763671875,-0.017805000767111778,0.012408019974827766,-0.009265569970011711
1772536323248824000,2.093823974609375,-0.01619618572294712,0.03272207826375961,-0.0019432081608101726
1772536323258872000,2.1038720703125,-0.013145778328180313,0.03543401509523392,-0.003999535460025072
1772536323268921000,2.113921142578125,-0.013697318732738495,0.013523392379283905,-0.010824684053659439
1772536323278969000,2.123968994140625,-0.011505026370286942,-0.007703639101237059,-0.022870860993862152
1772536323289017000,2.13401708984375,-0.010551881045103073,-0.01440548337996006,-0.025577697902917862
1772536323299066000,2.144066162109375,-0.01329919882118702,-0.0050641801208257675,-0.014788965694606304
1772536323309114000,2.154114013671875,-0.009612850844860077,0.0040161339566111565,0.0007452529389411211
1772536323319162000,2.164162109375,-0.005710497498512268,0.018766367807984352,0.012443927116692066
1772536323329211000,2.1742109375,-0.0028808889910578728,0.029683465138077736,0.0196634903550148
1772536323339259100,2.184259033203125,-0.0019908295944333076,0.024276982992887497,0.00663276482373476
1772536323349307100,2.19430712890625,-0.007648714818060398,-0.0010526059195399284,-0.010183765552937984
1772536323359356200,2.204356201171875,-0.0028896676376461983,-0.023110786452889442,-0.021029306575655937
1772536323369404200,2.214404052734375,-0.0010438309982419014,-0.011278361082077026,-0.0069358572363853455
1772536323379452200,2.2244521484375,-0.007345100864768028,0.017645467072725296,0.007837395183742046
1772536323389500200,2.234500244140625,-0.003033708781003952,0.025939881801605225,0.02246267721056938
1772536323399549000,2.244548828125,0.0032699243165552616,0.029175283387303352,0.03807983919978142
1772536323409597200,2.25459716796875,-0.0005413256585597992,0.02741999365389347,0.04205966740846634
1772536323419645200,2.264645263671875,-0.0012940922752022743,0.01721513643860817,0.0284851286560297
1772536323429694200,2.274694091796875,0.006656242534518242,-0.003993479534983635,0.015628451481461525
1772536323439742200,2.2847421875,0.010359441861510277,-0.0011373991146683693,0.006739355623722076
1772536323449790000,2.2947900390625,0.01013120822608471,0.00445390772074461,-0.0020986110903322697
1772536323459839200,2.304839111328125,0.00494304858148098,0.003865538164973259,-0.012928767129778862
1772536323469887000,2.314886962890625,0.007779315114021301,0.003040490671992302,-0.02096938155591488
1772536323479935200,2.324935302734375,0.011555595323443413,0.014612365514039993,-0.017828144133090973
1772536323489984000,2.33498388671875,0.0054937079548835754,0.024054868146777153,-0.025000035762786865
1772536323500032300,2.3450322265625,0.004284799098968506,0.00456202682107687,-0.041702933609485626
1772536323510080000,2.355080078125,0.007079786621034145,-0.010981779545545578,-0.048138197511434555
1772536323520129300,2.36512939453125,0.011407678946852684,0.00296358997002244,-0.034638673067092896
1772536323530177000,2.375177001953125,0.003451219294220209,0.024278465658426285,-0.02336311526596546
1772536323540225000,2.38522509765625,0.004045933950692415,0.026400774717330933,-0.016405975446105003
1772536323550273300,2.395273193359375,0.00699511868879199,0.0237882137298584,-0.014024842530488968
1772536323560322000,2.405322021484375,0.0026307511143386364,0.015819814056158066,-0.01457445789128542
1772536323570370300,2.415370361328125,0.0016115596517920494,0.010282304137945175,-0.012676423415541649
1772536323580418000,2.42541796875,0.005595465190708637,0.013877361081540585,-0.010386882349848747
1772536323590467300,2.43546728515625,0.005696665495634079,0.022284958511590958,-0.003773720934987068
1772536323600515000,2.44551513671875,0.0019905860535800457,0.021860424429178238,-0.005036715418100357
1772536323610563000,2.45556298828125,0.002495255321264267,0.011329753324389458,-0.008979525417089462
1772536323620612000,2.465612060546875,0.003720538690686226,0.004903774242848158,-0.013475719839334488
1772536323630660000,2.47566015625,0.002612663432955742,0.00693150470033288,-0.01547442190349102
1772536323640708000,2.4857080078125,0.007575565483421087,0.006453302688896656,-0.009990625083446503
1772536323650757000,2.495757080078125,0.009790250100195408,0.008050133474171162,-0.0024317752104252577
1772536323660805000,2.50580517578125,0.012910798192024231,0.009651889093220234,0.0035035512410104275
1772536323670853000,2.51585302734375,0.012733964249491692,0.008512054570019245,0.0009490472730249166
1772536323680902000,2.52590185546875,0.012176298536360264,0.005402548238635063,-0.0003841312136501074
1772536323690950100,2.5359501953125,0.0131465382874012,0.004211628343909979,-0.004256879910826683
1772536323700998100,2.545998046875,0.014536993578076363,-0.0005388977006077766,-0.007666362449526787
1772536323711047200,2.556047119140625,0.014841658994555473,0.002401498146355152,-0.009115920402109623
1772536323721095200,2.56609521484375,0.014344640076160431,0.003154297824949026,-0.011351069435477257
1772536323731143000,2.576142822265625,0.012064707465469837,0.006754093337804079,-0.007887362502515316
1772536323741191200,2.586191162109375,0.006049691699445248,0.00854826346039772,-0.008112133480608463
1772536323751240000,2.596239990234375,0.004781494382768869,0.009595684707164764,-0.012277849949896336
1772536323761288200,2.6062880859375,0.0005115391686558723,0.005025323946028948,-0.014569888822734356
1772536323771336200,2.616336181640625,-0.002818477340042591,0.000012456439435482025,-0.015004782937467098
1772536323781385200,2.62638525390625,-0.005839661695063114,-0.00040946807712316513,-0.010822821408510208
1772536323791433200,2.63643310546875,-0.008582985028624535,0.0024041617289185524,-0.018441591411828995
1772536323801481000,2.64648095703125,-0.015237015672028065,0.0003565833903849125,-0.01800055243074894
1772536323811530200,2.6565302734375,-0.013590383343398571,0.0051276362501084805,-0.013957075774669647
1772536323821578000,2.666577880859375,-0.019719429314136505,0.011772708967328072,-0.018025074154138565
1772536323831626200,2.676626220703125,-0.02180628292262554,-0.0015116706490516663,-0.02635464258491993
1772536323841675000,2.686675048828125,-0.016577063128352165,-0.010769249871373177,-0.030874211341142654
1772536323851723300,2.69672314453125,-0.015134429559111595,0.0005262810736894608,-0.017843099310994148
1772536323861771000,2.70677099609375,-0.018028128892183304,0.02012537606060505,-0.011040013283491135
1772536323871819000,2.716819091796875,-0.015888279303908348,0.015179086476564407,-0.01554927695542574
1772536323881868000,2.726867919921875,-0.014060424640774727,0.0007416848093271255,-0.020038895308971405
1772536323891916000,2.736916015625,-0.008999353274703026,0.00007243268191814423,-0.017161883413791656
1772536323901964300,2.74696435546875,-0.013165123760700226,0.005087109748274088,-0.008309862576425076
1772536323912013000,2.757012939453125,-0.010813819244503975,0.00821712240576744,-0.003498862497508526
1772536323922061300,2.767061279296875,-0.006581625901162624,-0.0013075070455670357,-0.002697066171094775
1772536323932109000,2.777109130859375,-0.0032148584723472595,-0.007928924635052681,-0.006080346181988716
1772536323942158300,2.787158447265625,-0.001998019404709339,-0.013829920440912247,-0.006193551234900951
1772536323952206000,2.7972060546875,0.00048644281923770905,-0.016949813812971115,-0.006991168484091759
1772536323962254000,2.807254150390625,-0.004276941530406475,-0.005502536427229643,-0.003924866206943989
1772536323972303000,2.81730322265625,-0.007570207118988037,0.0060606421902775764,-0.0025823668111115694
1772536323982351000,2.82735107421875,-0.009951604530215263,0.010181086137890816,-0.0061195772141218185
1772536323992399000,2.837399169921875,-0.009609920904040337,0.0007092868909239769,-0.013091466389596462
1772536324002447000,2.847447021484375,-0.006816620007157326,-0.010528003796935081,-0.01762043684720993
1772536324012495000,2.8574951171875,-0.009086699225008488,-0.010477669537067413,-0.021027153357863426
1772536324022543000,2.867543212890625,-0.008359226398169994,-0.01382695883512497,-0.02357659861445427
1772536324032591000,2.877591064453125,-0.009365900419652462,-0.012709496542811394,-0.020660171285271645
1772536324042640000,2.887639892578125,-0.006304755806922913,-0.005237080156803131,-0.012426923960447311
1772536324052688100,2.897688232421875,-0.008602531626820564,0.002148930449038744,-0.002817705972120166
1772536324062736100,2.907736083984375,-0.008984803222119808,0.005721708759665489,0.00022300658747553825
1772536324072785200,2.91778515625,-0.0029170559719204903,-0.0016398010775446892,0.002657934557646513
1772536324082833200,2.927833251953125,0.002999736461788416,-0.003294913098216057,0.005566579755395651
1772536324092881000,2.937880859375,0.0065987324342131615,0.002803459297865629,0.011648973450064659
1772536324102930200,2.94793017578125,0.004547032993286848,0.0018662926740944386,0.012001043185591698
1772536324112978000,2.95797802734375,0.005216285586357117,-0.004028614144772291,0.016017088666558266
1772536324123026200,2.968026123046875,0.003198073711246252,-0.006164010614156723,0.01445233728736639
1772536324133075000,2.978074951171875,0.004637246020138264,-0.013881318271160126,0.007825860753655434
1772536324143123200,2.988123291015625,0.00016836635768413544,-0.050626639276742935,-0.00992547906935215
1772536324153171000,2.9981708984375,0.00997812021523714,-0.04311945661902428,-0.021160557866096497
1772536324163220200,3.00822021484375,0.004772588610649109,-0.022092055529356003,-0.011798112653195858
1772536324173268000,3.01826806640625,0.002916898112744093,-0.0030528511852025986,-0.0012682400410994887
1772536324183316000,3.02831591796875,0.0005486709997057915,0.003999062813818455,0.006055391859263182
1772536324193364200,3.0383642578125,0.0057138716802001,0.0053386325016617775,0.011348424479365349
1772536324203413000,3.0484130859375,0.004543547052890062,0.008950565941631794,0.012483913451433182
1772536324213461200,3.058461181640625,0.0016534850001335144,0.004816807806491852,0.00498019065707922
1772536324223509000,3.068509033203125,0.001871984452009201,-0.0065635861828923225,-0.0004044538363814354
1772536324233558300,3.078558349609375,0.001026430632919073,-0.004684726241976023,-0.005733172874897718
1772536324243606000,3.08860595703125,-0.0036410894244909286,-0.0023286910727620125,-0.0065876180306077
1772536324253654000,3.098654052734375,-0.0027558552101254463,-0.011596491560339928,-0.012668146751821041
1772536324263703000,3.108703125,0.0000025099143385887146,-0.008381115272641182,-0.009969770908355713
1772536324273751000,3.1187509765625,0.0027375766076147556,0.0017452887259423733,0.002013654448091984
1772536324283799300,3.12879931640625,0.005973313935101032,0.00644335662946105,0.003640990937128663
1772536324293848000,3.13884814453125,0.008135268464684486,-0.003333906177431345,-0.001087718061171472
1772536324303896000,3.14889599609375,0.016420096158981323,-0.014818522147834301,0.0016950189601629972
1772536324313944000,3.158944091796875,0.017393214628100395,-0.00921336654573679,0.007119345478713512
1772536324323992000,3.168991943359375,0.015265997499227524,-0.0052850814536213875,0.011424856260418892
1772536324334041000,3.179041015625,0.013928025960922241,-0.010713668540120125,0.012218211777508259
1772536324344089000,3.189089111328125,0.0145342405885458,-0.012289125472307205,0.016383804380893707
1772536324354137000,3.19913720703125,0.01569111831486225,0.0004109577275812626,0.01893058605492115
1772536324364186000,3.20918603515625,0.009808712638914585,0.008837752044200897,0.020412491634488106
1772536324374233900,3.21923388671875,0.005729548633098602,-0.0009874491952359676,0.01815253309905529
1772536324384282000,3.2292822265625,0.002548172138631344,-0.01333332248032093,0.011876795440912247
1772536324394331000,3.239330810546875,-0.0010662702843546867,-0.012331441044807434,0.006713193375617266
1772536324404379100,3.249379150390625,-0.0033328616991639137,-0.00930873490869999,0.0047055985778570175
1772536324414427100,3.25942724609375,0.0004163365811109543,-0.006473533343523741,0.0006160486955195665
1772536324424476200,3.26947607421875,0.00039463210850954056,-0.004514108411967754,0.0009457285050302744
1772536324434524200,3.279524169921875,-0.004139399155974388,-0.009128834120929241,-0.0078461654484272
1772536324444572000,3.289572021484375,-0.008745930157601833,-0.01833811029791832,-0.011404783464968204
1772536324454621200,3.29962109375,-0.005312848836183548,-0.015157230198383331,-0.010541919618844986
1772536324464669000,3.3096689453125,-0.005286326631903648,-0.009008368477225304,-0.008534818887710571
1772536324474717200,3.31971728515625,-0.004367802292108536,-0.007630981504917145,-0.004805327393114567
1772536324484765000,3.329764892578125,0.001752524171024561,-0.009481225162744522,0.004568364471197128
1772536324494814200,3.339814208984375,0.004953643307089806,-0.001851535402238369,0.006877325475215912
1772536324504862000,3.349862060546875,0.0018605394288897514,0.0066235982812941074,0.011349715292453766
1772536324514910000,3.359909912109375,-0.00028383824974298477,0.005649679806083441,0.013570791110396385
1772536324524959000,3.369958984375,-0.00028225407004356384,-0.00010220799595117569,0.015418840572237968
1772536324535007000,3.380007080078125,-0.005834412761032581,-0.008738839067518711,0.01656506396830082
1772536324545055200,3.39005517578125,-0.0038567055016756058,-0.012028887867927551,0.011210369877517223
1772536324555104000,3.40010400390625,-0.004220493137836456,-0.01582176238298416,0.007982884533703327
1772536324565152300,3.41015234375,-0.0039193108677864075,-0.018129665404558182,0.00844535417854786
1772536324575200000,3.420199951171875,-0.006559035740792751,-0.010350039228796959,0.011374298483133316
1772536324585249300,3.430249267578125,-0.0049563804641366005,-0.0009536538273096085,0.019769974052906036
1772536324595297000,3.440297119140625,-0.005425629206001759,0.009885411709547043,0.02136094681918621
1772536324605345000,3.450344970703125,-0.007108424790203571,0.010713708586990833,0.015824029222130775
1772536324615393300,3.460393310546875,-0.007266084663569927,-0.003609569976106286,0.0032017116900533438
1772536324625442000,3.470442138671875,-0.0013194587081670761,-0.012728950940072536,-0.004469831474125385
1772536324635490300,3.480490234375,0.0016827229410409927,-0.007976540364325047,-0.0006082478212192655
1772536324645538000,3.4905380859375,0.0014617382548749447,-0.003084817435592413,-0.0008184731705114245
1772536324655587000,3.500587158203125,0.0015823794528841972,-0.005823612213134766,0.00013786787167191505
1772536324665635000,3.510635009765625,0.002243541646748781,-0.008883153088390827,-0.0016896752640604973
1772536324675683000,3.52068310546875,-0.005400795489549637,-0.008336672559380531,-0.0003341261763125658
1772536324685732000,3.530732177734375,-0.01065131276845932,-0.008878718130290508,-0.0008233891567215323
1772536324695780000,3.540780029296875,-0.014691594988107681,-0.00957753136754036,0.0022634807974100113
1772536324705828000,3.550828125,-0.014530246146023273,0.0005030329339206219,0.007728654891252518
1772536324715877000,3.560877197265625,-0.011670543812215328,0.0021027936600148678,0.016694718971848488
1772536324725924900,3.5709248046875,-0.008474331349134445,0.011033328250050545,0.02080039121210575
1772536324735973000,3.58097314453125,-0.008838918060064316,0.009108662605285645,0.021355926990509033
1772536324746021000,3.591021240234375,-0.009122876450419426,0.004868298768997192,0.016705557703971863
1772536324756070100,3.601070068359375,-0.00908878818154335,-0.002199997194111347,0.011037018150091171
1772536324766118100,3.6111181640625,-0.005927609279751778,-0.00613374263048172,0.0023109468165785074
1772536324776166000,3.621165771484375,-0.0038801711052656174,-0.005770753603428602,-0.0037354943342506886
1772536324786215200,3.631215087890625,-0.005245792679488659,0.003526653628796339,-0.004156786482781172
1772536324796263000,3.641262939453125,-0.008022669702768326,0.010537158697843552,-0.0041724988259375095
1772536324806311200,3.651311279296875,-0.008944601751863956,0.00943120289593935,-0.006011350080370903
1772536324816360000,3.66135986328125,-0.011801374144852161,0.00930843222886324,-0.008117644116282463
1772536324826408200,3.671408203125,-0.015777308493852615,0.007205765228718519,-0.008194691501557827
1772536324836456000,3.6814560546875,-0.01670302450656891,0.008089935407042503,-0.011664790101349354
1772536324846505200,3.691505126953125,-0.018676353618502617,0.00849747471511364,-0.020368576049804688
1772536324856553000,3.701552978515625,-0.015160981565713882,0.0034558437764644623,-0.023778220638632774
1772536324866601000,3.71160107421875,-0.010645875707268715,-0.012225935235619545,-0.02956756204366684
1772536324876649200,3.721649169921875,-0.005375746637582779,-0.024437060579657555,-0.044703636318445206
1772536324886698000,3.731697998046875,-0.0006569419056177139,-0.013433190062642097,-0.039938464760780334
1772536324896746200,3.741746337890625,-0.002217288129031658,-0.0037222402170300484,-0.02780829928815365
1772536324906794000,3.7517939453125,-0.0018645236268639565,0.005389665253460407,-0.015772756189107895
1772536324916843300,3.76184326171875,0.0010737418197095394,0.012716286815702915,-0.008807791396975517
1772536324926891000,3.77189111328125,0.005437181331217289,0.012557142414152622,-0.0012023987947031856
1772536324936939000,3.78193896484375,0.006722422782331705,0.014478611759841442,0.003288489766418934
1772536324946988000,3.791988037109375,0.00922353658825159,0.0032021398656070232,0.0037554441951215267
1772536324957036000,3.8020361328125,0.012409210205078125,-0.0004929960705339909,0.005054533947259188
1772536324967084300,3.812084228515625,0.010396542958915234,0.003417721949517727,0.00855683721601963
1772536324977133000,3.822133056640625,0.00914459116756916,0.001149240881204605,0.010966198518872261
1772536324987181300,3.832181396484375,0.00679565966129303,0.008785040117800236,0.012493172660470009
1772536324997230000,3.84222998046875,0.0057825930416584015,0.011059646494686604,0.012959493324160576
1772536325007278000,3.852278076171875,0.002979851793497801,0.004252592567354441,0.006073009222745895
1772536325017327000,3.8623271484375,0.0035851881839334965,-0.0010590818710625172,0.0051725939847528934
1772536325027375000,3.872375,-0.00012430641800165176,-0.0021349862217903137,0.006048242561519146
1772536325037423000,3.882423095703125,-0.002073473297059536,0.0007406952790915966,0.008961740881204605
1772536325047472000,3.89247216796875,-0.004898726940155029,0.005659102462232113,0.011292273178696632
1772536325057520000,3.90252001953125,-0.008075346238911152,0.011016584001481533,0.010763103142380714
1772536325067568000,3.912568115234375,-0.0070163048803806305,0.007104041986167431,0.007332910317927599
1772536325077617200,3.9226171875,-0.003953402861952782,0.008167441934347153,0.0026779714971780777
1772536325087665200,3.9326650390625,-0.0023413486778736115,0.012138517573475838,0.0009655377361923456
1772536325097713000,3.942712890625,-0.0013341410085558891,0.008947517722845078,-0.0018283845856785774
1772536325107762200,3.95276220703125,-0.0015507740899920464,0.011993790045380592,-0.0018109721131622791
1772536325117810000,3.962809814453125,-0.001453302800655365,0.01696804165840149,-0.008104554377496243
1772536325127858200,3.972858154296875,-0.009302578866481781,0.006007131654769182,-0.014992881566286087
1772536325137907000,3.982906982421875,-0.013256041333079338,-0.0038561520632356405,-0.01981799677014351
1772536325147955200,3.992955078125,-0.01640458032488823,-0.004171347711235285,-0.019793782383203506
1772536325158003200,4.003003173828125,-0.01736385002732277,-0.004268286749720573,-0.01729547046124935
1772536325168051000,4.013051025390625,-0.01398064661771059,-0.004249197896569967,-0.011429859325289726
1772536325178100200,4.023100341796875,-0.015568423084914684,0.006354976445436478,-0.002757274778559804
1772536325188148000,4.03314794921875,-0.01981302537024021,0.017079204320907593,0.007593571208417416
1772536325198196200,4.0431962890625,-0.019516082480549812,0.01586054265499115,0.00590912252664566
1772536325208245000,4.053244873046875,-0.01795610412955284,0.011270750313997269,-0.002007205504924059
1772536325218293200,4.063293212890625,-0.016783513128757477,0.008411847054958344,-0.006290900055319071
1772536325228341000,4.073341064453125,-0.012764694169163704,0.003099482972174883,-0.015066692605614662
1772536325238390000,4.08339013671875,-0.010732436552643776,-0.004853248596191406,-0.015695463865995407
1772536325248438000,4.09343798828125,-0.011920315213501453,-0.0015007052570581436,-0.005047736689448357
1772536325258486000,4.103486083984375,-0.013726205565035343,0.010340241715312004,0.0008386482950299978
1772536325268535000,4.11353515625,-0.008704768493771553,0.005757519975304604,0.0028685296420007944
1772536325278583000,4.1235830078125,-0.008635792881250381,0.00038512516766786575,0.0082172229886055
1772536325288631000,4.133631103515625,-0.005323556251823902,-0.0024590669199824333,0.014929290860891342
1772536325298679000,4.143678955078125,-0.0020577218383550644,-0.007757958956062794,0.02183539979159832
1772536325308728000,4.15372802734375,-0.0033337296918034554,-0.0025302530266344547,0.023201415315270424
1772536325318776000,4.163776123046875,-0.006750032305717468,0.0030274982564151287,0.02473699487745762
1772536325328824000,4.173823974609375,-0.008895334787666798,0.0024180500768125057,0.027678025886416435
1772536325338873000,4.183873046875,-0.007175997830927372,0.0029639978893101215,0.027327820658683777
1772536325348921000,4.193921142578125,-0.008551536127924919,-0.006039383355528116,0.0250314399600029
1772536325358969000,4.203968994140625,-0.008060449734330177,-0.015509317629039288,0.013769463635981083
1772536325369018000,4.21401806640625,-0.0027221543714404106,-0.016135968267917633,0.009004759602248669
1772536325379066000,4.224066162109375,-0.0034736990928649902,-0.012990240938961506,0.0019897271413356066
1772536325389114000,4.234114013671875,-0.004872546531260014,-0.012407165952026844,-0.0007529392605647445
1772536325399162000,4.244162109375,-0.007278447039425373,-0.013359778560698032,-0.0020557576790452003
1772536325409211100,4.254211181640625,-0.011456114239990711,-0.02604517713189125,-0.0067241135984659195
1772536325419259100,4.264259033203125,-0.00518996175378561,-0.04277036339044571,-0.01690750941634178
1772536325429307000,4.274306884765625,-0.0021014055237174034,-0.02891198918223381,-0.01103550661355257
1772536325439356200,4.284356201171875,-0.007457820698618889,-0.0053781671449542046,0.007101952098309994
1772536325449404000,4.29440380859375,-0.01285961177200079,0.009375112131237984,0.01292220875620842
1772536325459452200,4.3044521484375,-0.010795929469168186,0.016776569187641144,0.01642506569623947
1772536325469501000,4.3145009765625,-0.007990986108779907,0.010470038279891014,0.01632101833820343
1772536325479549200,4.324549072265625,-0.015067005529999733,0.003079500049352646,0.01111666765064001
1772536325489597200,4.33459716796875,-0.01347354706376791,0.002773330546915531,0.004827387165278196
1772536325499646200,4.344646240234375,-0.012686050496995449,0.0002342727966606617,0.0028137709014117718
1772536325509694200,4.354694091796875,-0.012251567095518112,-0.004805908538401127,-0.0009219475323334336
1772536325519742000,4.364741943359375,-0.013056108728051186,-0.010638231411576271,0.003960159607231617
1772536325529790200,4.374790283203125,-0.01180378906428814,-0.00682927668094635,0.004543740302324295
1772536325539839000,4.3848388671875,-0.007977625355124474,-0.006050302181392908,0.0049618566408753395
1772536325549887200,4.39488720703125,-0.007655061781406403,-0.008462805300951004,0.013255533762276173
1772536325559935000,4.40493505859375,-0.0007878337055444717,-0.002997998148202896,0.016436412930488586
1772536325569984000,4.41498388671875,-0.0020611844956874847,0.0037650070153176785,0.022296126931905746
1772536325580032000,4.425031982421875,-0.0010337363928556442,0.0029149255715310574,0.01743212901055813
1772536325590080000,4.435080078125,0.000054134055972099304,0.0009140679612755775,0.01045292615890503
1772536325600129000,4.44512890625,0.0013420386239886284,-0.006917756050825119,0.00805075466632843
1772536325610177000,4.455177001953125,0.0013959314674139023,-0.007295293267816305,0.009789800271391869
1772536325620225300,4.465225341796875,0.0017171087674796581,-0.0055605098605155945,0.012059345841407776
1772536325630274000,4.475274169921875,-0.0037339627742767334,-0.0012007690966129303,0.010899107903242111
1772536325640322000,4.485322021484375,-0.0035720430314540863,0.005519983824342489,0.011957715265452862
1772536325650370000,4.4953701171875,-0.0034219231456518173,0.0058256336487829685,0.01248057372868061
1772536325660418000,4.50541796875,-0.00798098836094141,0.003918011207133532,0.01048959605395794
1772536325670467000,4.515467041015625,-0.012354135513305664,-0.003181403037160635,0.0018992817495018244
1772536325680515000,4.52551513671875,-0.013542437925934792,-0.007769497111439705,-0.0022722934372723103
1772536325690563000,4.53556298828125,-0.010603220202028751,-0.008445249870419502,0.002153491135686636
1772536325700612000,4.545612060546875,-0.005665186792612076,0.005701194982975721,0.007619629614055157
1772536325710660000,4.55566015625,-0.004561067558825016,0.011430412530899048,0.010318230837583542
1772536325720708000,4.5657080078125,-0.002189256250858307,0.009859414771199226,0.01283731497824192
1772536325730757000,4.575757080078125,-0.005620461888611317,0.009826932102441788,0.008220500312745571
1772536325740805000,4.58580517578125,-0.011844269931316376,0.003503788262605667,-0.0018478463171049953
1772536325750853000,4.59585302734375,-0.01535342913120985,-0.004945528693497181,-0.007530725561082363
1772536325760902100,4.605902099609375,-0.014891904778778553,-0.01454089768230915,-0.013239211402833462
1772536325770950100,4.6159501953125,-0.012974205426871777,-0.015048010274767876,-0.010832266882061958
1772536325780998000,4.625997802734375,-0.01383467298001051,-0.010704395361244678,-0.006924610119313002
1772536325791046100,4.636046142578125,-0.01001504436135292,-0.0047020455822348595,-0.000601569190621376
1772536325801095000,4.646094970703125,-0.004092440940439701,0.005392400547862053,0.007602831348776817
1772536325811143200,4.65614306640625,-0.0030331145972013474,0.014128031209111214,0.012383594177663326
1772536325821191200,4.666191162109375,-0.00035637151449918747,0.014926446601748466,0.012681068852543831
1772536325831240200,4.676240234375,0.00006928108632564545,0.015957694500684738,0.0060219792649149895
1772536325841288200,4.6862880859375,0.0005459869280457497,0.011221260763704777,-0.0026356917805969715
1772536325851336000,4.6963359375,0.000785184558480978,0.003967922180891037,-0.011859528720378876
1772536325861385200,4.70638525390625,0.005730141885578632,-0.001905679702758789,-0.015933366492390633
1772536325871433000,4.716432861328125,0.007642317097634077,-0.0018854127265512943,-0.016134578734636307
1772536325881481200,4.726481201171875,0.0037415847182273865,0.0030472944490611553,-0.013664496131241322
1772536325891530000,4.736530029296875,0.0012607243843376637,0.004095119424164295,-0.010574636049568653
1772536325901578200,4.746578125,0.001748349517583847,0.0022692568600177765,-0.006205987185239792
1772536325911626000,4.7566259765625,-0.003965446725487709,0.004163048230111599,-0.0023299395106732845
1772536325921674000,4.766674072265625,-0.005147890187799931,0.010146106593310833,-0.0007307111518457532
1772536325931723000,4.776722900390625,-0.005052953027188778,-0.0026792804710566998,-0.0005999305285513401
1772536325941771000,4.78677099609375,-0.0017554275691509247,-0.013012878596782684,0.000021384796127676964
1772536325951819300,4.7968193359375,0.00048529915511608124,-0.008746548555791378,0.010293934494256973
1772536325961868000,4.806867919921875,0.001177455298602581,0.016397152096033096,0.02176550030708313
1772536325971916000,4.816916015625,0.0020686727948486805,0.030152495950460434,0.02669837325811386
1772536325981964000,4.826964111328125,-0.0014301883056759834,0.016614053398370743,0.02236247807741165
1772536325992013000,4.837012939453125,0.0019421325996518135,0.0013314806856215,0.012881502509117126
1772536326002060300,4.847060302734375,0.004725668579339981,-0.0015047858469188213,0.002953771036118269
1772536326012108000,4.85710791015625,0.004702669568359852,-0.001126190647482872,-0.0008925286820158362
1772536326022157300,4.8671572265625,0.004067239351570606,-0.001896643079817295,-0.0050680991262197495
1772536326032205000,4.877205078125,0.0031706886366009712,-0.0072372183203697205,-0.0090787997469306
1772536326042253000,4.887253173828125,-0.00009328126907348633,-0.010434875264763832,-0.016117267310619354
1772536326052301000,4.897301025390625,-0.0004993490874767303,-0.00782970804721117,-0.010613476857542992
1772536326062350000,4.90735009765625,0.002563552465289831,0.0019914978183805943,-0.0008013262413442135
1772536326072398000,4.917398193359375,0.004152503330260515,0.01582646369934082,0.010810179635882378
1772536326082446000,4.927446044921875,0.008167484775185585,0.01876233145594597,0.01527496799826622
1772536326092494800,4.937494873046875,0.009692925959825516,0.00955390278249979,0.01814470812678337
1772536326102543000,4.947543212890625,0.009044446051120758,-0.0004902095533907413,0.01480057742446661
1772536326112591000,4.957591064453125,0.011478952132165432,-0.01256034430116415,0.011901317164301872
1772536326122640100,4.96764013671875,0.013206278905272484,-0.00777650810778141,0.022678598761558533
1772536326132688100,4.977688232421875,0.013259219005703926,0.008058859035372734,0.030543114989995956
1772536326142736000,4.98773583984375,0.014728751964867115,0.002793523482978344,0.03308803215622902
1772536326152784100,4.9977841796875,0.02336486615240574,-0.006877447012811899,0.026995724067091942
1772536326162833000,5.0078330078125,0.022737957537174225,-0.013618440367281437,0.019612642005085945
1772536326172881200,5.017881103515625,0.020832039415836334,-0.021411295980215073,0.009713366627693176
1772536326182929200,5.02792919921875,0.01984027773141861,-0.025278471410274506,0.009127471596002579
1772536326192978200,5.037978271484375,0.022838791832327843,-0.010151387192308903,0.011864770203828812
1772536326203026200,5.048026123046875,0.01927841082215309,0.0017987494356930256,0.009701484814286232
1772536326213074000,5.058073974609375,0.02032322809100151,0.001501609105616808,0.0003377273678779602
1772536326223123200,5.068123291015625,0.01970537379384041,-0.004695300478488207,-0.009779620915651321
1772536326233171000,5.0781708984375,0.021619614213705063,0.00390959158539772,-0.008265368640422821
1772536326243219200,5.08821923828125,0.013788854703307152,0.01537343394011259,-0.007085321471095085
1772536326253268000,5.09826806640625,0.013462883420288563,0.020163927227258682,-0.002082040999084711
1772536326263316200,5.108316162109375,0.013732269406318665,0.016601553186774254,-0.004673848859965801
1772536326273364000,5.118364013671875,0.010469081811606884,0.011920497752726078,-0.0055458503775298595
1772536326283412000,5.128411865234375,0.0044908178970217705,0.005538231693208218,-0.010330218821763992
1772536326293461000,5.1384609375,0.0007079667411744595,-0.001348779071122408,-0.013312345370650291
1772536326303509000,5.148509033203125,0.001361772883683443,0.006018056534230709,-0.012964270077645779
1772536326313557200,5.15855712890625,0.004110478330403566,0.012555640190839767,-0.015754137188196182
1772536326323606000,5.16860595703125,0.004183182492852211,0.005658052396029234,-0.01628650352358818
1772536326333654300,5.178654296875,0.006891042925417423,0.0018438254483044147,-0.017704123631119728
1772536326343702000,5.188701904296875,0.008514505811035633,0.008636217564344406,-0.015748031437397003
1772536326353751300,5.198751220703125,0.0015663332305848598,0.01662331074476242,-0.014621207490563393
1772536326363799000,5.208799072265625,0.0005394183099269867,0.004482758231461048,-0.017397819086909294
1772536326373847000,5.218846923828125,0.0022340635769069195,-0.005576462484896183,-0.018378783017396927
1772536326383896000,5.22889599609375,-0.003459774889051914,0.0037834830582141876,-0.018831785768270493
1772536326393944000,5.238944091796875,-0.004100523889064789,0.0027589895762503147,-0.022848203778266907
1772536326403992000,5.248991943359375,-0.007409767247736454,-0.01124471053481102,-0.02785627730190754
1772536326414040000,5.2590400390625,-0.002294507808983326,-0.012776976451277733,-0.025478176772594452
1772536326424088800,5.2690888671875,-0.004224500618875027,-0.0033051781356334686,-0.01451926864683628
1772536326434137000,5.27913720703125,-0.0005945004522800446,0.006429851055145264,-0.004771710839122534
1772536326444185000,5.28918505859375,0.0049344878643751144,0.002821001224219799,0.002430541906505823
1772536326454234000,5.299234130859375,0.004424182698130608,0.008609866723418236,0.007939803414046764
1772536326464282000,5.3092822265625,0.005395970307290554,0.009375525638461113,0.007613565772771835
1772536326474330000,5.319330078125,0.008345676586031914,0.007629550062119961,0.00546275544911623
1772536326484379100,5.329379150390625,0.009623194113373756,0.0023359842598438263,0.005920552648603916
1772536326494427000,5.339427001953125,0.006472408771514893,-0.009730265475809574,-0.0019224563147872686
1772536326504475100,5.34947509765625,0.002957568969577551,-0.011881034821271896,-0.005922524258494377
1772536326514523100,5.359523193359375,-0.0006728312000632286,-0.010053024627268314,-0.0038305288180708885
1772536326524572200,5.369572265625,-0.0018076039850711823,-0.0050060683861374855,-0.0013902741484344006
1772536326534620200,5.3796201171875,-0.0048652710393071175,-0.0027922606095671654,-0.001071146223694086
1772536326544668000,5.38966796875,-0.0051792580634355545,-0.0014684032648801804,-0.0008714091964066029
1772536326554717200,5.39971728515625,-0.007627670653164387,-0.0006839996203780174,-0.004899358376860619
1772536326564765000,5.409764892578125,-0.00957177858799696,0.00034318165853619576,-0.00556834414601326
1772536326574813200,5.419813232421875,-0.010950959287583828,0.00010062893852591515,-0.0027492858935147524
1772536326584861000,5.42986083984375,-0.009716848842799664,0.004855436738580465,0.00017459876835346222
1772536326594910200,5.43991015625,-0.010006044059991837,0.0073697688058018684,-0.002301362808793783
1772536326604958000,5.4499580078125,-0.009044909849762917,0.00530422106385231,-0.0043426756747066975
1772536326615006000,5.460005859375,-0.0040598055347800255,0.0014508049935102463,-0.008173898793756962
1772536326625055000,5.470054931640625,-0.005634266883134842,0.0010713040828704834,-0.009553150273859501
1772536326635103000,5.48010302734375,-0.0076897405087947845,-0.0016158465296030045,-0.01422072947025299
1772536326645151200,5.490151123046875,-0.009112667292356491,-0.0017902832478284836,-0.012215901166200638
1772536326655200000,5.500199951171875,-0.007284094579517841,0.002723529003560543,-0.015758315101265907
1772536326665248300,5.510248291015625,-0.007089950144290924,0.0027011586353182793,-0.014277864247560501
1772536326675296000,5.5202958984375,-0.004130197688937187,-0.002977035939693451,-0.01354696974158287
1772536326685345300,5.53034521484375,-0.0008017793297767639,0.00009145820513367653,-0.009909357875585556
1772536326695393000,5.54039306640625,-0.0018058167770504951,0.001012678723782301,-0.005844411440193653
1772536326705441000,5.55044091796875,-0.005123849026858807,0.001499770674854517,-0.002284830203279853
1772536326715489000,5.560489013671875,-0.004628170281648636,0.004032718483358622,-0.0024668679106980562
1772536326725538000,5.5705380859375,-0.007562441751360893,-0.0015234346501529217,0.0005752609577029943
1772536326735586000,5.5805859375,-0.005979972891509533,-0.0009415275417268276,-0.002632209099829197
1772536326745634000,5.590634033203125,-0.0063448259606957436,0.002120575401932001,0.0028818659484386444
1772536326755683000,5.60068310546875,-0.006915069185197353,-0.001747745554894209,-0.0031637349165976048
1772536326765731000,5.61073095703125,-0.005294535309076309,-0.010779323987662792,-0.0021035303361713886
1772536326775779000,5.620779052734375,0.00009598769247531891,-0.01087117101997137,0.0037857219576835632
1772536326785828000,5.630828125,-0.002143731340765953,-0.0047315191477537155,0.009684091433882713
1772536326795876000,5.6408759765625,-0.0012009572237730026,-0.009586188942193985,0.011138217523694038
1772536326805924000,5.650924072265625,0.002607895527034998,-0.016727721318602562,0.008951229974627495
1772536326815973000,5.66097314453125,0.005043762736022472,-0.006449900567531586,0.02300909534096718
1772536326826020900,5.671020751953125,0.00509090069681406,0.007485622074455023,0.024492476135492325
1772536326836069000,5.681069091796875,0.0057858675718307495,0.0035850228741765022,0.028669623658061028
1772536326846117000,5.6911171875,0.004787448327988386,-0.005247084423899651,0.029844345524907112
1772536326856166100,5.701166259765625,0.0055864169262349606,-0.0004781302995979786,0.030196350067853928
1772536326866214100,5.711214111328125,0.004088655114173889,0.002603946253657341,0.029323101043701172
1772536326876262100,5.72126220703125,0.0022164108231663704,0.0008334293961524963,0.023554673418402672
1772536326886311200,5.731311279296875,0.0028483793139457703,-0.006046581082046032,0.016192365437746048
1772536326896359000,5.74135888671875,0.004595383070409298,-0.01344272680580616,0.009572996757924557
1772536326906407200,5.7514072265625,0.0017636436969041824,-0.00893399491906166,0.010477938689291477
1772536326916456000,5.7614560546875,-0.004181540571153164,0.002636962104588747,0.010245239362120628
1772536326926504200,5.771504150390625,-0.008324886672198772,-0.0019418108277022839,0.01151902973651886
1772536326936552000,5.781552001953125,-0.0075084613636136055,0.001343614887446165,0.012177958153188229
1772536326946600000,5.791599853515625,-0.007091943174600601,0.0027678734622895718,0.010810425505042076
1772536326956649000,5.80164892578125,-0.0031015798449516296,0.002510226331651211,0.007147348485887051
1772536326966697000,5.811697021484375,0.0021949149668216705,0.0010052742436528206,0.005613634362816811
1772536326976745200,5.8217451171875,-0.0002550501376390457,0.0035037603229284286,0.0004931741859763861
1772536326986794000,5.8317939453125,-0.006633054465055466,0.005248663015663624,-0.007619880139827728
1772536326996842200,5.84184228515625,-0.008937119506299496,0.0003687622956931591,-0.014922615140676498
1772536327006894300,5.851894287109375,-0.00805667694658041,-0.005207364447414875,-0.02011551335453987
1772536327016943400,5.861943359375,-0.008008071221411228,-0.01091677974909544,-0.023780841380357742
1772536327026991400,5.871991455078125,-0.00576062873005867,-0.01302200835198164,-0.0207672081887722
1772536327037039400,5.882039306640625,-0.006074992008507252,-0.004730618093162775,-0.015749014914035797
1772536327047087400,5.89208740234375,-0.003640330396592617,-0.001026693731546402,-0.01113428920507431
1772536327057136400,5.902136474609375,-0.0027815429493784904,0.0019101453945040703,0.0013388507068157196
1772536327067184400,5.912184326171875,0.0005354238674044609,0.0016896352171897888,0.002441665856167674
1772536327077232400,5.922232421875,-0.003804474137723446,0.0028678462840616703,0.004942537751048803
1772536327087281400,5.932281494140625,-0.0020015137270092964,0.0036862357519567013,0.005346805788576603
1772536327097329400,5.942329345703125,-0.002659037709236145,-0.0038169827312231064,-0.00029846071265637875
1772536327107377400,5.95237744140625,-0.0006273118779063225,-0.004706212319433689,0.0038848326075822115
1772536327117426400,5.962426513671875,-0.0007878178730607033,-0.0008424026891589165,0.00896538607776165
1772536327127474400,5.972474365234375,0.002237266395241022,-0.006533045321702957,0.013311930932104588
1772536327137522400,5.9825224609375,0.004732577130198479,-0.005391436163336039,0.023368295282125473
1772536327147571200,5.9925712890625,0.005197032354772091,0.0001221061684191227,0.02773960679769516
1772536327157619500,6.002619384765625,0.006549707613885403,0.003254038281738758,0.028208650648593903
1772536327167667500,6.01266748046875,0.005856486968696117,0.001977585256099701,0.03145397827029228
1772536327177715200,6.022715087890625,0.0037345541641116142,0.0002264142967760563,0.0220313873142004
1772536327187764500,6.032764404296875,0.0028192256577312946,-0.004451960790902376,0.015842467546463013
1772536327197812200,6.042812255859375,0.0044689602218568325,-0.0068382564932107925,0.014364063739776611
1772536327207860500,6.052860595703125,0.003469475544989109,-0.00395112344995141,0.014874592423439026
1772536327217909200,6.0629091796875,0.008209630846977234,0.006410668604075909,0.018519189208745956
1772536327227957200,6.072957275390625,0.00918061938136816,0.019362684339284897,0.02280368283390999
1772536327238005500,6.083005615234375,0.011330125853419304,0.01653393916785717,0.019497204571962357
1772536327248054300,6.09305419921875,0.009411850944161415,0.009194266051054,0.010208897292613983
1772536327258102500,6.1031025390625,0.009258616715669632,-0.005671307910233736,-0.001082823146134615
1772536327268150300,6.113150390625,0.007887088693678379,-0.012106836773455143,-0.010995907709002495
1772536327278199600,6.123199462890625,0.0008994629606604576,-0.01281874068081379,-0.013990079052746296
1772536327288247300,6.133247314453125,0.0005133049562573433,-0.005125134252011776,-0.01278686337172985
1772536327298295300,6.14329541015625,0.0002272389829158783,0.0059253377839922905,-0.0019339690916240215
1772536327308343300,6.15334326171875,-0.0003661131486296654,0.006083263084292412,0.005905578378587961
1772536327318392300,6.163392333984375,0.004386998247355223,0.003050353843718767,0.00916280783712864
1772536327328440300,6.1734404296875,0.005380623508244753,0.005243999417871237,0.008919928222894669
1772536327338488300,6.18348828125,0.005360072478652,-0.00005091819912195206,0.00831899605691433
1772536327348537300,6.193537353515625,0.0031616329215466976,-0.0021169986575841904,0.005395644344389439
1772536327358585300,6.20358544921875,0.0024718171916902065,-0.004767164587974548,0.0018820741679519415
1772536327368633300,6.21363330078125,0.0025423909537494183,-0.0064329719170928,0.0034890256356447935
1772536327378682400,6.223682373046875,0.0034732981584966183,-0.006607256829738617,0.0037415954284369946
1772536327388730400,6.23373046875,0.0017797937616705894,-0.004906295798718929,0.003034792374819517
1772536327398778400,6.2437783203125,0.0002101389691233635,-0.005523645784705877,0.002902535954490304
1772536327408826400,6.253826416015625,0.0013800659216940403,-0.0018282434903085232,0.008829933591187
1772536327418875400,6.26387548828125,0.002172944601625204,-0.000287017785012722,0.009138921275734901
1772536327428923400,6.27392333984375,0.0023939870297908783,-0.004335022531449795,0.006747670006006956
1772536327438971400,6.283971435546875,0.0024333144538104534,-0.01040792278945446,0.00309377140365541
1772536327449020400,6.2940205078125,0.006578258238732815,-0.008610023185610771,0.001349134836345911
1772536327459068400,6.304068359375,0.007657248992472887,-0.005767481867223978,0.0012190083507448435
1772536327469116400,6.314116455078125,0.007102246396243572,-0.0029107090085744858,0.0036355608608573675
1772536327479165400,6.32416552734375,0.005055141635239124,0.0005983347073197365,0.002838046755641699
1772536327489213400,6.33421337890625,0.00048062950372695923,-0.0013356530107557774,0.0043318141251802444
1772536327499261400,6.344261474609375,0.0010190806351602077,-0.004235857632011175,0.00265949172899127
1772536327509309200,6.35430908203125,0.002074491698294878,-0.006432432681322098,-0.0004888972034677863
1772536327519358500,6.3643583984375,-0.00041438639163970947,-0.009185765869915485,-0.002733286703005433
1772536327529406200,6.37440625,0.0006862981244921684,-0.014353630132973194,-0.004765811376273632
1772536327539454500,6.384454345703125,0.004517171066254377,-0.011501212604343891,-0.0021873791702091694
1772536327549503200,6.394503173828125,0.000008705072104930878,-0.0026099830865859985,0.003004985861480236
1772536327559551500,6.404551513671875,-0.0036216601729393005,-0.004495180211961269,0.0013879758771508932
1772536327569599500,6.414599609375,-0.0028512077406048775,-0.006379100494086742,-0.005202814936637878
1772536327579648300,6.424648193359375,-0.004772411659359932,-0.006764459889382124,-0.005469131283462048
1772536327589696500,6.434696533203125,-0.002485821954905987,-0.007247024681419134,-0.011066297069191933
1772536327599744300,6.444744140625,0.004200927913188934,-0.002823685761541128,-0.0075996192172169685
1772536327609792500,6.45479248046875,0.00979915913194418,0.004427036736160517,-0.005846726708114147
1772536327619841300,6.46484130859375,0.010992181487381458,0.005784895271062851,-0.008591646328568459
1772536327629889300,6.47488916015625,0.007141250651329756,-0.0008373209275305271,-0.012736590579152107
1772536327639937300,6.484937255859375,0.004608293995261192,-0.006415060721337795,-0.018935445696115494
1772536327649986300,6.494986328125,-0.0022810371592640877,-0.008199645206332207,-0.02825011871755123
1772536327660034300,6.505034423828125,-0.003052513115108013,-0.019273553043603897,-0.03240542858839035
1772536327670082300,6.515082275390625,0.0023521054536104202,-0.02590695582330227,-0.027095351368188858
1772536327680131300,6.52513134765625,0.004055280238389969,-0.011628082022070885,-0.015639087185263634
1772536327690179300,6.535179443359375,0.0017974521033465862,0.0059138936921954155,-0.00394381582736969
1772536327700227300,6.545227294921875,0.00018576160073280334,0.0038361502811312675,0.007414894178509712
1772536327710275300,6.555275390625,-0.00027230195701122284,0.0036180373281240463,0.011484203860163689
1772536327720324400,6.565324462890625,0.00344613054767251,0.009495229460299015,0.015941210091114044
1772536327730372400,6.575372314453125,0.004235491622239351,0.009435574524104595,0.007190062664449215
1772536327740420400,6.58542041015625,0.0060568987391889095,-0.008947084657847881,-0.0010484680533409119
1772536327750469400,6.595469482421875,0.009367207996547222,-0.02004154771566391,-0.0059747835621237755
1772536327760517400,6.605517333984375,0.004772788845002651,-0.00856962613761425,-0.004439204931259155
1772536327770565400,6.6155654296875,0.0035480009391903877,-0.0035999014507979155,0.0014314672444015741
1772536327780614400,6.625614501953125,-0.001806512475013733,-0.008127226494252682,-0.0024426127783954144
1772536327790662400,6.635662353515625,0.0001282738521695137,-0.017619797959923744,-0.001492929644882679
1772536327800710400,6.64571044921875,-0.0005872892215847969,-0.009933128021657467,0.005561702884733677
1772536327810758400,6.65575830078125,-0.0006951475515961647,-0.0003010067157447338,0.005615498870611191
1772536327820807400,6.665807373046875,-0.0018593613058328629,-0.0036423413548618555,0.007091175764799118
1772536327830855400,6.67585546875,-0.0018159523606300354,-0.012467790395021439,0.00864193495362997
1772536327840903200,6.685903076171875,0.000013598240911960602,-0.01000761054456234,0.017083602026104927
1772536327850952400,6.695952392578125,0.0005907043814659119,0.004846703726798296,0.024824878200888634
1772536327861000200,6.706000244140625,-0.00008503813296556473,0.014813748188316822,0.03607931360602379
1772536327871048400,6.71604833984375,-0.00005041714757680893,0.017518453299999237,0.03819253295660019
1772536327881097200,6.72609716796875,-0.0035863416269421577,0.0051270113326609135,0.0310807041823864
1772536327891145500,6.7361455078125,-0.0008065337315201759,-0.009515048936009407,0.02074018493294716
1772536327901193500,6.746193359375,0.0011482997797429562,-0.01616676338016987,0.013980118557810783
1772536327911241200,6.7562412109375,0.002507310826331377,-0.0077905901707708836,0.0149252749979496
1772536327921290500,6.76629052734375,-0.001291351392865181,0.0001297122798860073,0.01883782632648945
1772536327931338200,6.776338134765625,0.0007957681082189083,0.004685848485678434,0.021902859210968018
1772536327941386500,6.786386474609375,0.0008101742714643478,0.0018405676819384098,0.021772610023617744
1772536327951435300,6.796435302734375,-0.0012101000174880028,0.007508839946240187,0.016668129712343216
1772536327961483500,6.8064833984375,0.001261634286493063,0.006371965631842613,0.013467173092067242
1772536327971531300,6.81653125,0.0027775056660175323,0.005452909506857395,0.009831958450376987
1772536327981580300,6.826580322265625,0.0015408508479595184,0.0052415733225643635,0.007978563196957111
1772536327991628300,6.836628173828125,0.0019131610170006752,0.001885723788291216,0.000690023647621274
1772536328001676300,6.84667626953125,-0.002163662575185299,0.0030316426418721676,0.0015372356865555048
1772536328011720200,6.85672021484375,-0.003279527649283409,0.0022318954579532146,0.0006243041716516018
1772536328021769200,6.866769287109375,-0.0022771311923861504,0.0010931207798421383,0.000544901005923748
1772536328031817200,6.876817138671875,-0.002125331200659275,-0.006242822390049696,-0.0015339625533670187
1772536328041865200,6.886865234375,-0.0022862758487462997,-0.013907152228057384,-0.0059571038000285625
1772536328051914200,6.896914306640625,0.003400904592126608,-0.02137598767876625,-0.005998382810503244
1772536328061962200,6.906962158203125,0.0031978837214410305,-0.015110814943909645,0.0010899272747337818
1772536328072010200,6.91701025390625,0.005081270821392536,-0.0035068888682872057,0.014775378629565239
1772536328082059300,6.927059326171875,0.007245722692459822,0.0038771298713982105,0.025557739660143852
1772536328092107300,6.937107177734375,0.010549107566475868,0.009113969281315804,0.030038774013519287
1772536328102155300,6.9471552734375,0.01196366362273693,0.001402375753968954,0.025846099480986595
1772536328112203000,6.957203125,0.01199349109083414,-0.008507778868079185,0.018155688419938087
1772536328122252300,6.967252197265625,0.0080373240634799,-0.016186252236366272,0.017561251297593117
1772536328132300000,6.977300048828125,0.006584569811820984,-0.012459425255656242,0.01703447662293911
1772536328142348300,6.987348388671875,0.004846869967877865,-0.007228437345474958,0.019434558227658272
1772536328152397000,6.99739697265625,0.002242032438516617,0.0009743655100464821,0.02448257990181446
1772536328162445300,7.0074453125,0.002256406005471945,0.0011850493028759956,0.022831318899989128
1772536328172493300,7.017493408203125,0.0003796759992837906,0.0006122030317783356,0.023955704644322395
1772536328182542000,7.0275419921875,-0.006997850723564625,-0.003930399660021067,0.014799203723669052
1772536328192590300,7.03759033203125,-0.01127541996538639,-0.0047139013186097145,0.007080298848450184
1772536328202638000,7.04763818359375,-0.018600184470415115,-0.008124306797981262,-0.0038943833205848932
1772536328212686300,7.057686279296875,-0.014733008109033108,-0.012095346115529537,-0.012028476223349571
1772536328222735000,7.067735107421875,-0.01054680347442627,-0.010124687105417252,-0.011714408174157143
1772536328232783400,7.077783447265625,-0.0033317673951387405,0.0008001322858035564,-0.009734347462654114
1772536328242831000,7.0878310546875,-0.0010090116411447525,0.006544818636029959,0.000638808123767376
1772536328252880100,7.097880126953125,0.0004828916862607002,0.012047974392771721,0.004154180642217398
1772536328262928100,7.10792822265625,-0.0007444443181157112,0.011659794487059116,0.000027469126507639885
1772536328272976100,7.11797607421875,-0.005568227730691433,0.009722343645989895,-0.004466615151613951
1772536328283025200,7.128025146484375,-0.00786619447171688,0.0027667609974741936,-0.01098539773374796
1772536328293073200,7.1380732421875,-0.009494982659816742,-0.007926097139716148,-0.024163518100976944
1772536328303121200,7.14812109375,-0.008801648393273354,-0.013372952118515968,-0.03015897050499916
1772536328313169200,7.158169189453125,-0.005964317359030247,-0.013179872184991837,-0.025714686140418053
1772536328323218200,7.16821826171875,-0.0053570205345749855,-0.002799566835165024,-0.01448698341846466
1772536328333266200,7.17826611328125,-0.0044717853888869286,0.009156162850558758,-0.005958477035164833
1772536328343314200,7.188314208984375,-0.0027077188715338707,0.013610531575977802,0.0008161338046193123
1772536328353363200,7.19836328125,-0.001522611826658249,0.015759438276290894,0.0033487998880445957
1772536328363411200,7.2084111328125,-0.0008644601330161095,0.012617798522114754,0.0024305826518684626
1772536328373459200,7.218459228515625,-0.00029747374355793,0.005105022806674242,-0.004436378367245197
1772536328383508200,7.22850830078125,-0.0006577596068382263,0.00022163242101669312,-0.00718394061550498
1772536328393556200,7.23855615234375,0.0009728935547173023,-0.006971831899136305,-0.013583783060312271
1772536328403604200,7.248604248046875,0.00023584533482789993,-0.006307530682533979,-0.008281040005385876
1772536328413652200,7.25865234375,0.0013261432759463787,-0.009351257234811783,-0.00770606379956007
1772536328423701200,7.268701171875,-0.00010537635535001755,-0.007727882359176874,-0.007902338169515133
1772536328433749200,7.278749267578125,-0.0013160491362214088,-0.0033376612700521946,-0.004651151597499847
1772536328443797000,7.288796875,-0.002426210790872574,0.009614999406039715,-0.0027167743537575006
1772536328453846300,7.29884619140625,-0.0032770903781056404,0.006684722378849983,-0.0039847055450081825
1772536328463894000,7.30889404296875,-0.0022247890010476112,0.0034900889731943607,-0.0030522921588271856
1772536328473942300,7.3189423828125,0.001733733806759119,0.004960952792316675,0.0017126358579844236
1772536328483991000,7.328990966796875,0.0025426740758121014,0.0055414424277842045,0.005009936168789864
1772536328494039300,7.339039306640625,0.005253505893051624,0.011151658371090889,0.01412966474890709
1772536328504087300,7.34908740234375,0.004514452535659075,0.018876612186431885,0.019367652013897896
1772536328514135000,7.359135009765625,0.006054825149476528,0.021587708964943886,0.020739978179335594
1772536328524184300,7.369184326171875,0.004340823739767075,0.01608964614570141,0.015357403084635735
1772536328534232000,7.379232177734375,0.0035980683751404285,0.0016443957574665546,0.0016581022646278143
1772536328544280300,7.3892802734375,0.000009515322744846344,-0.0028815921396017075,-0.0029280660673975945
1772536328554329000,7.3993291015625,-0.005723471753299236,0.004763810895383358,-0.009936707094311714
1772536328564377300,7.40937744140625,-0.00730067677795887,0.0070295329205691814,-0.0135639738291502
1772536328574425300,7.41942529296875,-0.009024273604154587,0.0025823195464909077,-0.016198106110095978
1772536328584474000,7.42947412109375,-0.007230635732412338,0.0029863216914236546,-0.01748201623558998
1772536328594522000,7.439522216796875,-0.004487845115363598,0.010020261630415916,-0.017577357590198517
1772536328604570000,7.449570068359375,-0.0022144168615341187,0.01614515669643879,-0.01459500566124916
1772536328614618400,7.459618408203125,-0.0002905493602156639,0.016241030767560005,-0.008864415809512138
1772536328624667100,7.469667236328125,0.0016267192550003529,0.013957194983959198,-0.007007926236838102
1772536328634715100,7.479715087890625,0.0017335116863250732,0.010665526613593102,-0.00887906365096569
1772536328644763100,7.48976318359375,0.005723706446588039,0.004792948719114065,-0.007787679322063923
1772536328654812200,7.499812255859375,0.004374282900243998,-0.0003560073673725128,-0.008167978376150131
1772536328664860200,7.509860107421875,0.002823677845299244,0.0011070240288972855,0.00034948624670505524
1772536328674908200,7.519908203125,0.005171254277229309,0.0059521133080124855,0.004656616598367691
1772536328684957200,7.529957275390625,0.005021108780056238,0.009258216246962547,0.01003972627222538
1772536328695005200,7.540005126953125,0.007971891202032566,0.004999821074306965,0.013517547398805618
1772536328705053200,7.55005322265625,0.007025822997093201,0.006632496137171984,0.015057530254125595
1772536328715101200,7.56010107421875,0.005900903604924679,0.0021685059182345867,0.017115090042352676
1772536328725150200,7.570150146484375,0.005955877713859081,0.0013464707881212234,0.014857220463454723
1772536328735198200,7.5801982421875,0.0020958920940756798,-0.0003587505780160427,0.012506715022027493
1772536328745246200,7.59024609375,0.002014072146266699,0.00001490022987127304,0.009551445953547955
1772536328755295200,7.600295166015625,-0.0009095463901758194,0.003122542519122362,0.013140321709215641
1772536328765343200,7.61034326171875,-0.0030497144907712936,0.001693663652986288,0.011283831670880318
1772536328775391000,7.620390869140625,-0.0037581156939268112,0.007216793950647116,0.010632156394422054
1772536328785439200,7.630439208984375,-0.005198696628212929,0.007016198243945837,0.008567837998270988
1772536328795488000,7.640488037109375,-0.011334885843098164,0.008278802037239075,0.006822933908551931
1772536328805536300,7.650536376953125,-0.010979504324495792,0.005996315740048885,0.0026685260236263275
1772536328815584300,7.660584228515625,-0.013577151112258434,0.004388298839330673,-0.00045376410707831383
1772536328825633300,7.67063330078125,-0.017649922519922256,0.004534772597253323,0.00020616711117327213
1772536328835681300,7.680681396484375,-0.017408907413482666,0.007577700540423393,-0.004545710980892181
1772536328845729000,7.69072900390625,-0.024437740445137024,0.0021501979790627956,-0.010325979441404343
1772536328855778300,7.7007783203125,-0.01581655442714691,-0.00813306588679552,-0.01168871857225895
1772536328865826000,7.710825927734375,-0.014367865398526192,-0.0026238090358674526,-0.008783640339970589
1772536328875874300,7.720874267578125,-0.009499607607722282,0.006833076011389494,-0.008002001792192459
1772536328885922300,7.73092236328125,-0.0022190725430846214,0.0075784241780638695,-0.0002419601660221815
1772536328895971300,7.740971435546875,-0.001615067943930626,0.011965982615947723,0.005058795679360628
1772536328906019300,7.751019287109375,0.0027316282503306866,0.01595930941402912,0.006967257708311081
1772536328916067000,7.761067138671875,-0.0020532729104161263,0.015021877363324165,0.002021501073613763
1772536328926116400,7.771116455078125,-0.006955803371965885,0.0017323154024779797,-0.00456953514367342
1772536328936164000,7.7811640625,-0.013265897519886494,-0.00514157023280859,-0.011255401186645031
1772536328946212400,7.79121240234375,-0.01772717759013176,-0.007818874903023243,-0.014822030439972878
1772536328956261000,7.80126123046875,-0.014969472773373127,-0.006913666147738695,-0.015552801080048084
1772536328966309400,7.811309326171875,-0.01820468157529831,-0.007659846916794777,-0.009485116228461266
1772536328976357000,7.821357177734375,-0.01639586314558983,-0.00043096207082271576,-0.00503177847713232
1772536328986405000,7.831405029296875,-0.01523936539888382,0.0038909357972443104,0.0018351208418607712
1772536328996454100,7.8414541015625,-0.014053193852305412,0.01061541773378849,0.0041113244369626045
1772536329006502100,7.851502197265625,-0.011381946504116058,0.007926791906356812,0.0006410409696400166
1772536329016550400,7.86155029296875,-0.010953176766633987,0.005884147714823484,-0.0005621751770377159
1772536329026599200,7.87159912109375,-0.009207667782902718,0.0032698200084269047,-0.004521189257502556
1772536329036647200,7.881647216796875,-0.009194351732730865,-0.0023787440732121468,-0.007054653950035572
1772536329046695200,7.891695068359375,-0.005860131233930588,-0.006217212416231632,-0.0047678593546152115
1772536329056744200,7.901744140625,-0.0064966268837451935,-0.00096892099827528,-0.00003249291330575943
1772536329066792200,7.911792236328125,-0.0024351533502340317,-0.0011930386535823345,0.005591508932411671
1772536329076840200,7.921840087890625,-0.0017736246809363365,-0.00016266154125332832,0.006497516296803951
1772536329086888200,7.93188818359375,-0.004255996085703373,0.004525518510490656,0.012233944609761238
1772536329096937200,7.941937255859375,-0.0034892717376351357,0.007133019622415304,0.012074422091245651
1772536329106985200,7.951985107421875,-0.0013790680095553398,0.0008100485429167747,0.012718865647912025
1772536329117033200,7.962033203125,0.0010409466922283173,-0.0008496339432895184,0.013624073937535286
1772536329127082000,7.97208203125,0.0030475156381726265,-0.0013892711140215397,0.01375487633049488
1772536329137130200,7.982130126953125,0.005277380347251892,0.006620452273637056,0.018471067771315575
1772536329147178200,7.99217822265625,0.003623752389103174,0.013528944924473763,0.02054901048541069
1772536329157227300,8.002227294921875,0.004899406805634499,0.014628563076257706,0.015246657654643059
1772536329167275300,8.012275146484376,0.008363623172044754,0.010535195469856262,0.006062787026166916
1772536329177323000,8.022322998046874,0.00852208212018013,-0.0003225118853151798,-0.002743488410487771
1772536329187371300,8.032371337890625,0.008468475192785263,-0.0015918714925646782,-0.007451998069882393
1772536329197420000,8.042419921875,0.006282552145421505,-0.0031684627756476402,-0.011358855292201042
1772536329207468300,8.05246826171875,0.003061759751290083,-0.00025381287559866905,-0.013507001101970673
1772536329217516300,8.062516357421876,0.004152057692408562,0.0033369273878633976,-0.01171602588146925
1772536329227565300,8.0725654296875,0.00018180347979068756,0.005627468228340149,-0.010700808838009834
1772536329237613300,8.08261328125,0.0017890208400785923,0.0011400412768125534,-0.009044855833053589
1772536329247661000,8.0926611328125,0.005176934413611889,0.0016245446167886257,-0.008485406637191772
1772536329257709300,8.102709228515625,0.0029923436231911182,0.006655522156506777,-0.005655531771481037
1772536329267758000,8.112758056640626,0.000041375868022441864,0.014047791250050068,0.00130142318084836
1772536329277806300,8.122806396484375,0.0002730702981352806,0.015912003815174103,0.0012196640018373728
1772536329287854000,8.13285400390625,-0.0002877693623304367,0.012289576232433319,0.004059966187924147
1772536329297903400,8.1429033203125,0.0024544871412217617,0.0068348911590874195,0.0002846689894795418
1772536329307951000,8.152951171875,0.008266056887805462,0.0019229617901146412,0.0006777925882488489
1772536329317999000,8.1629990234375,0.009623203426599503,0.002072898205369711,0.0031593262683600187
1772536329328048000,8.173048095703125,0.009344236925244331,-0.0009989058598876,0.004481421783566475
1772536329338096000,8.18309619140625,0.008055533282458782,0.0003832746297121048,0.0046057915315032005
1772536329348144400,8.193144287109375,0.009253589436411858,-0.0009481781162321568,0.0038515636697411537
1772536329358192000,8.203192138671875,0.007845044136047363,-0.0012933239340782166,0.007878795266151428
1772536329368241400,8.213241455078125,0.006503420416265726,-0.002886292990297079,0.008157609030604362
1772536329378289200,8.2232890625,0.006426454987376928,-0.00016747182235121727,0.0056590307503938675
1772536329388337200,8.233337158203126,0.006404012907296419,0.001265210099518299,0.008809242397546768
1772536329398386200,8.24338623046875,0.006718798540532589,-0.0007137847132980824,0.007667545694857836
1772536329408434200,8.25343408203125,0.01092895120382309,0.0011288071982562542,0.010343736037611961
1772536329418482200,8.263482177734375,0.006790665909647942,0.007555547636002302,0.01750231347978115
1772536329428530200,8.2735302734375,0.005675407126545906,0.009800121188163757,0.016765784472227097
1772536329438579200,8.2835791015625,0.0015927813947200775,0.00872793234884739,0.014658425003290176
1772536329448627200,8.293627197265625,0.0014666267670691013,0.0030131512321531773,0.005877225659787655
1772536329458675200,8.30367529296875,0.002030151430517435,0.000424292404204607,0.0007572981994599104
1772536329468724200,8.31372412109375,-0.0008671656250953674,-0.0010868743993341923,-0.0008829425787553191
1772536329478772200,8.323772216796876,-0.008126144297420979,0.006796348374336958,-0.0017101203557103872
1772536329488820200,8.3338203125,-0.00998965185135603,0.005066063720732927,-0.00349197955802083
1772536329498869200,8.343869140625,-0.011523899622261524,0.006672748830169439,-0.002739903051406145
1772536329508917000,8.3539169921875,-0.012582194991409779,-0.0012120623141527176,-0.004806434735655785
1772536329518965200,8.36396533203125,-0.0070580001920461655,-0.0018277852796018124,-0.008115146309137344
1772536329529013200,8.37401318359375,-0.0013939384371042252,0.0013621686957776546,-0.004610036499798298
1772536329539062300,8.384062255859375,0.000597572885453701,0.0014433949254453182,-0.0017623184248805046
1772536329549110300,8.3941103515625,0.00027128029614686966,0.008379810489714146,0.00031382031738758087
1772536329559158000,8.404157958984374,0.0008153640665113926,0.01177507359534502,-0.0013570468872785568
1772536329569207300,8.414207275390625,-0.00214532483369112,0.010922841727733612,-0.0034160595387220383
1772536329579255000,8.424255126953126,-0.002163434401154518,0.000006279442459344864,-0.009174346923828125
1772536329589303300,8.43430322265625,-0.0013693738728761673,-0.007263454608619213,-0.011350763030350208
1772536329599352000,8.44435205078125,-0.0018942821770906448,-0.010840346105396748,-0.008996529504656792
1772536329609400300,8.454400390625,-0.0013603391125798225,-0.006939885672181845,-0.003787160851061344
1772536329619448000,8.464447998046875,-0.00024740397930145264,-0.0012689507566392422,0.0010209102183580399
1772536329629496000,8.47449609375,-0.002387482672929764,0.003450981806963682,0.008578510954976082
1772536329639545000,8.484545166015625,0.0005209548398852348,-0.00012431200593709946,0.0091050174087286
1772536329649593000,8.494593017578126,0.006118730641901493,0.00454750144854188,0.012042257934808731
1772536329659641300,8.504641357421875,0.0023436998017132282,0.00874251313507557,0.014732317999005318
1772536329669690000,8.514690185546876,0.007945846766233444,0.0032936260104179382,0.010540399700403214
1772536329679738400,8.52473828125,0.009837224148213863,0.001439000479876995,0.015545811504125595
1772536329689786000,8.5347861328125,0.0071097505278885365,0.0021408572793006897,0.017522573471069336
1772536329699834000,8.544834228515626,0.008824027143418789,0.0017206110060214996,0.0194187443703413
1772536329709883100,8.554883056640625,0.008577094413340092,0.002684887032955885,0.015850313007831573
1772536329719931100,8.56493115234375,0.0054289717227220535,-0.001611590851098299,0.01143532432615757
1772536329729979400,8.5749794921875,0.004277192056179047,-0.011943845078349113,0.005316793918609619
1772536329740028200,8.585028076171875,0.005867365747690201,-0.009024221450090408,0.0059799207374453545
1772536329750076400,8.595076416015624,0.005408523138612509,-0.003486135508865118,0.009141605347394943
1772536329760124200,8.605124267578125,0.00246812729164958,0.005582726560533047,0.012006368488073349
1772536329770173200,8.615173095703126,0.00327804172411561,0.007904032245278358,0.011062277480959892
1772536329780221200,8.62522119140625,0.004619742278009653,0.006231833249330521,0.012918767519295216
1772536329790269200,8.635269287109375,0.0033395346254110336,0.007034772541373968,0.012872121296823025
1772536329800317200,8.645317138671874,0.003968839533627033,0.010758670046925545,0.008450208231806755
1772536329810366200,8.6553662109375,0.0016951309517025948,0.01220848597586155,0.004990229383111
1772536329820414200,8.665414306640624,0.0033428287133574486,0.007104006130248308,0.0032056451309472322
1772536329830462200,8.675462158203125,0.006789141334593296,0.0007222038693726063,-0.0014204095350578427
1772536329840511000,8.685510986328126,0.005543048493564129,0.001640994567424059,-0.0014875212218612432
1772536329850559200,8.695559326171875,0.007574759889394045,0.004475741181522608,-0.0065630953758955
1772536329860607200,8.705607177734375,0.007613109424710274,0.004526608157902956,-0.0023899220395833254
1772536329870656300,8.71565625,0.0025465544313192368,0.005296589806675911,-0.008577368222177029
1772536329880704300,8.725704345703125,0.003064539283514023,0.0018704328685998917,-0.01228741742670536
1772536329890752300,8.735752197265626,0.002565936651080847,-0.0007541663944721222,-0.013719726353883743
1772536329900800300,8.74580029296875,0.004344395827502012,0.006401214748620987,-0.007612565532326698
1772536329910849000,8.75584912109375,0.004594963975250721,0.006667214911431074,-0.005413880571722984
1772536329920897300,8.765897216796875,0.006573692429810762,0.012484891340136528,0.0027985090855509043
1772536329930945300,8.7759453125,0.008844684809446335,0.016628345474600792,0.009741758927702904
1772536329940994300,8.785994384765624,0.009658812545239925,0.016645921394228935,0.011350041255354881
1772536329951042000,8.7960419921875,0.009577701799571514,0.010093589313328266,0.005760722327977419
1772536329961090000,8.806090087890626,0.004524620249867439,0.0000830329954624176,-0.0033683276269584894
1772536329971138300,8.81613818359375,0.004332872573286295,-0.008953338488936424,-0.009507446549832821
1772536329981187000,8.82618701171875,0.0017943475395441055,-0.012553399428725243,-0.016165349632501602
1772536329991235300,8.8362353515625,0.005501481704413891,-0.016191765666007996,-0.016055647283792496
1772536330001283000,8.846282958984375,0.007228807546198368,-0.013666024431586266,-0.010738379321992397
1772536330011332000,8.85633203125,0.00935317575931549,-0.0038443359080702066,-0.0024559693410992622
1772536330021379800,8.8663798828125,0.011800354346632957,0.011669110506772995,0.007502921391278505
1772536330031427800,8.876427734375,0.007979793474078178,0.016168566420674324,0.013593284413218498
1772536330041476900,8.886476806640625,0.008464755490422249,0.01132187806069851,0.013276368379592896
1772536330051524900,8.89652490234375,0.007420230191200972,0.007780624087899923,0.010463783517479897
1772536330061573000,8.906572998046874,0.007619701325893402,0.00807889737188816,0.00636411365121603
1772536330071620900,8.916620849609375,0.002606896683573723,0.007640024647116661,0.006812978535890579
1772536330081670100,8.926670166015626,0.0016761217266321182,0.002826094627380371,0.0002722546923905611
1772536330091718000,8.9367177734375,0.0002733776345849037,0.006019436288625002,-0.0013454108266159892
1772536330101766000,8.946765869140625,-0.0008589979261159897,0.01093216985464096,-0.00022368738427758217
1772536330111815000,8.95681494140625,-0.0012310417369008064,0.007037562783807516,-0.005554536823183298
1772536330121863000,8.96686279296875,-0.0016278531402349472,0.0008169510401785374,-0.009261124767363071
1772536330131911000,8.976910888671876,-0.0031282398849725723,0.001239110715687275,-0.01163451373577118
1772536330141959000,8.986958984375,-0.0048971110954880714,0.0073159122839570045,-0.0053289467468857765
1772536330152008000,8.997008056640626,-0.0033763162791728973,0.014186487533152103,-0.002172465668991208
1772536330162056000,9.007055908203125,-0.003952890634536743,0.007225783541798592,-0.005103007890284061
1772536330172104000,9.01710400390625,-0.0046224454417824745,0.01064363494515419,-0.006163765676319599
1772536330182153000,9.027153076171874,-0.0031356019899249077,0.006751691922545433,-0.012293564155697823
1772536330192201000,9.037200927734375,-0.0017665857449173927,0.002410327550023794,-0.011954604648053646
1772536330202249000,9.0472490234375,0.0010220101103186607,0.0019109840504825115,-0.012531445361673832
1772536330212297000,9.057296875,0.00523690041154623,0.0029442249797284603,-0.00619885791093111
1772536330222346000,9.067345947265625,0.007153577171266079,0.018708007410168648,-0.001414489233866334
1772536330232394000,9.07739404296875,0.0051110005006194115,0.024170707911252975,-0.0018060762668028474
1772536330242442000,9.08744189453125,0.006523807533085346,0.024709202349185944,-0.0016622655093669891
1772536330252491000,9.097490966796874,0.004456613212823868,0.014719749800860882,-0.011463434435427189
1772536330262539000,9.1075390625,0.004537307191640139,-0.0018483083695173264,-0.019826559349894524
1772536330272587000,9.1175869140625,0.0075528803281486034,-0.005759185645729303,-0.018176281824707985
1772536330282635000,9.127635009765624,0.005972560495138168,0.00027180882170796394,-0.012073914520442486
1772536330292683800,9.137683837890625,0.0039366078563034534,0.007508502807468176,-0.005090613849461079
1772536330302732000,9.14773193359375,0.0015070061199367046,0.016645275056362152,-0.0010716374963521957
1772536330312779800,9.15777978515625,0.004088349640369415,0.02517319656908512,0.0005704062059521675
1772536330322829000,9.1678291015625,0.0018643438816070557,0.02439049445092678,-0.00383792445063591
1772536330332876800,9.177876708984375,0.00041594263166189194,0.017765184864401817,-0.010607597418129444
1772536330342924800,9.1879248046875,-0.0014778310433030128,0.003514077514410019,-0.020772883668541908
1772536330352973800,9.197973876953125,0.002349311951547861,-0.004344521090388298,-0.02162032201886177
1772536330363021800,9.208021728515625,0.0024039065465331078,0.0042116823606193066,-0.01538825873285532
1772536330373070000,9.218070068359374,0.004618761129677296,0.00617219926789403,-0.009839111939072609
1772536330383117800,9.228117919921875,0.007845979183912277,0.013969136402010918,-0.002403300255537033
1772536330393167000,9.2381669921875,0.0038836896419525146,0.016010666266083717,0.003871086286380887
1772536330403214800,9.24821484375,0.002369149588048458,0.015149399638175964,0.004372559487819672
1772536330413262800,9.258262939453125,0.002095053903758526,0.015086229890584946,0.0019293143413960934
1772536330423312000,9.268311767578124,0.0014801300130784512,0.006040004547685385,-0.0024047137703746557
1772536330433360000,9.27835986328125,0.005215132609009743,0.009272526949644089,-0.002350016264244914
1772536330443408100,9.288408203125,0.00047337450087070465,0.01692884787917137,-0.0007654353976249695
1772536330453457000,9.298456787109375,0.006071431562304497,0.01898278295993805,-0.00017919158563017845
1772536330463505200,9.308505126953126,0.00487327529117465,0.024012427777051926,0.005057915113866329
1772536330473553000,9.318552978515624,0.005205010063946247,0.02498430386185646,0.006128279492259026
1772536330483601000,9.328600830078125,0.009179512038826942,0.02553451433777809,0.011521446518599987
1772536330493650000,9.33864990234375,0.00713121984153986,0.022667106240987778,0.008990194648504257
1772536330503698000,9.348697998046875,0.007015638519078493,0.00482818903401494,-0.0024914913810789585
1772536330513746000,9.358745849609376,0.006576851941645145,0.0009102104231715202,-0.010933568701148033
1772536330523795000,9.368794921875,0.006421589758247137,0.008177177980542183,-0.015461210161447525
1772536330533843000,9.378843017578125,0.0041779521852731705,0.026682212948799133,-0.013878922909498215
1772536330543891000,9.388890869140624,-0.0021824752911925316,0.04713901877403259,-0.013873863033950329
1772536330553939000,9.39893896484375,-0.006835131905972958,0.03299938887357712,-0.023019813001155853
1772536330563988000,9.408988037109374,0.0025415923446416855,0.007767268922179937,-0.030929667875170708
1772536330574036000,9.419035888671875,0.009467732161283493,0.00781472772359848,-0.021975792944431305
1772536330584084000,9.429083984375,0.004116110038012266,0.018255118280649185,-0.008631758391857147
1772536330594133000,9.439133056640625,0.0022398829460144043,0.023045379668474197,0.002340629929676652
1772536330604181000,9.449180908203125,-0.00031755026429891586,0.02366003766655922,0.004432010464370251
1772536330614229000,9.45922900390625,-0.005898886360228062,0.010142473503947258,-0.005810916889458895
1772536330624277000,9.469277099609375,-0.010002017952501774,-0.010498888790607452,-0.013908524066209793
1772536330634326000,9.479325927734376,-0.011336922645568848,-0.02705804444849491,-0.025082185864448547
1772536330644374000,9.4893740234375,-0.012401653453707695,-0.03131857141852379,-0.02714693360030651
1772536330654422000,9.499422119140625,-0.01199411228299141,-0.029840722680091858,-0.019333383068442345
1772536330664470800,9.509470703125,-0.008693123236298561,-0.009293103590607643,-0.005803992971777916
1772536330674519000,9.51951904296875,-0.003164028748869896,0.014696000143885612,0.010069840587675571
1772536330684567000,9.529567138671876,0.004070715047419071,0.012677855789661407,0.024445584043860435
