time,seconds_elapsed,z,y,x
1772537172126310100,0.06731005859375,-0.5802459716796875,-0.2223663330078125,0.0534210205078125
1772537172136358100,0.077358154296875,-0.5863800048828125,-0.2497100830078125,0.0898284912109375
1772537172146406100,0.08740625,-0.6054840087890625,-0.314117431640625,0.1514739990234375
1772537172156455200,0.097455078125,-0.6402435302734375,-0.385009765625,0.2146759033203125
1772537172166503200,0.107503173828125,-0.6718292236328125,-0.4480133056640625,0.2586517333984375
1772537172176551200,0.11755126953125,-0.700347900390625,-0.496337890625,0.2696685791015625
1772537172186599200,0.12759912109375,-0.727264404296875,-0.5195465087890625,0.251953125
1772537172196648200,0.137648193359375,-0.79815673828125,-0.539398193359375,0.22711181640625
1772537172206696200,0.1476962890625,-0.910491943359375,-0.5686798095703125,0.2119903564453125
1772537172216744200,0.157744140625,-0.99896240234375,-0.572509765625,0.1902313232421875
1772537172226793200,0.167793212890625,-1.056182861328125,-0.577667236328125,0.1841583251953125
1772537172236841200,0.17784130859375,-1.089630126953125,-0.6222076416015625,0.213348388671875
1772537172246889200,0.18788916015625,-1.1269989013671875,-0.7112884521484375,0.2664031982421875
1772537172256937200,0.197937255859375,-1.2186126708984375,-0.8491668701171875,0.358062744140625
1772537172266986200,0.207986328125,-1.3563079833984375,-0.9893035888671875,0.4718017578125
1772537172277034200,0.2180341796875,-1.489288330078125,-1.03369140625,0.5375213623046875
1772537172287082200,0.228082275390625,-1.565826416015625,-0.9835357666015625,0.49700927734375
1772537172297131300,0.23813134765625,-1.61749267578125,-0.9084014892578125,0.414764404296875
1772537172307179300,0.24817919921875,-1.6595611572265625,-0.86871337890625,0.3539886474609375
1772537172317227000,0.25822705078125,-1.720428466796875,-0.8739471435546875,0.3130950927734375
1772537172327275300,0.268275146484375,-1.7799072265625,-0.8916015625,0.295654296875
1772537172337324000,0.278323974609375,-1.804443359375,-0.8798065185546875,0.2931365966796875
1772537172347372300,0.288372314453125,-1.8040313720703125,-0.8695068359375,0.3252716064453125
1772537172357420300,0.298420166015625,-1.797821044921875,-0.859100341796875,0.372589111328125
1772537172367469300,0.30846923828125,-1.7287750244140625,-0.8438720703125,0.3765716552734375
1772537172377517300,0.318517333984375,-1.6571502685546875,-0.832489013671875,0.3496246337890625
1772537172387565000,0.32856494140625,-1.6179962158203125,-0.80877685546875,0.3234405517578125
1772537172397613300,0.33861328125,-1.563751220703125,-0.761627197265625,0.314300537109375
1772537172407662000,0.348662109375,-1.4540252685546875,-0.7152252197265625,0.301361083984375
1772537172417710300,0.35871044921875,-1.3482818603515625,-0.6577301025390625,0.281036376953125
1772537172427758300,0.36875830078125,-1.16510009765625,-0.5597991943359375,0.2355499267578125
1772537172437807000,0.37880712890625,-0.966094970703125,-0.4108123779296875,0.161895751953125
1772537172447855400,0.38885546875,-0.8940582275390625,-0.2692413330078125,0.116058349609375
1772537172457903000,0.398903076171875,-0.7835540771484375,-0.1765289306640625,0.0915069580078125
1772537172467951400,0.408951416015625,-0.6705474853515625,-0.1014556884765625,0.0723114013671875
1772537172478000000,0.419000244140625,-0.566162109375,-0.0287933349609375,0.057464599609375
1772537172488048400,0.42904833984375,-0.449615478515625,0.032745361328125,0.0196533203125
1772537172498096000,0.43909619140625,-0.3453521728515625,0.087310791015625,-0.0114593505859375
1772537172508145200,0.449145263671875,-0.2432403564453125,0.125457763671875,-0.02532958984375
1772537172518193200,0.459193115234375,-0.1645050048828125,0.1260833740234375,-0.066375732421875
1772537172528241200,0.4692412109375,-0.0858306884765625,0.1326751708984375,-0.0879974365234375
1772537172538290200,0.479290283203125,-0.0056610107421875,0.1497955322265625,-0.064178466796875
1772537172548338200,0.489338134765625,0.03961181640625,0.127838134765625,-0.053070068359375
1772537172558386200,0.49938623046875,0.0850677490234375,0.091217041015625,-0.056915283203125
1772537172568434200,0.50943408203125,0.1270904541015625,0.0644683837890625,-0.0601806640625
1772537172578483200,0.519483154296875,0.151947021484375,0.0567779541015625,-0.060333251953125
1772537172588531200,0.52953125,0.1556549072265625,0.06842041015625,-0.0465087890625
1772537172598579200,0.5395791015625,0.1281280517578125,0.070831298828125,-0.0368499755859375
1772537172608628200,0.549628173828125,0.07879638671875,0.065399169921875,-0.0512542724609375
1772537172618676200,0.55967626953125,0.06427001953125,0.0594940185546875,-0.0463409423828125
1772537172628724200,0.56972412109375,0.0524139404296875,0.0198974609375,-0.0238189697265625
1772537172638772200,0.579772216796875,-0.00982666015625,-0.01666259765625,-0.021636962890625
1772537172648821000,0.589821044921875,-0.10406494140625,-0.041290283203125,-0.0126800537109375
1772537172658869200,0.599869140625,-0.2010955810546875,-0.1116180419921875,-0.0035247802734375
1772537172668917200,0.609917236328125,-0.3509674072265625,-0.1982421875,-0.0101470947265625
1772537172678966300,0.61996630859375,-0.49951171875,-0.282989501953125,0.000732421875
1772537172689014300,0.63001416015625,-0.6154327392578125,-0.42218017578125,0.0629730224609375
1772537172699062000,0.64006201171875,-0.7635650634765625,-0.5716400146484375,0.13592529296875
1772537172709110300,0.6501103515625,-0.9166717529296875,-0.65460205078125,0.1660919189453125
1772537172719159000,0.660158935546875,-1.0517730712890625,-0.6411285400390625,0.152008056640625
1772537172729207300,0.670207275390625,-1.1853485107421875,-0.619384765625,0.134521484375
1772537172739255300,0.68025537109375,-1.36688232421875,-0.67352294921875,0.1551513671875
1772537172749304300,0.69030419921875,-1.5503997802734375,-0.7648468017578125,0.225250244140625
1772537172759352300,0.700352294921875,-1.7317352294921875,-0.84228515625,0.3038482666015625
1772537172769400000,0.710400146484375,-1.901123046875,-0.904052734375,0.330963134765625
1772537172779448300,0.7204482421875,-1.9762420654296875,-0.9438018798828125,0.3043975830078125
1772537172789497000,0.7304970703125,-1.9639739990234375,-0.99700927734375,0.25537109375
1772537172799545300,0.74054541015625,-1.96197509765625,-1.058502197265625,0.23162841796875
1772537172809593000,0.750593017578125,-2.0096282958984375,-1.12933349609375,0.2517242431640625
1772537172819642400,0.760642333984375,-2.078582763671875,-1.1986846923828125,0.3077392578125
1772537172829690000,0.770690185546875,-2.1224212646484375,-1.214508056640625,0.346771240234375
1772537172839738000,0.780738037109375,-2.0986328125,-1.194000244140625,0.3529510498046875
1772537172849786400,0.790786376953125,-2.0313568115234375,-1.1474609375,0.3254852294921875
1772537172859835100,0.800835205078125,-1.9700164794921875,-1.0587310791015625,0.2888641357421875
1772537172869883400,0.81088330078125,-1.9032440185546875,-0.956787109375,0.2630462646484375
1772537172879931100,0.82093115234375,-1.7908172607421875,-0.8431243896484375,0.2419281005859375
1772537172889980400,0.83098046875,-1.629913330078125,-0.7325286865234375,0.1998748779296875
1772537172900028200,0.841028076171875,-1.49139404296875,-0.640869140625,0.2018280029296875
1772537172910076200,0.851076171875,-1.344268798828125,-0.534454345703125,0.2288665771484375
1772537172920125200,0.861125244140625,-1.1808013916015625,-0.3818359375,0.211700439453125
1772537172930173200,0.871173095703125,-0.9920196533203125,-0.2292633056640625,0.1744384765625
1772537172940221200,0.88122119140625,-0.79736328125,-0.13018798828125,0.1446533203125
1772537172950269200,0.891269287109375,-0.6491241455078125,-0.057952880859375,0.1094970703125
1772537172960318200,0.901318115234375,-0.545196533203125,0.0154266357421875,0.0485076904296875
1772537172970366200,0.9113662109375,-0.4492034912109375,0.071990966796875,-0.0083465576171875
1772537172980414200,0.921414306640625,-0.3421173095703125,0.096832275390625,-0.0419158935546875
1772537172990463200,0.931463134765625,-0.256988525390625,0.123779296875,-0.06756591796875
1772537173000511200,0.94151123046875,-0.1675567626953125,0.1670074462890625,-0.0799407958984375
1772537173010559000,0.95155908203125,-0.0646514892578125,0.1952056884765625,-0.0804901123046875
1772537173020607200,0.961607177734375,0.00677490234375,0.191650390625,-0.0379791259765625
1772537173030656000,0.971656005859375,0.0748748779296875,0.1484832763671875,0.020965576171875
1772537173040704300,0.981704345703125,0.1396484375,0.099334716796875,0.0619354248046875
1772537173050752300,0.991752197265625,0.2016143798828125,0.0655975341796875,0.0822601318359375
1772537173060801300,1.00180126953125,0.24627685546875,0.032623291015625,0.0733184814453125
1772537173070849300,1.011849365234375,0.24981689453125,0.0016021728515625,0.0414581298828125
1772537173080897000,1.02189697265625,0.24652099609375,-0.027374267578125,-0.0055084228515625
1772537173090945300,1.0319453125,0.2283172607421875,-0.044677734375,-0.050262451171875
1772537173100990000,1.041989990234375,0.1859588623046875,-0.0602569580078125,-0.0930023193359375
1772537173111038000,1.052037841796875,0.1179351806640625,-0.0904083251953125,-0.110015869140625
1772537173121086000,1.0620859375,0.0160675048828125,-0.1318206787109375,-0.098358154296875
1772537173131135000,1.072135009765625,-0.1163787841796875,-0.1859283447265625,-0.0642547607421875
1772537173141183000,1.082182861328125,-0.2361602783203125,-0.278045654296875,-0.0196380615234375
1772537173151231000,1.09223095703125,-0.34649658203125,-0.406402587890625,0.02813720703125
1772537173161279000,1.102279052734375,-0.45416259765625,-0.5407562255859375,0.073089599609375
1772537173171328000,1.112327880859375,-0.5930023193359375,-0.6755218505859375,0.1191864013671875
1772537173181376000,1.1223759765625,-0.793670654296875,-0.7959442138671875,0.155914306640625
1772537173191424000,1.132424072265625,-1.018829345703125,-0.914031982421875,0.17095947265625
1772537173201473000,1.14247314453125,-1.227325439453125,-0.985107421875,0.1434326171875
1772537173211521000,1.15252099609375,-1.4188995361328125,-0.9230804443359375,0.0399322509765625
1772537173221569000,1.162569091796875,-1.6284027099609375,-0.790679931640625,-0.0904388427734375
1772537173231618000,1.1726181640625,-1.8230438232421875,-0.717681884765625,-0.1658477783203125
1772537173241666000,1.182666015625,-1.9155731201171875,-0.7781524658203125,-0.154022216796875
1772537173251714000,1.192714111328125,-1.9731597900390625,-0.94317626953125,-0.053863525390625
1772537173261761800,1.20276171875,-2.0744781494140625,-1.12030029296875,0.0755157470703125
1772537173271811000,1.21281103515625,-2.206787109375,-1.2373504638671875,0.186187744140625
1772537173281858800,1.22285888671875,-2.35931396484375,-1.2850494384765625,0.260650634765625
1772537173291907000,1.232906982421875,-2.4536895751953125,-1.275146484375,0.2892913818359375
1772537173301955800,1.242955810546875,-2.45843505859375,-1.2052764892578125,0.238433837890625
1772537173312004000,1.253004150390625,-2.395294189453125,-1.10028076171875,0.15203857421875
1772537173322052000,1.263052001953125,-2.2855987548828125,-0.991912841796875,0.0737762451171875
1772537173332099800,1.273099853515625,-2.118927001953125,-0.8492279052734375,-0.014678955078125
1772537173342149000,1.283149169921875,-1.9050750732421875,-0.68536376953125,-0.0825347900390625
1772537173352196900,1.29319677734375,-1.6949920654296875,-0.5442962646484375,-0.0911102294921875
1772537173362245000,1.3032451171875,-1.532562255859375,-0.3991241455078125,-0.1089630126953125
1772537173372294000,1.3132939453125,-1.40185546875,-0.2796478271484375,-0.1416473388671875
1772537173382342100,1.323342041015625,-1.24700927734375,-0.2142333984375,-0.13739013671875
1772537173392390000,1.333389892578125,-1.0738677978515625,-0.136474609375,-0.1278076171875
1772537173402438000,1.34343798828125,-0.8964080810546875,-0.04901123046875,-0.1174468994140625
1772537173412487000,1.35348681640625,-0.7315521240234375,0.00457763671875,-0.0824737548828125
1772537173422535000,1.363534912109375,-0.5771331787109375,0.0322113037109375,-0.03887939453125
1772537173432583200,1.373583251953125,-0.4096221923828125,0.0430145263671875,-0.007049560546875
1772537173442632000,1.3836318359375,-0.260009765625,0.0589141845703125,0.0151214599609375
1772537173452680000,1.393679931640625,-0.1253814697265625,0.0810089111328125,0.0307159423828125
1772537173462728000,1.40372802734375,0.0018157958984375,0.0980377197265625,0.0230560302734375
1772537173472776000,1.41377587890625,0.124114990234375,0.1013641357421875,0.00579833984375
1772537173482825000,1.423824951171875,0.2039794921875,0.091796875,0.0051727294921875
1772537173492873000,1.433873046875,0.2320404052734375,0.061920166015625,0.012603759765625
1772537173502921200,1.443921142578125,0.2737579345703125,0.050933837890625,0.016754150390625
1772537173512970000,1.453969970703125,0.305328369140625,0.0579833984375,0.018035888671875
1772537173523018000,1.46401806640625,0.30029296875,0.0461578369140625,0.0245513916015625
1772537173533066000,1.47406591796875,0.2846832275390625,0.0370330810546875,0.0156097412109375
1772537173543114000,1.484114013671875,0.241485595703125,0.0458221435546875,-0.022064208984375
1772537173553163000,1.4941630859375,0.1807098388671875,0.031402587890625,-0.0455322265625
1772537173563211000,1.5042109375,0.1024932861328125,0.01739501953125,-0.065460205078125
1772537173573258800,1.5142587890625,-0.0285186767578125,0.0065765380859375,-0.061370849609375
1772537173583308000,1.52430810546875,-0.175933837890625,-0.0555877685546875,-0.04052734375
1772537173593355800,1.534355712890625,-0.2820892333984375,-0.1460113525390625,-0.0002288818359375
1772537173603404000,1.544404052734375,-0.37451171875,-0.268096923828125,0.071075439453125
1772537173613452000,1.5544521484375,-0.4819488525390625,-0.4346923828125,0.163543701171875
1772537173623501000,1.5645009765625,-0.5987396240234375,-0.58111572265625,0.2230224609375
1772537173633549000,1.574549072265625,-0.707122802734375,-0.6448974609375,0.22259521484375
1772537173643596800,1.5845966796875,-0.7985076904296875,-0.6462554931640625,0.160430908203125
1772537173653646000,1.59464599609375,-0.907012939453125,-0.6634521484375,0.101593017578125
1772537173663693800,1.60469384765625,-1.0461273193359375,-0.7368011474609375,0.0794525146484375
1772537173673742000,1.6147421875,-1.1841583251953125,-0.770416259765625,0.0438385009765625
1772537173683790800,1.624790771484375,-1.277252197265625,-0.7275238037109375,-0.016143798828125
1772537173693839000,1.634839111328125,-1.3628387451171875,-0.6721649169921875,-0.06304931640625
1772537173703887000,1.64488720703125,-1.4408721923828125,-0.6941986083984375,-0.0240936279296875
1772537173713934800,1.654934814453125,-1.495758056640625,-0.7969970703125,0.081298828125
1772537173723984100,1.664984130859375,-1.57122802734375,-0.937530517578125,0.212432861328125
1772537173734032000,1.675031982421875,-1.6335296630859375,-1.0902862548828125,0.311187744140625
1772537173744080100,1.685080078125,-1.731781005859375,-1.2028961181640625,0.36474609375
1772537173754129000,1.69512890625,-1.851715087890625,-1.253875732421875,0.3810882568359375
1772537173764177200,1.70517724609375,-1.937347412109375,-1.2515869140625,0.3426971435546875
1772537173774225000,1.715224853515625,-1.995086669921875,-1.1910858154296875,0.2521514892578125
1772537173784273000,1.72527294921875,-2.0279541015625,-1.074310302734375,0.130645751953125
1772537173794322000,1.735322021484375,-2.01611328125,-0.9486846923828125,0.002716064453125
1772537173804370000,1.745369873046875,-1.971893310546875,-0.8472137451171875,-0.0823822021484375
1772537173814418200,1.755418212890625,-1.902099609375,-0.778594970703125,-0.08642578125
1772537173824467000,1.765467041015625,-1.777374267578125,-0.7620697021484375,-0.0293731689453125
1772537173834515200,1.77551513671875,-1.6492156982421875,-0.7655029296875,0.059906005859375
1772537173844563000,1.78556298828125,-1.51324462890625,-0.76983642578125,0.1446990966796875
1772537173854611000,1.79561083984375,-1.388275146484375,-0.753509521484375,0.1967620849609375
1772537173864660000,1.805659912109375,-1.2651214599609375,-0.7189483642578125,0.230316162109375
1772537173874708000,1.8157080078125,-1.1409454345703125,-0.6736907958984375,0.2319488525390625
1772537173884756000,1.825755859375,-1.018524169921875,-0.591827392578125,0.20831298828125
1772537173894805000,1.835804931640625,-0.8759765625,-0.484588623046875,0.17523193359375
1772537173904853000,1.84585302734375,-0.7202911376953125,-0.3601531982421875,0.1387481689453125
1772537173914901000,1.85590087890625,-0.581329345703125,-0.250640869140625,0.1035919189453125
1772537173924949000,1.865948974609375,-0.46502685546875,-0.168121337890625,0.071014404296875
1772537173934998000,1.875998046875,-0.36163330078125,-0.089996337890625,0.0380706787109375
1772537173945046000,1.8860458984375,-0.2943572998046875,0.00640869140625,0.003143310546875
1772537173955094000,1.896093994140625,-0.2492218017578125,0.119598388671875,-0.0434417724609375
1772537173965143000,1.90614306640625,-0.2192535400390625,0.220672607421875,-0.079681396484375
1772537173975190800,1.916190673828125,-0.1810302734375,0.2810821533203125,-0.1119384765625
1772537173985239000,1.926239013671875,-0.1279449462890625,0.3030853271484375,-0.1177978515625
1772537173995287800,1.936287841796875,-0.0677642822265625,0.2821197509765625,-0.09234619140625
1772537174005336000,1.946336181640625,-0.0307464599609375,0.2297210693359375,-0.0546112060546875
1772537174015384000,1.956384033203125,0.0111083984375,0.1644439697265625,-0.0256805419921875
1772537174025432000,1.96643212890625,0.053558349609375,0.1134033203125,-0.0142974853515625
1772537174035481000,1.976481201171875,0.0847625732421875,0.07733154296875,-0.01324462890625
1772537174045528800,1.98652880859375,0.0842437744140625,0.046356201171875,-0.0010833740234375
1772537174055577000,1.9965771484375,0.05291748046875,-0.003662109375,0.02655029296875
1772537174065625900,2.0066259765625,-0.00335693359375,-0.0637054443359375,0.058135986328125
1772537174075674000,2.016674072265625,-0.097381591796875,-0.1399383544921875,0.0867919921875
1772537174085721900,2.026721923828125,-0.1708221435546875,-0.2666015625,0.1008453369140625
1772537174095769900,2.036769775390625,-0.25750732421875,-0.37860107421875,0.1049346923828125
1772537174105820700,2.046820556640625,-0.39739990234375,-0.4846038818359375,0.09393310546875
1772537174115868700,2.05686865234375,-0.5082550048828125,-0.658966064453125,0.0924530029296875
1772537174125916400,2.06691650390625,-0.651947021484375,-0.8843994140625,0.160675048828125
1772537174135965700,2.076965576171875,-0.8226470947265625,-1.0828094482421875,0.2478790283203125
1772537174146013400,2.087013427734375,-0.9955596923828125,-1.1237335205078125,0.2546234130859375
1772537174156061700,2.097061767578125,-1.101715087890625,-0.94976806640625,0.138824462890625
1772537174166109400,2.107109375,-1.1910552978515625,-0.6918182373046875,0.01092529296875
1772537174176158700,2.11715869140625,-1.3079833984375,-0.4806060791015625,-0.067657470703125
1772537174186206500,2.12720654296875,-1.37225341796875,-0.385986328125,-0.0923614501953125
1772537174196254500,2.13725439453125,-1.4244842529296875,-0.4913330078125,-0.0365142822265625
1772537174206303500,2.147303466796875,-1.43988037109375,-0.7246551513671875,0.0876922607421875
1772537174216351500,2.1573515625,-1.455657958984375,-0.944854736328125,0.2119140625
1772537174226399700,2.167399658203125,-1.5563201904296875,-1.1204986572265625,0.33148193359375
1772537174236447500,2.177447509765625,-1.66314697265625,-1.26458740234375,0.415130615234375
1772537174246496800,2.187496826171875,-1.7700347900390625,-1.3311614990234375,0.409027099609375
1772537174256544500,2.19754443359375,-1.88372802734375,-1.3108673095703125,0.3661651611328125
1772537174266592500,2.207592529296875,-1.93896484375,-1.26678466796875,0.283050537109375
1772537174276641500,2.2176416015625,-1.92706298828125,-1.1985931396484375,0.1762237548828125
1772537174286689500,2.227689453125,-1.9091033935546875,-1.1155548095703125,0.101593017578125
1772537174296737800,2.23773779296875,-1.884796142578125,-1.0328216552734375,0.0665740966796875
1772537174306786600,2.24778662109375,-1.818389892578125,-0.9348602294921875,0.065155029296875
1772537174316834800,2.257834716796875,-1.7028045654296875,-0.852813720703125,0.0789794921875
1772537174326882600,2.267882568359375,-1.5973358154296875,-0.792816162109375,0.1130523681640625
1772537174336930600,2.2779306640625,-1.473297119140625,-0.736663818359375,0.138519287109375
1772537174346979600,2.2879794921875,-1.3333587646484375,-0.6592864990234375,0.1413116455078125
1772537174357027600,2.298027587890625,-1.155609130859375,-0.5793304443359375,0.1273193359375
1772537174367075600,2.30807568359375,-0.989349365234375,-0.501556396484375,0.0691375732421875
1772537174377124600,2.31812451171875,-0.894927978515625,-0.3961639404296875,-0.0319366455078125
1772537174387172400,2.32817236328125,-0.8227081298828125,-0.3033294677734375,-0.119384765625
1772537174397220600,2.338220703125,-0.71990966796875,-0.240631103515625,-0.1737518310546875
1772537174407268600,2.3482685546875,-0.59332275390625,-0.1762237548828125,-0.1912994384765625
1772537174417317600,2.358317626953125,-0.469940185546875,-0.0825042724609375,-0.1881561279296875
1772537174427365600,2.36836572265625,-0.34893798828125,0.027587890625,-0.1707916259765625
1772537174437413600,2.37841357421875,-0.2486724853515625,0.1242523193359375,-0.1308746337890625
1772537174447462700,2.388462646484375,-0.19622802734375,0.18341064453125,-0.076995849609375
1772537174457510400,2.398510498046875,-0.099609375,0.1967926025390625,-0.054779052734375
1772537174467558700,2.40855859375,0.018768310546875,0.1904296875,-0.029083251953125
1772537174477606700,2.418606689453125,0.092254638671875,0.1708831787109375,0.0060577392578125
1772537174487655700,2.42865576171875,0.134002685546875,0.1540374755859375,0.0374298095703125
1772537174497703700,2.43870361328125,0.1647186279296875,0.137847900390625,0.0607757568359375
1772537174507751400,2.44875146484375,0.207305908203125,0.1165924072265625,0.05914306640625
1772537174517800400,2.458800537109375,0.2176361083984375,0.1156158447265625,0.0638427734375
1772537174527848400,2.468848388671875,0.1728668212890625,0.1020965576171875,0.0645904541015625
1772537174537896700,2.478896728515625,0.1176605224609375,0.034576416015625,0.0723876953125
1772537174547945500,2.488945556640625,0.042327880859375,-0.0539093017578125,0.0957183837890625
1772537174557993700,2.49899365234375,-0.06646728515625,-0.1421661376953125,0.122772216796875
1772537174568041500,2.50904150390625,-0.1820831298828125,-0.2595672607421875,0.1590728759765625
1772537174578089500,2.51908935546875,-0.319976806640625,-0.3865966796875,0.2218170166015625
1772537174588138500,2.529138427734375,-0.4745025634765625,-0.5288543701171875,0.262359619140625
1772537174598186500,2.5391865234375,-0.6314697265625,-0.6304473876953125,0.2615814208984375
1772537174608234800,2.54923486328125,-0.747467041015625,-0.668060302734375,0.276336669921875
1772537174618283500,2.559283447265625,-0.85308837890625,-0.7050323486328125,0.2459716796875
1772537174628331800,2.569331787109375,-0.943023681640625,-0.74249267578125,0.1856842041015625
1772537174638379500,2.579379638671875,-1.0719146728515625,-0.74267578125,0.145050048828125
1772537174648427500,2.589427490234375,-1.1684112548828125,-0.69403076171875,0.0918426513671875
1772537174658476500,2.5994765625,-1.2183685302734375,-0.622314453125,0.028564453125
1772537174668524500,2.609524658203125,-1.2772979736328125,-0.579620361328125,0.005340576171875
1772537174678572500,2.619572509765625,-1.3179779052734375,-0.6444549560546875,0.061370849609375
1772537174688621600,2.62962158203125,-1.3116302490234375,-0.79974365234375,0.164276123046875
1772537174698669600,2.639669677734375,-1.3087310791015625,-0.9816436767578125,0.265472412109375
1772537174708717600,2.649717529296875,-1.348785400390625,-1.1429443359375,0.35162353515625
1772537174718765600,2.659765625,-1.40667724609375,-1.277801513671875,0.405426025390625
1772537174728814600,2.669814697265625,-1.483795166015625,-1.3855438232421875,0.4320831298828125
1772537174738862600,2.679862548828125,-1.5761260986328125,-1.4500732421875,0.4148712158203125
1772537174748910600,2.68991064453125,-1.68231201171875,-1.442657470703125,0.3461761474609375
1772537174758959600,2.699959716796875,-1.7451019287109375,-1.3828125,0.2597503662109375
1772537174769007600,2.710007568359375,-1.791229248046875,-1.3013916015625,0.190338134765625
1772537174779055600,2.7200556640625,-1.788787841796875,-1.196807861328125,0.1348419189453125
1772537174789103600,2.730103515625,-1.7317352294921875,-1.077789306640625,0.1093597412109375
1772537174799152600,2.740152587890625,-1.682220458984375,-1.007659912109375,0.134307861328125
1772537174809200600,2.75020068359375,-1.641082763671875,-0.9844207763671875,0.198333740234375
1772537174819248600,2.76024853515625,-1.5740509033203125,-0.9521026611328125,0.2699737548828125
1772537174829297700,2.770297607421875,-1.475921630859375,-0.8975982666015625,0.30267333984375
1772537174839345400,2.780345458984375,-1.3475341796875,-0.8427581787109375,0.2953338623046875
1772537174849393700,2.7903935546875,-1.2021026611328125,-0.7772064208984375,0.2609100341796875
1772537174859442400,2.8004423828125,-1.062744140625,-0.7000885009765625,0.182891845703125
1772537174869490700,2.81049072265625,-0.91876220703125,-0.610595703125,0.06414794921875
1772537174879538400,2.820538330078125,-0.79254150390625,-0.4837799072265625,-0.0630645751953125
1772537174889586700,2.830586669921875,-0.6861724853515625,-0.3169708251953125,-0.1692047119140625
1772537174899635500,2.840635498046875,-0.5970611572265625,-0.16143798828125,-0.234283447265625
1772537174909683500,2.850683349609375,-0.5091400146484375,-0.0883941650390625,-0.242156982421875
1772537174919731700,2.860731689453125,-0.427276611328125,-0.0625,-0.2071533203125
1772537174929780500,2.870780517578125,-0.3518524169921875,-0.0176849365234375,-0.1558685302734375
1772537174939828700,2.880828857421875,-0.261932373046875,0.0466156005859375,-0.1267852783203125
1772537174949876500,2.89087646484375,-0.183197021484375,0.12298583984375,-0.0966033935546875
1772537174959924500,2.900924560546875,-0.124664306640625,0.178863525390625,-0.060394287109375
1772537174969973500,2.910973388671875,-0.0652923583984375,0.2012176513671875,-0.0281219482421875
1772537174980021500,2.921021484375,-0.000518798828125,0.2123260498046875,0.0063018798828125
1772537174990069500,2.931069580078125,0.0526580810546875,0.2212066650390625,0.04229736328125
1772537175000118500,2.941118408203125,0.0767974853515625,0.2186737060546875,0.0565338134765625
1772537175010166500,2.95116650390625,0.099334716796875,0.199371337890625,0.0549468994140625
1772537175020214500,2.961214599609375,0.1069183349609375,0.158477783203125,0.072265625
1772537175030262500,2.971262451171875,0.09686279296875,0.0965118408203125,0.0988922119140625
1772537175040311600,2.9813115234375,0.077392578125,0.0208282470703125,0.1079864501953125
1772537175050359600,2.991359619140625,0.0243682861328125,-0.0640716552734375,0.11669921875
1772537175060407600,3.001407470703125,-0.0305633544921875,-0.1945648193359375,0.151031494140625
1772537175070456600,3.01145654296875,-0.0906829833984375,-0.34332275390625,0.2008209228515625
1772537175080504600,3.021504638671875,-0.1656036376953125,-0.479949951171875,0.250213623046875
1772537175090552600,3.031552490234375,-0.2641754150390625,-0.589599609375,0.303924560546875
1772537175100600600,3.0416005859375,-0.3560333251953125,-0.65447998046875,0.3278961181640625
1772537175110648600,3.051648681640625,-0.4403228759765625,-0.6898345947265625,0.2964935302734375
1772537175120696600,3.061696533203125,-0.5709991455078125,-0.7208709716796875,0.26348876953125
1772537175130744600,3.07174462890625,-0.75201416015625,-0.7601776123046875,0.2568511962890625
1772537175140793600,3.081793701171875,-0.9698333740234375,-0.8098297119140625,0.2643585205078125
1772537175150841600,3.091841552734375,-1.1438751220703125,-0.8381195068359375,0.2647857666015625
1772537175160889600,3.1018896484375,-1.234832763671875,-0.7720947265625,0.2257232666015625
1772537175170937600,3.1119375,-1.283599853515625,-0.6411895751953125,0.1444549560546875
1772537175180986600,3.121986572265625,-1.32867431640625,-0.581024169921875,0.1134033203125
1772537175191034600,3.13203466796875,-1.3746337890625,-0.6407470703125,0.1836700439453125
1772537175201082400,3.142082275390625,-1.4388580322265625,-0.746246337890625,0.285400390625
1772537175211131600,3.152131591796875,-1.534637451171875,-0.865509033203125,0.3650665283203125
1772537175221179400,3.162179443359375,-1.60723876953125,-1.0103759765625,0.4261474609375
1772537175231227600,3.1722275390625,-1.651519775390625,-1.14056396484375,0.4368896484375
1772537175241275600,3.182275634765625,-1.704193115234375,-1.2027740478515625,0.399444580078125
1772537175251324700,3.19232470703125,-1.7609100341796875,-1.2295379638671875,0.335205078125
1772537175261372700,3.20237255859375,-1.7804412841796875,-1.244110107421875,0.2759857177734375
1772537175271420400,3.21242041015625,-1.7861175537109375,-1.2159423828125,0.2357025146484375
1772537175281469700,3.2224697265625,-1.803436279296875,-1.1490936279296875,0.2243804931640625
1772537175291517400,3.232517333984375,-1.770416259765625,-1.087799072265625,0.22723388671875
1772537175301565700,3.242565673828125,-1.729949951171875,-1.0380859375,0.253326416015625
1772537175311613400,3.252613525390625,-1.6792755126953125,-1.0100860595703125,0.296600341796875
1772537175321662700,3.262662841796875,-1.6202392578125,-0.9680938720703125,0.3214874267578125
1772537175331710500,3.27271044921875,-1.5309600830078125,-0.8945159912109375,0.32061767578125
1772537175341758500,3.282758544921875,-1.4194793701171875,-0.8149566650390625,0.29571533203125
1772537175351807500,3.292807373046875,-1.2714385986328125,-0.735595703125,0.25079345703125
1772537175361855500,3.30285546875,-1.1175079345703125,-0.63433837890625,0.2019805908203125
1772537175371903700,3.31290380859375,-0.9240875244140625,-0.5050201416015625,0.153564453125
1772537175381951500,3.322951416015625,-0.7106170654296875,-0.38311767578125,0.075836181640625
1772537175392000800,3.333000732421875,-0.5500335693359375,-0.290496826171875,-0.011688232421875
1772537175402048500,3.343048583984375,-0.420440673828125,-0.2290496826171875,-0.0692138671875
1772537175412096500,3.353096435546875,-0.3112030029296875,-0.138763427734375,-0.107574462890625
1772537175422145500,3.3631455078125,-0.247344970703125,-0.02130126953125,-0.09844970703125
1772537175432193500,3.373193603515625,-0.1875762939453125,0.06005859375,-0.019378662109375
1772537175442241800,3.38324169921875,-0.157684326171875,0.125,0.0435638427734375
1772537175452289500,3.39328955078125,-0.1628265380859375,0.1756591796875,0.0545196533203125
1772537175462338600,3.403338623046875,-0.1495361328125,0.2037353515625,0.0620574951171875
1772537175472386600,3.413386474609375,-0.108795166015625,0.19512939453125,0.078277587890625
1772537175482434600,3.4234345703125,-0.057464599609375,0.1412811279296875,0.0909271240234375
1772537175492483600,3.433483642578125,-0.0197296142578125,0.0770111083984375,0.11651611328125
1772537175502531600,3.443531494140625,-0.0117034912109375,0.0407867431640625,0.1461944580078125
1772537175512579600,3.45357958984375,-0.0043487548828125,0.0302276611328125,0.1360321044921875
1772537175522628600,3.463628662109375,0.007659912109375,0.0190582275390625,0.1117095947265625
1772537175532676400,3.47367626953125,-0.0095977783203125,0.0070953369140625,0.0862274169921875
1772537175542724600,3.483724609375,-0.0590667724609375,0.0002899169921875,0.0630645751953125
1772537175552772600,3.493772705078125,-0.1097564697265625,-0.0266265869140625,0.0447235107421875
1772537175562821600,3.503821533203125,-0.1519775390625,-0.079986572265625,0.03070068359375
1772537175572869600,3.51386962890625,-0.177886962890625,-0.174652099609375,0.023162841796875
1772537175582917600,3.523917724609375,-0.2317047119140625,-0.30621337890625,0.0494232177734375
1772537175592966700,3.533966552734375,-0.3357391357421875,-0.4575653076171875,0.0890350341796875
1772537175603014400,3.544014404296875,-0.4627838134765625,-0.6065826416015625,0.1123199462890625
1772537175613062700,3.554062744140625,-0.5588531494140625,-0.7353057861328125,0.1296844482421875
1772537175623110700,3.564110595703125,-0.67041015625,-0.782989501953125,0.1297454833984375
1772537175633159700,3.57415966796875,-0.8321685791015625,-0.775970458984375,0.1026153564453125
1772537175643207400,3.58420751953125,-0.9660491943359375,-0.760986328125,0.0437164306640625
1772537175653255400,3.59425537109375,-1.082427978515625,-0.749786376953125,-0.019256591796875
1772537175663304400,3.604304443359375,-1.1918792724609375,-0.751373291015625,-0.0756683349609375
1772537175673352400,3.6143525390625,-1.3105316162109375,-0.7382965087890625,-0.1343994140625
1772537175683400700,3.624400634765625,-1.4240875244140625,-0.7529754638671875,-0.1497344970703125
1772537175693448400,3.634448486328125,-1.5100860595703125,-0.82830810546875,-0.100555419921875
1772537175703497700,3.644497802734375,-1.5401611328125,-0.9022216796875,-0.018798828125
1772537175713545500,3.65454541015625,-1.558380126953125,-0.938140869140625,0.03204345703125
1772537175723593500,3.664593505859375,-1.593536376953125,-0.98260498046875,0.0608978271484375
1772537175733642500,3.674642578125,-1.6188201904296875,-1.075927734375,0.0946044921875
1772537175743690500,3.6846904296875,-1.65020751953125,-1.199981689453125,0.130889892578125
1772537175753738800,3.69473876953125,-1.714599609375,-1.2564544677734375,0.11590576171875
1772537175763786500,3.704786376953125,-1.745147705078125,-1.233367919921875,0.0674591064453125
1772537175773835800,3.714835693359375,-1.734283447265625,-1.2025299072265625,0.031982421875
1772537175783883500,3.724883544921875,-1.696502685546875,-1.157318115234375,0.042144775390625
1772537175793931500,3.734931640625,-1.6571807861328125,-1.11260986328125,0.0918731689453125
1772537175803980500,3.74498046875,-1.5912017822265625,-1.05511474609375,0.132537841796875
1772537175814028500,3.755028564453125,-1.4795379638671875,-0.9847869873046875,0.1468505859375
1772537175824076500,3.76507666015625,-1.3679962158203125,-0.91607666015625,0.15325927734375
1772537175834124500,3.77512451171875,-1.294769287109375,-0.8392486572265625,0.1687164306640625
1772537175844173600,3.785173583984375,-1.2567901611328125,-0.7550201416015625,0.175079345703125
1772537175854221600,3.7952216796875,-1.20941162109375,-0.6383819580078125,0.1687164306640625
1772537175864269600,3.80526953125,-1.1383209228515625,-0.5296630859375,0.1678314208984375
1772537175874318600,3.815318603515625,-1.0499420166015625,-0.4573974609375,0.160552978515625
1772537175884366600,3.82536669921875,-0.975982666015625,-0.38604736328125,0.1314849853515625
1772537175894414600,3.83541455078125,-0.9121856689453125,-0.305084228515625,0.1034393310546875
1772537175904462600,3.845462646484375,-0.8309326171875,-0.2142791748046875,0.072845458984375
1772537175914511600,3.85551171875,-0.7239532470703125,-0.1312255859375,0.0657501220703125
1772537175924559600,3.8655595703125,-0.6102447509765625,-0.06317138671875,0.0706329345703125
1772537175934607600,3.875607666015625,-0.506988525390625,0.002471923828125,0.0728302001953125
1772537175944656600,3.88565673828125,-0.401763916015625,0.0446929931640625,0.0661773681640625
1772537175954704600,3.89570458984375,-0.2942352294921875,0.0688323974609375,0.052459716796875
1772537175964752600,3.905752685546875,-0.195068359375,0.080078125,0.037078857421875
1772537175974800600,3.915800537109375,-0.103271484375,0.08502197265625,0.0046539306640625
1772537175984849700,3.925849609375,-0.024200439453125,0.087646484375,-0.031982421875
1772537175994897700,3.935897705078125,0.05352783203125,0.0849456787109375,-0.0446014404296875
1772537176004945400,3.9459453125,0.110504150390625,0.0703125,-0.03802490234375
1772537176014994700,3.95599462890625,0.1349334716796875,0.0460662841796875,-0.035797119140625
1772537176025042400,3.96604248046875,0.119171142578125,0.0204315185546875,-0.0425262451171875
1772537176035090700,3.976090576171875,0.1033172607421875,0.017974853515625,-0.0301513671875
1772537176045138700,3.986138671875,0.0720977783203125,0.024078369140625,-0.019073486328125
1772537176055187500,3.9961875,0.007080078125,-0.01519775390625,-0.0106658935546875
1772537176065235700,4.006235595703125,-0.04058837890625,-0.0592498779296875,-0.0252227783203125
1772537176075283500,4.016283447265625,-0.1110382080078125,-0.0910491943359375,-0.0331573486328125
1772537176085332700,4.026332763671875,-0.1939697265625,-0.1906585693359375,-0.002838134765625
1772537176095380500,4.03638037109375,-0.276824951171875,-0.3649749755859375,0.03448486328125
1772537176105429800,4.0464296875,-0.3821868896484375,-0.546875,0.08209228515625
1772537176115477800,4.056477783203125,-0.5049896240234375,-0.699920654296875,0.1228485107421875
1772537176125526800,4.06652685546875,-0.6364593505859375,-0.8017425537109375,0.1359405517578125
1772537176135574800,4.07657470703125,-0.7557220458984375,-0.841156005859375,0.0922088623046875
1772537176145622800,4.086622802734375,-0.857421875,-0.8297882080078125,0.0325164794921875
1772537176155671600,4.096671630859375,-0.9649810791015625,-0.816314697265625,-0.0177154541015625
1772537176165719800,4.1067197265625,-1.0950164794921875,-0.8026885986328125,-0.0730133056640625
1772537176175767600,4.116767578125,-1.20050048828125,-0.7613067626953125,-0.1558380126953125
1772537176185815800,4.12681591796875,-1.2581329345703125,-0.7387542724609375,-0.2097320556640625
1772537176195864600,4.136864501953125,-1.3278045654296875,-0.8162078857421875,-0.163360595703125
1772537176205912600,4.14691259765625,-1.3991241455078125,-0.9510498046875,-0.034759521484375
1772537176215960800,4.1569609375,-1.4738922119140625,-1.0749969482421875,0.0940093994140625
1772537176226009600,4.167009521484375,-1.5625,-1.1927642822265625,0.1696624755859375
1772537176236057900,4.177057861328125,-1.6385040283203125,-1.2801513671875,0.1947784423828125
1772537176246105600,4.187105712890625,-1.73980712890625,-1.3163909912109375,0.1920166015625
1772537176256153600,4.197153564453125,-1.826507568359375,-1.3101043701171875,0.1514129638671875
1772537176266202600,4.20720263671875,-1.897857666015625,-1.2571868896484375,0.0794525146484375
1772537176276250600,4.217250732421875,-1.964996337890625,-1.1957855224609375,0.016357421875
1772537176286298600,4.227298583984375,-1.990325927734375,-1.144683837890625,-0.0242767333984375
1772537176296347600,4.23734765625,-1.9544219970703125,-1.094482421875,-0.0456085205078125
1772537176306395600,4.247395751953125,-1.894439697265625,-1.0665283203125,0.0020904541015625
1772537176316443600,4.257443603515625,-1.816162109375,-1.07525634765625,0.0977325439453125
1772537176326491600,4.26749169921875,-1.714019775390625,-1.0646514892578125,0.197174072265625
1772537176336540700,4.277540771484375,-1.6123504638671875,-1.0269775390625,0.2679290771484375
1772537176346588700,4.287588623046875,-1.5277862548828125,-0.9819793701171875,0.3044281005859375
1772537176356636700,4.29763671875,-1.43048095703125,-0.9133148193359375,0.2987823486328125
1772537176366685700,4.307685791015625,-1.2846221923828125,-0.8178253173828125,0.257232666015625
1772537176376733700,4.317733642578125,-1.13653564453125,-0.6883544921875,0.1978607177734375
1772537176386781700,4.32778173828125,-0.9891204833984375,-0.5377349853515625,0.15081787109375
1772537176396829700,4.33782958984375,-0.824951171875,-0.4019775390625,0.103363037109375
1772537176406878700,4.347878662109375,-0.67529296875,-0.27435302734375,0.07904052734375
1772537176416926700,4.3579267578125,-0.5625762939453125,-0.1609039306640625,0.0662078857421875
1772537176426974700,4.367974609375,-0.4698028564453125,-0.070220947265625,0.041290283203125
1772537176437023700,4.378023681640625,-0.3788909912109375,0.0129852294921875,0.016632080078125
1772537176447071700,4.38807177734375,-0.30450439453125,0.0781402587890625,-0.00579833984375
1772537176457119700,4.39811962890625,-0.2391204833984375,0.1268310546875,-0.04595947265625
1772537176467167500,4.40816748046875,-0.190338134765625,0.1815185546875,-0.0901336669921875
1772537176477216800,4.418216796875,-0.14544677734375,0.21832275390625,-0.098663330078125
1772537176487264500,4.428264404296875,-0.096588134765625,0.2210540771484375,-0.1002044677734375
1772537176497312800,4.438312744140625,-0.0433349609375,0.1948089599609375,-0.094390869140625
1772537176507361500,4.448361572265625,0.0108795166015625,0.15966796875,-0.076507568359375
1772537176517409800,4.458409912109375,0.0592498779296875,0.1256103515625,-0.0543060302734375
1772537176527457800,4.468457763671875,0.084625244140625,0.090301513671875,-0.0177764892578125
1772537176537505500,4.478505615234375,0.086578369140625,0.0543212890625,0.0078887939453125
1772537176547554800,4.488554931640625,0.084869384765625,0.0274505615234375,0.0188751220703125
1772537176557602600,4.4986025390625,0.0732879638671875,-0.0172271728515625,0.0390777587890625
1772537176567650800,4.50865087890625,0.0423126220703125,-0.09393310546875,0.0623931884765625
1772537176577699600,4.518699462890625,-0.0170135498046875,-0.1707000732421875,0.0736846923828125
1772537176587747800,4.528747802734375,-0.099945068359375,-0.24884033203125,0.09503173828125
1772537176597795800,4.5387958984375,-0.1702728271484375,-0.3552093505859375,0.110809326171875
1772537176607843600,4.548843505859375,-0.2447662353515625,-0.451995849609375,0.1259613037109375
1772537176617892900,4.558892822265625,-0.3166046142578125,-0.53778076171875,0.1158599853515625
1772537176627940600,4.568940673828125,-0.3763275146484375,-0.59259033203125,0.0916595458984375
1772537176637988900,4.57898876953125,-0.4487457275390625,-0.6737823486328125,0.090850830078125
1772537176648037600,4.58903759765625,-0.5571746826171875,-0.834136962890625,0.156219482421875
1772537176658085600,4.599085693359375,-0.67626953125,-0.9678955078125,0.2214202880859375
1772537176668133600,4.609133544921875,-0.7598114013671875,-0.938934326171875,0.1815643310546875
1772537176678181600,4.619181640625,-0.81256103515625,-0.77606201171875,0.0381011962890625
1772537176688230700,4.629230712890625,-0.8881988525390625,-0.6629791259765625,-0.0733795166015625
1772537176698278700,4.639278564453125,-0.9904937744140625,-0.7105255126953125,-0.0607757568359375
1772537176708327000,4.649326904296875,-1.095367431640625,-0.8636932373046875,0.0475006103515625
1772537176718375700,4.659375732421875,-1.1780853271484375,-1.0308837890625,0.1648712158203125
1772537176728423700,4.669423583984375,-1.2438507080078125,-1.2144012451171875,0.2766571044921875
1772537176738471700,4.6794716796875,-1.3424072265625,-1.3867340087890625,0.3678741455078125
1772537176748519700,4.689519775390625,-1.485992431640625,-1.489898681640625,0.3596343994140625
1772537176758568700,4.699568603515625,-1.5883331298828125,-1.4967041015625,0.232818603515625
1772537176768616700,4.70961669921875,-1.6931610107421875,-1.416259765625,0.0599517822265625
1772537176778664700,4.719664794921875,-1.7557830810546875,-1.330596923828125,-0.0755767822265625
1772537176788713700,4.729713623046875,-1.79180908203125,-1.244964599609375,-0.147918701171875
1772537176798761700,4.73976171875,-1.81646728515625,-1.18231201171875,-0.1391143798828125
1772537176808809700,4.749809814453125,-1.7970733642578125,-1.129486083984375,-0.0753631591796875
1772537176818857700,4.759857666015625,-1.7638397216796875,-1.066986083984375,0.0101318359375
1772537176828906800,4.76990673828125,-1.7083587646484375,-1.0201568603515625,0.0966033935546875
1772537176838954800,4.779954833984375,-1.637420654296875,-0.97943115234375,0.1649627685546875
1772537176849002500,4.79000244140625,-1.544921875,-0.9305877685546875,0.20257568359375
1772537176859051800,4.8000517578125,-1.4348602294921875,-0.88592529296875,0.1963653564453125
1772537176869099500,4.810099609375,-1.3236541748046875,-0.83819580078125,0.172607421875
1772537176879147800,4.820147705078125,-1.2048797607421875,-0.7595367431640625,0.1474761962890625
1772537176889195800,4.83019580078125,-1.0760650634765625,-0.6813201904296875,0.123992919921875
1772537176899244800,4.840244873046875,-0.9586181640625,-0.613006591796875,0.12249755859375
1772537176909292800,4.850292724609375,-0.8386688232421875,-0.54150390625,0.123992919921875
1772537176919340500,4.860340576171875,-0.6837310791015625,-0.4545745849609375,0.1228179931640625
1772537176929389800,4.870389892578125,-0.5555419921875,-0.36492919921875,0.1331024169921875
1772537176939437600,4.8804375,-0.455780029296875,-0.2800750732421875,0.140899658203125
1772537176949485800,4.89048583984375,-0.3737335205078125,-0.1940460205078125,0.1445770263671875
1772537176959533600,4.900533447265625,-0.324310302734375,-0.1024932861328125,0.1444854736328125
1772537176969582800,4.910582763671875,-0.307159423828125,-0.0315399169921875,0.146575927734375
1772537176979630600,4.920630615234375,-0.2671966552734375,-0.01678466796875,0.114837646484375
1772537176989678600,4.9306787109375,-0.2232513427734375,-0.008087158203125,0.074310302734375
1772537176999727600,4.9407275390625,-0.20135498046875,-0.0023956298828125,0.037872314453125
1772537177009775600,4.950775634765625,-0.1788787841796875,-0.0034637451171875,0.018157958984375
1772537177019823900,4.960823974609375,-0.159027099609375,-0.0109405517578125,0.01544189453125
1772537177029871600,4.97087158203125,-0.152130126953125,-0.0192413330078125,0.017578125
1772537177039921000,4.9809208984375,-0.144195556640625,-0.0229339599609375,0.0157318115234375
1772537177049968600,4.99096875,-0.1253814697265625,-0.0290069580078125,0.01373291015625
1772537177060016600,5.0010166015625,-0.1106109619140625,-0.0399932861328125,0.003387451171875
1772537177070065000,5.01106494140625,-0.10980224609375,-0.0582427978515625,-0.00262451171875
1772537177080113700,5.02111376953125,-0.1271514892578125,-0.0849609375,0.002655029296875
1772537177090162000,5.031161865234375,-0.1493377685546875,-0.120819091796875,0.0146331787109375
1772537177100209700,5.041209716796875,-0.167449951171875,-0.14544677734375,0.0268707275390625
1772537177110257200,5.051257080078125,-0.190185546875,-0.16650390625,0.0196685791015625
1772537177120305400,5.061305419921875,-0.2173004150390625,-0.2008209228515625,0.0092010498046875
1772537177130353200,5.071353271484375,-0.2477569580078125,-0.2600250244140625,0.0100860595703125
1772537177140402400,5.08140234375,-0.297119140625,-0.338165283203125,0.030792236328125
1772537177150450200,5.0914501953125,-0.383636474609375,-0.4179840087890625,0.0495147705078125
1772537177160498200,5.101498291015625,-0.499420166015625,-0.4818572998046875,0.06805419921875
1772537177170546200,5.111546142578125,-0.5952301025390625,-0.520416259765625,0.067169189453125
1772537177180595200,5.12159521484375,-0.6801300048828125,-0.533172607421875,0.04327392578125
1772537177190643200,5.131643310546875,-0.77435302734375,-0.5653228759765625,0.016571044921875
1772537177200691200,5.141691162109375,-0.857757568359375,-0.671539306640625,0.0142059326171875
1772537177210740200,5.151740234375,-0.9654388427734375,-0.8319244384765625,0.0733489990234375
1772537177220788200,5.161788330078125,-1.1004791259765625,-0.96685791015625,0.1583709716796875
1772537177230836200,5.171836181640625,-1.196014404296875,-1.0298919677734375,0.19146728515625
1772537177240884200,5.18188427734375,-1.295806884765625,-1.0517425537109375,0.1799468994140625
1772537177250933200,5.191933349609375,-1.4198455810546875,-1.1114044189453125,0.1951751708984375
1772537177260981200,5.201981201171875,-1.52203369140625,-1.2198028564453125,0.2337799072265625
1772537177271029200,5.212029296875,-1.6247100830078125,-1.3373260498046875,0.2601776123046875
1772537177281078300,5.222078369140625,-1.7405853271484375,-1.4459228515625,0.2772216796875
1772537177291126300,5.232126220703125,-1.834014892578125,-1.5381317138671875,0.2802886962890625
1772537177301174300,5.24217431640625,-1.928009033203125,-1.575103759765625,0.2508697509765625
1772537177311222300,5.25222216796875,-1.9864044189453125,-1.53021240234375,0.1921539306640625
1772537177321271300,5.262271240234375,-2.0149078369140625,-1.407135009765625,0.1293182373046875
1772537177331319300,5.2723193359375,-2.0446319580078125,-1.2273101806640625,0.094146728515625
1772537177341367300,5.2823671875,-2.032135009765625,-1.046051025390625,0.1049957275390625
1772537177351415000,5.2924150390625,-1.9271087646484375,-0.9301300048828125,0.12603759765625
1772537177361464300,5.30246435546875,-1.7500152587890625,-0.8310394287109375,0.146514892578125
1772537177371512000,5.312511962890625,-1.55914306640625,-0.7077789306640625,0.1931915283203125
1772537177381560300,5.322560302734375,-1.3717498779296875,-0.580474853515625,0.246002197265625
1772537177391608300,5.3326083984375,-1.2106170654296875,-0.4271392822265625,0.28411865234375
1772537177401657300,5.3426572265625,-1.0225067138671875,-0.3174285888671875,0.3236541748046875
1772537177411705300,5.352705322265625,-0.8329620361328125,-0.246978759765625,0.3010406494140625
1772537177421753000,5.362753173828125,-0.6924285888671875,-0.166839599609375,0.23529052734375
1772537177431802400,5.37280224609375,-0.5625,-0.1109771728515625,0.166015625
1772537177441850000,5.38285009765625,-0.4496917724609375,-0.0792388916015625,0.1258544921875
1772537177451898400,5.3928984375,-0.3659515380859375,-0.0597686767578125,0.1102752685546875
1772537177461946400,5.4029462890625,-0.280670166015625,-0.0455169677734375,0.095367431640625
1772537177471995400,5.412995361328125,-0.195343017578125,-0.03302001953125,0.083282470703125
1772537177482043400,5.42304345703125,-0.140625,-0.03704833984375,0.0768585205078125
1772537177492091100,5.433091064453125,-0.0932769775390625,-0.0480804443359375,0.0440216064453125
1772537177502140200,5.44314013671875,-0.08404541015625,-0.0275421142578125,0.0399627685546875
1772537177512188200,5.453188232421875,-0.097259521484375,-0.0424652099609375,0.06500244140625
1772537177522236400,5.463236328125,-0.0753631591796875,-0.0728912353515625,0.0606536865234375
1772537177532285200,5.47328515625,-0.0428466796875,-0.0565948486328125,0.0465240478515625
1772537177542333200,5.483333251953125,-0.0306396484375,-0.021209716796875,0.0160369873046875
1772537177552381200,5.493381103515625,-0.028289794921875,0.0031890869140625,-0.0089874267578125
1772537177562429200,5.50342919921875,-0.037567138671875,0.01397705078125,-0.0158233642578125
1772537177572478200,5.513478271484375,-0.058685302734375,-0.001861572265625,-0.0179290771484375
1772537177582526200,5.523526123046875,-0.0880889892578125,-0.030731201171875,-0.0301666259765625
1772537177592574500,5.533574462890625,-0.1153717041015625,-0.0585784912109375,-0.039276123046875
1772537177602622200,5.543622314453125,-0.155487060546875,-0.096588134765625,-0.04248046875
1772537177612671200,5.553671142578125,-0.2303009033203125,-0.14599609375,-0.0427703857421875
1772537177622719200,5.56371923828125,-0.31951904296875,-0.2015533447265625,-0.0262298583984375
1772537177632767200,5.573767333984375,-0.424072265625,-0.2513580322265625,0.00946044921875
1772537177642816300,5.583816162109375,-0.5411376953125,-0.28302001953125,0.0164642333984375
1772537177652864300,5.5938642578125,-0.606903076171875,-0.3010406494140625,-0.01019287109375
1772537177662912300,5.603912353515625,-0.6345367431640625,-0.337249755859375,-0.0203399658203125
1772537177672960300,5.613960205078125,-0.66461181640625,-0.4600677490234375,-0.0066986083984375
1772537177683009000,5.624009033203125,-0.774505615234375,-0.67926025390625,0.0821380615234375
1772537177693057300,5.634057373046875,-0.95123291015625,-0.8537139892578125,0.2448883056640625
1772537177703105300,5.644105224609375,-1.0899658203125,-0.82843017578125,0.2826995849609375
1772537177713154300,5.654154296875,-1.18377685546875,-0.6005096435546875,0.1451416015625
1772537177723202300,5.664202392578125,-1.266510009765625,-0.45703125,0.0360107421875
1772537177733250000,5.67425,-1.341888427734375,-0.5067901611328125,0.0633087158203125
1772537177743298300,5.68429833984375,-1.423828125,-0.677825927734375,0.17486572265625
1772537177753347000,5.69434716796875,-1.5089111328125,-0.8440093994140625,0.2630157470703125
1772537177763395300,5.704395263671875,-1.555450439453125,-0.9603729248046875,0.3017578125
1772537177773443300,5.714443359375,-1.5732574462890625,-1.0768585205078125,0.3199462890625
1772537177783492400,5.724492431640625,-1.64105224609375,-1.1583404541015625,0.331390380859375
1772537177793540400,5.734540283203125,-1.76129150390625,-1.1734771728515625,0.32525634765625
1772537177803588000,5.744588134765625,-1.8866424560546875,-1.1468353271484375,0.305267333984375
1772537177813636400,5.75463623046875,-1.9836578369140625,-1.101837158203125,0.289306640625
1772537177823685000,5.76468505859375,-2.0396728515625,-1.0640869140625,0.2679901123046875
1772537177833733400,5.7747333984375,-2.0546875,-1.017791748046875,0.2506866455078125
1772537177843781000,5.784781005859375,-2.019989013671875,-0.9500274658203125,0.2331695556640625
1772537177853830400,5.794830322265625,-1.96588134765625,-0.8793182373046875,0.22064208984375
1772537177863878100,5.804878173828125,-1.91632080078125,-0.831939697265625,0.2314300537109375
1772537177873926100,5.814926025390625,-1.870361328125,-0.7887115478515625,0.2540130615234375
1772537177883974400,5.824974365234375,-1.778167724609375,-0.7510528564453125,0.26483154296875
1772537177894023200,5.835023193359375,-1.65631103515625,-0.705078125,0.2650604248046875
1772537177904071400,5.845071533203125,-1.50640869140625,-0.6451568603515625,0.27569580078125
1772537177914119200,5.855119140625,-1.3259124755859375,-0.5946044921875,0.2830963134765625
1772537177924168400,5.86516845703125,-1.1052093505859375,-0.5237884521484375,0.266937255859375
1772537177934216200,5.87521630859375,-0.897369384765625,-0.432708740234375,0.2398223876953125
1772537177944264200,5.88526416015625,-0.7300567626953125,-0.3409576416015625,0.2046356201171875
1772537177954312400,5.8953125,-0.587188720703125,-0.24005126953125,0.1650848388671875
1772537177964361200,5.905361328125,-0.4670257568359375,-0.1120147705078125,0.1511688232421875
1772537177974409200,5.9154091796875,-0.3683013916015625,0.01165771484375,0.15484619140625
1772537177984457200,5.925457275390625,-0.292144775390625,0.096954345703125,0.14886474609375
1772537177994506200,5.93550634765625,-0.1945343017578125,0.1473846435546875,0.1287078857421875
1772537178004554200,5.94555419921875,-0.1102142333984375,0.18463134765625,0.0748138427734375
1772537178014602200,5.955602294921875,-0.0124969482421875,0.2079010009765625,0.014801025390625
1772537178024650200,5.965650146484375,0.06732177734375,0.214935302734375,-0.0159759521484375
1772537178034699300,5.97569921875,0.11749267578125,0.2021331787109375,-0.0235137939453125
1772537178044747300,5.985747314453125,0.1569366455078125,0.185455322265625,-0.0335540771484375
1772537178054795300,5.995795166015625,0.183868408203125,0.1832122802734375,-0.0289154052734375
1772537178064844000,6.005843994140625,0.1939544677734375,0.1738739013671875,-0.0192413330078125
1772537178074892300,6.015892333984375,0.1879425048828125,0.1619873046875,-0.023101806640625
1772537178084940300,6.025940185546875,0.164276123046875,0.1523590087890625,-0.008575439453125
1772537178094988300,6.03598828125,0.1199798583984375,0.1119537353515625,-0.004974365234375
1772537178105037300,6.046037353515625,0.0857391357421875,0.046600341796875,-0.0144805908203125
1772537178115089200,6.056089111328125,0.009735107421875,-0.0133514404296875,-0.010589599609375
1772537178125137200,6.06613720703125,-0.1068115234375,-0.1176605224609375,0.012115478515625
1772537178135186000,6.07618603515625,-0.20135498046875,-0.2844696044921875,0.0577850341796875
1772537178145234200,6.086234130859375,-0.2983856201171875,-0.43695068359375,0.1027374267578125
1772537178155282000,6.096281982421875,-0.3689422607421875,-0.551544189453125,0.12225341796875
1772537178165330200,6.106330078125,-0.42254638671875,-0.6429443359375,0.1213531494140625
1772537178175379000,6.11637890625,-0.506500244140625,-0.742767333984375,0.1176605224609375
1772537178185427200,6.12642724609375,-0.651641845703125,-0.8494720458984375,0.159393310546875
1772537178195475200,6.13647509765625,-0.8454132080078125,-0.9155731201171875,0.17156982421875
1772537178205524000,6.14652392578125,-1.015289306640625,-0.9220123291015625,0.095672607421875
1772537178215572200,6.156572265625,-1.1589813232421875,-0.8610382080078125,0.0024261474609375
1772537178225620000,6.166619873046875,-1.3212738037109375,-0.793487548828125,-0.0694732666015625
1772537178235668200,6.176668212890625,-1.4478302001953125,-0.8062286376953125,-0.1083831787109375
1772537178245717000,6.186717041015625,-1.505523681640625,-0.895172119140625,-0.0547027587890625
1772537178255765000,6.196764892578125,-1.531158447265625,-0.984710693359375,0.0329132080078125
1772537178265813000,6.20681298828125,-1.574432373046875,-1.0655670166015625,0.1460418701171875
1772537178275861000,6.216861083984375,-1.6365814208984375,-1.188812255859375,0.2984771728515625
1772537178285910000,6.226909912109375,-1.6849517822265625,-1.267181396484375,0.411346435546875
1772537178295958000,6.2369580078125,-1.7451934814453125,-1.251800537109375,0.473846435546875
1772537178306006300,6.24700634765625,-1.7587738037109375,-1.253662109375,0.4864044189453125
1772537178316055000,6.257054931640625,-1.75079345703125,-1.24835205078125,0.4560089111328125
1772537178326103000,6.26710302734375,-1.746307373046875,-1.222869873046875,0.434783935546875
1772537178336151000,6.277151123046875,-1.6941680908203125,-1.196075439453125,0.4405975341796875
1772537178346199000,6.287198974609375,-1.6494598388671875,-1.1513671875,0.4528045654296875
1772537178356248000,6.297248046875,-1.6053314208984375,-1.1192474365234375,0.488555908203125
1772537178366296000,6.307296142578125,-1.5343170166015625,-1.0933685302734375,0.548919677734375
1772537178376344000,6.317343994140625,-1.4701080322265625,-1.0467071533203125,0.6009521484375
1772537178386393000,6.32739306640625,-1.4024505615234375,-0.9937591552734375,0.6291961669921875
1772537178396441000,6.337441162109375,-1.3060760498046875,-0.92864990234375,0.605010986328125
1772537178406489000,6.347489013671875,-1.2060546875,-0.8464508056640625,0.530303955078125
1772537178416537000,6.357537109375,-1.09185791015625,-0.7379150390625,0.445404052734375
1772537178426586000,6.367586181640625,-0.993499755859375,-0.6107940673828125,0.3724365234375
1772537178436634000,6.377634033203125,-0.86016845703125,-0.4736175537109375,0.2941436767578125
1772537178446681900,6.387681884765625,-0.68963623046875,-0.3352813720703125,0.226226806640625
1772537178456731100,6.397731201171875,-0.5485687255859375,-0.2373504638671875,0.19024658203125
1772537178466779000,6.40777880859375,-0.4586029052734375,-0.16339111328125,0.1839752197265625
1772537178476827100,6.4178271484375,-0.4010009765625,-0.0723419189453125,0.1262664794921875
1772537178486875100,6.427875244140625,-0.31085205078125,0.0326690673828125,0.0567779541015625
1772537178496924200,6.437924072265625,-0.2159576416015625,0.1221923828125,0.0063323974609375
1772537178506972200,6.44797216796875,-0.1536865234375,0.211669921875,-0.0457611083984375
1772537178517020000,6.45802001953125,-0.10552978515625,0.2790985107421875,-0.0751495361328125
1772537178527069200,6.468069091796875,-0.0359039306640625,0.265869140625,-0.1017913818359375
1772537178537117000,6.478116943359375,0.0397796630859375,0.2059783935546875,-0.1114654541015625
1772537178547165200,6.488165283203125,0.094757080078125,0.15362548828125,-0.1033782958984375
1772537178557213200,6.498213134765625,0.1249847412109375,0.1160888671875,-0.096771240234375
1772537178567262200,6.50826220703125,0.148773193359375,0.0716094970703125,-0.081207275390625
1772537178577310200,6.518310302734375,0.1480712890625,0.0141754150390625,-0.0695037841796875
1772537178587358000,6.52835791015625,0.0988311767578125,-0.02252197265625,-0.051910400390625
1772537178597407000,6.538406982421875,0.0553741455078125,-0.068450927734375,-0.0497589111328125
1772537178607455000,6.548455078125,0.01849365234375,-0.1218109130859375,-0.063568115234375
1772537178617503200,6.558503173828125,-0.044586181640625,-0.17535400390625,-0.06304931640625
1772537178627551000,6.568551025390625,-0.12530517578125,-0.259124755859375,-0.044891357421875
1772537178637600300,6.578600341796875,-0.23870849609375,-0.392486572265625,0.0258636474609375
1772537178647648000,6.58864794921875,-0.3922271728515625,-0.5226898193359375,0.1031646728515625
1772537178657696000,6.598696044921875,-0.51922607421875,-0.612457275390625,0.1143035888671875
1772537178667745000,6.6087451171875,-0.6014556884765625,-0.6062774658203125,0.099273681640625
1772537178677793000,6.61879296875,-0.6848297119140625,-0.5377349853515625,0.07403564453125
1772537178687841300,6.62884130859375,-0.7815704345703125,-0.48944091796875,0.050262451171875
1772537178697889000,6.638888916015625,-0.9089508056640625,-0.47344970703125,0.0648193359375
1772537178707938000,6.64893798828125,-1.0565338134765625,-0.4920654296875,0.1102142333984375
1772537178717986000,6.658986083984375,-1.185211181640625,-0.501495361328125,0.1590118408203125
1772537178728034000,6.669033935546875,-1.2978363037109375,-0.4640350341796875,0.1676025390625
1772537178738083000,6.6790830078125,-1.3655548095703125,-0.4393768310546875,0.1457061767578125
1772537178748131000,6.689131103515625,-1.3975677490234375,-0.4575042724609375,0.16412353515625
1772537178758179000,6.699178955078125,-1.439300537109375,-0.47796630859375,0.2102203369140625
1772537178768227000,6.70922705078125,-1.48876953125,-0.5172576904296875,0.2624969482421875
1772537178778275800,6.71927587890625,-1.539031982421875,-0.591033935546875,0.3131866455078125
1772537178788324000,6.729323974609375,-1.573028564453125,-0.6566162109375,0.343048095703125
1772537178798372000,6.7393720703125,-1.604888916015625,-0.69085693359375,0.3680877685546875
1772537178808420000,6.749420166015625,-1.6459808349609375,-0.7171173095703125,0.3669891357421875
1772537178818469000,6.75946923828125,-1.69384765625,-0.7345428466796875,0.3212432861328125
1772537178828516900,6.769516845703125,-1.7302703857421875,-0.753448486328125,0.300140380859375
1772537178838565000,6.779565185546875,-1.7354278564453125,-0.793670654296875,0.3016357421875
1772537178848614000,6.78961376953125,-1.736541748046875,-0.8246917724609375,0.3061676025390625
1772537178858662100,6.799662109375,-1.723175048828125,-0.8495330810546875,0.309722900390625
1772537178868710100,6.809710205078125,-1.7204132080078125,-0.8734588623046875,0.313995361328125
1772537178878758100,6.819758056640625,-1.7125396728515625,-0.8867950439453125,0.33251953125
1772537178888807200,6.82980712890625,-1.6875457763671875,-0.8946533203125,0.3464202880859375
1772537178898855000,6.83985498046875,-1.6534881591796875,-0.8802032470703125,0.342529296875
1772537178908903200,6.849903076171875,-1.59918212890625,-0.7933807373046875,0.3302001953125
1772537178918952000,6.859951904296875,-1.5423583984375,-0.6688690185546875,0.2920684814453125
1772537178929000200,6.870000244140625,-1.46075439453125,-0.5260772705078125,0.234771728515625
1772537178939048000,6.8800478515625,-1.33819580078125,-0.3824920654296875,0.1788330078125
1772537178949096000,6.890095947265625,-1.1773529052734375,-0.2846221923828125,0.129669189453125
1772537178959145000,6.90014501953125,-1.1280670166015625,-0.249176025390625,0.1210784912109375
1772537178969193000,6.91019287109375,-0.938690185546875,-0.1816864013671875,0.1883697509765625
1772537178979241200,6.9202412109375,-0.7057037353515625,-0.103118896484375,0.145965576171875
1772537178989289000,6.9302890625,-0.5879058837890625,-0.030303955078125,0.0879364013671875
1772537178999338200,6.940338134765625,-0.492889404296875,0.022613525390625,0.08538818359375
1772537179009386000,6.950385986328125,-0.3919677734375,0.0376739501953125,0.0847320556640625
1772537179019434000,6.96043408203125,-0.2991790771484375,0.04864501953125,0.0610504150390625
1772537179029483000,6.97048291015625,-0.25177001953125,0.0894012451171875,0.01153564453125
1772537179039531000,6.980531005859375,-0.232086181640625,0.1422882080078125,-0.001495361328125
1772537179049579300,6.990579345703125,-0.1914215087890625,0.1587982177734375,-0.0031890869140625
1772537179059627000,7.000626953125,-0.1885528564453125,0.1287841796875,-0.01385498046875
1772537179069676300,7.01067626953125,-0.16534423828125,0.0658721923828125,0.0018310546875
1772537179079724000,7.02072412109375,-0.1059722900390625,-0.012237548828125,0.0175323486328125
1772537179089772000,7.03077197265625,-0.0760040283203125,-0.0723419189453125,0.0247650146484375
1772537179099821000,7.040821044921875,-0.075531005859375,-0.0901641845703125,0.0405426025390625
1772537179109868800,7.050868896484375,-0.094696044921875,-0.1005401611328125,0.053955078125
1772537179119916800,7.060916748046875,-0.11236572265625,-0.1290283203125,0.0492706298828125
1772537179129964800,7.07096484375,-0.1485443115234375,-0.1574554443359375,0.0594329833984375
1772537179140013800,7.081013916015625,-0.1951751708984375,-0.19921875,0.072845458984375
1772537179150061800,7.091061767578125,-0.2442169189453125,-0.2692413330078125,0.078704833984375
1772537179160109800,7.10110986328125,-0.3273773193359375,-0.3454742431640625,0.0794830322265625
1772537179170158800,7.111158935546875,-0.413299560546875,-0.39227294921875,0.0776519775390625
1772537179180206800,7.121206787109375,-0.5063934326171875,-0.4134368896484375,0.08489990234375
1772537179190254800,7.1312548828125,-0.584442138671875,-0.4498138427734375,0.0931549072265625
1772537179200302800,7.141302734375,-0.658447265625,-0.53192138671875,0.1125946044921875
1772537179210351600,7.1513515625,-0.782867431640625,-0.6127166748046875,0.1291046142578125
1772537179220399900,7.16139990234375,-0.9515838623046875,-0.593048095703125,0.12237548828125
1772537179230447900,7.17144775390625,-1.08294677734375,-0.4713897705078125,0.0767059326171875
1772537179240497000,7.181496826171875,-1.19073486328125,-0.342742919921875,0.0164947509765625
1772537179250545000,7.191544921875,-1.2911529541015625,-0.3037261962890625,0.02783203125
1772537179260593000,7.201593017578125,-1.366668701171875,-0.366455078125,0.1065826416015625
1772537179270641000,7.211640869140625,-1.3914337158203125,-0.4505615234375,0.2083282470703125
1772537179280689700,7.221689697265625,-1.3676910400390625,-0.4847869873046875,0.2896728515625
1772537179290738000,7.231738037109375,-1.356414794921875,-0.506744384765625,0.337493896484375
1772537179300785700,7.24178564453125,-1.419189453125,-0.5533905029296875,0.373138427734375
1772537179310834000,7.251833984375,-1.5357818603515625,-0.6219482421875,0.414886474609375
1772537179320882700,7.261882568359375,-1.7401123046875,-0.684906005859375,0.4744415283203125
1772537179330930700,7.2719306640625,-1.971893310546875,-0.6889495849609375,0.5277557373046875
1772537179340979000,7.28197900390625,-2.0679779052734375,-0.628997802734375,0.451934814453125
1772537179351027700,7.29202783203125,-2.0534210205078125,-0.5548248291015625,0.3174591064453125
1772537179361076000,7.302075927734375,-1.9796142578125,-0.48736572265625,0.255126953125
1772537179371123700,7.312123779296875,-1.90838623046875,-0.4603729248046875,0.2491607666015625
1772537179381172000,7.322171875,-1.86907958984375,-0.460601806640625,0.3140106201171875
1772537179391220700,7.332220703125,-1.856048583984375,-0.4725799560546875,0.4241180419921875
1772537179401268700,7.342268798828125,-1.814727783203125,-0.4816131591796875,0.4915771484375
1772537179411317000,7.35231689453125,-1.7647247314453125,-0.448944091796875,0.5139312744140625
1772537179421365800,7.36236572265625,-1.6921234130859375,-0.410308837890625,0.5106658935546875
1772537179431414000,7.3724140625,-1.576812744140625,-0.374176025390625,0.479034423828125
1772537179441461800,7.382461669921875,-1.44708251953125,-0.3337554931640625,0.4116363525390625
1772537179451509800,7.392509765625,-1.323150634765625,-0.3065185546875,0.3625640869140625
1772537179461558800,7.402558837890625,-1.1901092529296875,-0.2920989990234375,0.342315673828125
1772537179471606800,7.412606689453125,-1.0603485107421875,-0.25726318359375,0.29852294921875
1772537179481654800,7.42265478515625,-0.9637298583984375,-0.1727294921875,0.2415618896484375
1772537179491702800,7.432702880859375,-0.8502960205078125,-0.0889739990234375,0.19140625
1772537179501751800,7.442751708984375,-0.7306060791015625,-0.0054168701171875,0.14678955078125
1772537179511799800,7.4527998046875,-0.6152801513671875,0.0772247314453125,0.1214447021484375
1772537179521847800,7.462847900390625,-0.490753173828125,0.124481201171875,0.1031494140625
1772537179531896800,7.472896728515625,-0.3791351318359375,0.139068603515625,0.080841064453125
1772537179541944800,7.48294482421875,-0.28839111328125,0.1357269287109375,0.0714111328125
1772537179551992800,7.492992919921875,-0.199798583984375,0.117095947265625,0.06036376953125
1772537179562040800,7.503040771484375,-0.111175537109375,0.091278076171875,0.0450592041015625
1772537179572089900,7.51308984375,-0.029754638671875,0.0618438720703125,0.027496337890625
1772537179582137900,7.523137939453125,0.0662078857421875,0.0326080322265625,0.0245819091796875
1772537179592185900,7.533185791015625,0.105560302734375,0.0260772705078125,0.0308380126953125
1772537179602235000,7.54323486328125,0.1019134521484375,0.043365478515625,0.02337646484375
1772537179612283000,7.553282958984375,0.1114501953125,0.0627288818359375,0.0338592529296875
1772537179622331000,7.563330810546875,0.0988311767578125,0.06201171875,0.01361083984375
1772537179632379000,7.57337890625,0.0989532470703125,0.0522613525390625,-0.0338134765625
1772537179642428000,7.583427978515625,0.0919647216796875,0.0449981689453125,-0.0637359619140625
1772537179652476000,7.593475830078125,0.0431976318359375,0.0301055908203125,-0.085845947265625
1772537179662523600,7.603523681640625,-0.0345611572265625,-0.0048370361328125,-0.0572662353515625
1772537179672573000,7.613572998046875,-0.1198883056640625,-0.0801544189453125,-0.0177459716796875
1772537179682620700,7.62362060546875,-0.2025604248046875,-0.180023193359375,0.0271759033203125
1772537179692669000,7.6336689453125,-0.296630859375,-0.3035888671875,0.08062744140625
1772537179702717000,7.643717041015625,-0.426239013671875,-0.454345703125,0.16143798828125
1772537179712766000,7.653765869140625,-0.538665771484375,-0.5806121826171875,0.206695556640625
1772537179722814000,7.66381396484375,-0.6334381103515625,-0.579315185546875,0.170318603515625
1772537179732861700,7.67386181640625,-0.69244384765625,-0.4907073974609375,0.1323699951171875
1772537179742911000,7.683910888671875,-0.800018310546875,-0.453369140625,0.0889892578125
1772537179752958700,7.693958740234375,-0.9824981689453125,-0.4689178466796875,0.086944580078125
1772537179763007000,7.704007080078125,-1.1660614013671875,-0.49700927734375,0.0942230224609375
1772537179773054700,7.7140546875,-1.38421630859375,-0.477691650390625,0.08892822265625
1772537179783104000,7.72410400390625,-1.5635986328125,-0.4443817138671875,0.09844970703125
1772537179793151700,7.73415185546875,-1.6390533447265625,-0.5206451416015625,0.1451568603515625
1772537179803199700,7.74419970703125,-1.6551513671875,-0.671173095703125,0.2019195556640625
1772537179813248800,7.754248779296875,-1.68316650390625,-0.7755126953125,0.216461181640625
1772537179823296800,7.764296875,-1.7877960205078125,-0.8545379638671875,0.24737548828125
1772537179833345000,7.774344970703125,-1.92181396484375,-0.981964111328125,0.3531646728515625
1772537179843392800,7.784392822265625,-2.05267333984375,-1.0840301513671875,0.4633331298828125
1772537179853441800,7.79444189453125,-2.2100982666015625,-1.0680389404296875,0.5215301513671875
1772537179863489800,7.80448974609375,-2.27978515625,-0.99658203125,0.5235595703125
1772537179873537800,7.814537841796875,-2.2736663818359375,-0.90802001953125,0.4922943115234375
1772537179883586000,7.8245859375,-2.2206573486328125,-0.81121826171875,0.4755096435546875
1772537179893634800,7.834634765625,-2.12921142578125,-0.722137451171875,0.447021484375
1772537179903682800,7.844682861328125,-2.0398101806640625,-0.652008056640625,0.438751220703125
1772537179913730800,7.854730712890625,-1.973785400390625,-0.588348388671875,0.4597930908203125
1772537179923779800,7.86477978515625,-1.875244140625,-0.5459442138671875,0.4604034423828125
1772537179933827800,7.874827880859375,-1.7553253173828125,-0.50604248046875,0.43438720703125
1772537179943875800,7.884875732421875,-1.6006622314453125,-0.443389892578125,0.38543701171875
1772537179953923800,7.894923828125,-1.40802001953125,-0.3698272705078125,0.3165740966796875
1772537179963972900,7.904972900390625,-1.2014312744140625,-0.2959136962890625,0.262725830078125
1772537179974020600,7.9150205078125,-1.0146026611328125,-0.2313385009765625,0.226287841796875
1772537179984068900,7.92506884765625,-0.8642578125,-0.1851806640625,0.20721435546875
1772537179994116900,7.935116943359375,-0.764617919921875,-0.154510498046875,0.18695068359375
1772537180004166000,7.945165771484375,-0.675567626953125,-0.119293212890625,0.1472015380859375
1772537180014214000,7.9552138671875,-0.544830322265625,-0.0673065185546875,0.12017822265625
1772537180024261600,7.96526171875,-0.4120025634765625,-0.006072998046875,0.0890655517578125
1772537180034311000,7.975310791015625,-0.27496337890625,0.040802001953125,0.063995361328125
1772537180044358700,7.985358642578125,-0.1634979248046875,0.0655517578125,0.042755126953125
1772537180054407000,7.995406982421875,-0.07794189453125,0.07666015625,0.026580810546875
1772537180064455000,8.005454833984375,-0.0119171142578125,0.070892333984375,0.0207977294921875
1772537180074504000,8.01550390625,0.03765869140625,0.0558013916015625,0.0171356201171875
1772537180084552000,8.025552001953125,0.10064697265625,0.0335845947265625,0.0198516845703125
1772537180094599700,8.035599609375,0.12957763671875,0.0155487060546875,0.0351409912109375
1772537180104648700,8.045648681640625,0.11541748046875,0.0730438232421875,0.0134429931640625
1772537180114697500,8.055697509765626,0.1598968505859375,-0.01611328125,0.03253173828125
1772537180124745700,8.065745849609375,0.1732025146484375,-0.0289764404296875,0.0241546630859375
1772537180134793500,8.07579345703125,0.1428680419921875,0.0934295654296875,0.0338287353515625
1772537180144842800,8.0858427734375,0.18511962890625,0.058685302734375,0.002471923828125
1772537180154890500,8.095890380859375,0.125640869140625,0.0009765625,0.0017242431640625
1772537180164938800,8.105938720703126,0.0248260498046875,-0.0310516357421875,0.011322021484375
1772537180174987500,8.115987548828125,-0.0465545654296875,-0.080352783203125,0.0141754150390625
1772537180185035500,8.126035400390625,-0.1576995849609375,-0.152191162109375,0.022216796875
1772537180195083500,8.13608349609375,-0.28057861328125,-0.2317657470703125,0.03778076171875
1772537180205131500,8.146131591796875,-0.378387451171875,-0.3304290771484375,0.068450927734375
1772537180215180500,8.1561806640625,-0.52490234375,-0.4275970458984375,0.1155853271484375
1772537180225228500,8.166228515625,-0.651092529296875,-0.489501953125,0.155853271484375
1772537180235276500,8.176276611328126,-0.7238311767578125,-0.5215911865234375,0.1279144287109375
1772537180245325600,8.18632568359375,-0.694671630859375,-0.5635528564453125,0.1568756103515625
1772537180255373600,8.19637353515625,-0.71893310546875,-0.4901580810546875,0.027130126953125
1772537180265421600,8.206421630859374,-0.915252685546875,-0.539031982421875,0.13720703125
1772537180275469600,8.216469482421875,-1.123291015625,-0.66522216796875,0.2139892578125
1772537180285518600,8.2265185546875,-1.317718505859375,-0.7028045654296875,0.22222900390625
1772537180295566600,8.236566650390625,-1.4725341796875,-0.6219482421875,0.1775665283203125
1772537180305614600,8.246614501953125,-1.539459228515625,-0.5343780517578125,0.113555908203125
1772537180315662600,8.25666259765625,-1.5748748779296875,-0.549530029296875,0.090576171875
1772537180325711600,8.266711669921875,-1.64093017578125,-0.6219482421875,0.1160736083984375
1772537180335759600,8.276759521484376,-1.68902587890625,-0.668609619140625,0.176239013671875
1772537180345807600,8.2868076171875,-1.7512054443359375,-0.702545166015625,0.2174530029296875
1772537180355856600,8.296856689453126,-1.859710693359375,-0.7651214599609375,0.2937164306640625
1772537180365904600,8.306904541015625,-1.938995361328125,-0.8017120361328125,0.4306793212890625
1772537180375952400,8.316952392578125,-1.9281768798828125,-0.9026336669921875,0.5018463134765625
1772537180386000600,8.327000732421874,-1.88018798828125,-0.876495361328125,0.4931182861328125
1772537180396049400,8.33704931640625,-1.8152923583984375,-0.76373291015625,0.45733642578125
1772537180406097700,8.34709765625,-1.7799835205078125,-0.6946868896484375,0.44775390625
1772537180416145700,8.357145751953125,-1.7317657470703125,-0.654296875,0.45257568359375
1772537180426194700,8.367194580078126,-1.6614532470703125,-0.608856201171875,0.4409942626953125
1772537180436242700,8.37724267578125,-1.5859832763671875,-0.57525634765625,0.44622802734375
1772537180446290400,8.38729052734375,-1.51025390625,-0.584228515625,0.4835968017578125
1772537180456338700,8.397338623046876,-1.44842529296875,-0.59368896484375,0.5183868408203125
1772537180466387500,8.407387451171875,-1.3700103759765625,-0.5883331298828125,0.530120849609375
1772537180476435700,8.417435791015626,-1.26885986328125,-0.580352783203125,0.4967041015625
1772537180486483500,8.4274833984375,-1.17987060546875,-0.545135498046875,0.4115142822265625
1772537180496531500,8.437531494140625,-1.096710205078125,-0.4871978759765625,0.3156280517578125
1772537180506580500,8.44758056640625,-1.02105712890625,-0.4246826171875,0.243804931640625
1772537180516628500,8.45762841796875,-0.933563232421875,-0.3660125732421875,0.19293212890625
1772537180526676700,8.4676767578125,-0.8640594482421875,-0.304595947265625,0.1619873046875
1772537180536725500,8.4777255859375,-0.83062744140625,-0.2299346923828125,0.1508636474609375
1772537180546773800,8.487773681640626,-0.772064208984375,-0.1570587158203125,0.148193359375
1772537180556821500,8.497821533203124,-0.697540283203125,-0.0983734130859375,0.1486358642578125
1772537180566869500,8.507869384765625,-0.627288818359375,-0.0443572998046875,0.134063720703125
1772537180576918500,8.51791845703125,-0.5505828857421875,-0.0032806396484375,0.11444091796875
1772537180586966500,8.527966552734375,-0.5037689208984375,0.0234222412109375,0.1058807373046875
1772537180597014800,8.538014892578126,-0.4520721435546875,0.042877197265625,0.0844573974609375
1772537180607063600,8.5480634765625,-0.3858184814453125,0.0542144775390625,0.03704833984375
1772537180617111800,8.55811181640625,-0.321929931640625,0.0554962158203125,-0.0228729248046875
1772537180627159600,8.56815966796875,-0.275543212890625,0.0498809814453125,-0.0627899169921875
1772537180637207600,8.57820751953125,-0.235595703125,0.0376434326171875,-0.0679779052734375
1772537180647256600,8.588256591796876,-0.18450927734375,0.01458740234375,-0.055755615234375
1772537180657304600,8.5983046875,-0.1269683837890625,-0.0142364501953125,-0.0374603271484375
1772537180667352600,8.6083525390625,-0.092315673828125,-0.0345001220703125,-0.0072479248046875
1772537180677401600,8.618401611328125,-0.081146240234375,-0.029510498046875,0.0275115966796875
1772537180687449300,8.628449462890625,-0.050140380859375,-0.0149688720703125,0.0411376953125
1772537180697497600,8.63849755859375,-0.042816162109375,-0.0104522705078125,0.0584259033203125
1772537180707545600,8.648545654296875,-0.0756988525390625,-0.02972412109375,0.0855712890625
1772537180717594600,8.6585947265625,-0.10174560546875,-0.070709228515625,0.108489990234375
1772537180727642600,8.668642578125,-0.1257476806640625,-0.1163177490234375,0.106719970703125
1772537180737690600,8.678690673828125,-0.1654052734375,-0.1598663330078125,0.0965118408203125
1772537180747738600,8.688738525390624,-0.2332763671875,-0.203887939453125,0.0875396728515625
1772537180757787400,8.698787353515625,-0.3236846923828125,-0.2394866943359375,0.07061767578125
1772537180767835600,8.708835693359376,-0.471221923828125,-0.2704620361328125,0.0683135986328125
1772537180777883600,8.718883544921875,-0.6372528076171875,-0.3215179443359375,0.0881500244140625
1772537180787932700,8.7289326171875,-0.784271240234375,-0.4526824951171875,0.156707763671875
1772537180797980700,8.738980712890625,-0.9604949951171875,-0.6558837890625,0.3022308349609375
1772537180808028400,8.7490283203125,-1.104461669921875,-0.7089691162109375,0.4029388427734375
1772537180818076700,8.75907666015625,-1.1661224365234375,-0.5999603271484375,0.33709716796875
1772537180828125400,8.76912548828125,-1.2585601806640625,-0.5352630615234375,0.1905059814453125
1772537180838173700,8.779173583984376,-1.5746002197265625,-0.5061187744140625,0.0608978271484375
1772537180848221400,8.789221435546875,-1.6378173828125,-0.547698974609375,0.076324462890625
1772537180858270700,8.799270751953125,-1.4221343994140625,-0.7341461181640625,0.2388916015625
1772537180868318500,8.809318359375,-1.5669708251953125,-0.8126220703125,0.2519073486328125
1772537180878366500,8.819366455078125,-1.5974884033203125,-0.7925567626953125,0.2822113037109375
1772537180888414700,8.829414794921876,-1.6580963134765625,-0.7867279052734375,0.35540771484375
1772537180898463500,8.83946337890625,-1.751129150390625,-0.774688720703125,0.38665771484375
1772537180908511700,8.84951171875,-1.8133697509765625,-0.7037200927734375,0.35052490234375
1772537180918559500,8.8595595703125,-1.8734893798828125,-0.6024627685546875,0.334075927734375
1772537180928608800,8.86960888671875,-1.88897705078125,-0.549835205078125,0.3140716552734375
1772537180938656500,8.879656494140624,-1.8925628662109375,-0.55078125,0.28656005859375
1772537180948704500,8.88970458984375,-1.8548126220703125,-0.5505828857421875,0.2963714599609375
1772537180958752500,8.89975244140625,-1.79547119140625,-0.55914306640625,0.334747314453125
1772537180968801500,8.909801513671875,-1.73565673828125,-0.5719757080078125,0.3719940185546875
1772537180978849500,8.919849609375,-1.678741455078125,-0.5571441650390625,0.397857666015625
1772537180988897500,8.9298974609375,-1.612335205078125,-0.5458221435546875,0.4069366455078125
1772537180998945500,8.939945556640625,-1.547515869140625,-0.531951904296875,0.4054412841796875
1772537181008994600,8.94999462890625,-1.4679107666015625,-0.495574951171875,0.391448974609375
1772537181019042600,8.96004248046875,-1.3590850830078125,-0.4489898681640625,0.3677520751953125
1772537181029090600,8.970090576171875,-1.2452392578125,-0.4068603515625,0.338592529296875
1772537181039139600,8.9801396484375,-1.1317596435546875,-0.37432861328125,0.2930755615234375
1772537181049187600,8.9901875,-1.0484619140625,-0.318389892578125,0.244140625
1772537181059235600,9.000235595703124,-0.970611572265625,-0.2554931640625,0.2062225341796875
1772537181069283600,9.01028369140625,-0.899139404296875,-0.210723876953125,0.1656036376953125
1772537181079332600,9.02033251953125,-0.826690673828125,-0.1680145263671875,0.132049560546875
1772537181089380600,9.030380615234375,-0.740142822265625,-0.12628173828125,0.1167449951171875
1772537181099428600,9.0404287109375,-0.6561737060546875,-0.093109130859375,0.1077117919921875
1772537181109477600,9.0504775390625,-0.646484375,-0.060638427734375,0.085968017578125
1772537181119525600,9.060525634765625,-0.6376190185546875,-0.038604736328125,0.0716552734375
1772537181129573600,9.07057373046875,-0.5716094970703125,-0.0157318115234375,0.043609619140625
1772537181139621600,9.08062158203125,-0.4610748291015625,0.0099639892578125,0.0281829833984375
1772537181149670700,9.090670654296876,-0.412139892578125,-0.00640869140625,0.0050506591796875
1772537181159718400,9.100718505859374,-0.3763885498046875,-0.0132293701171875,0.006561279296875
1772537181169766700,9.1107666015625,-0.3339080810546875,-0.0172119140625,0.000701904296875
1772537181179814700,9.120814697265626,-0.2882843017578125,-0.04656982421875,-0.0067901611328125
1772537181189863700,9.13086376953125,-0.2602386474609375,-0.07220458984375,0.0044708251953125
1772537181199911700,9.14091162109375,-0.215301513671875,-0.068603515625,0.0083465576171875
