time,seconds_elapsed,z,y,x
1772537172142638000,0.08363818359375,0.17867335677146912,0.28990301489830017,0.437355637550354
1772537172152686000,0.09368603515625,0.09607274830341339,-0.04731683060526848,0.5924032926559448
1772537172162735000,0.103735107421875,0.01475957129150629,-0.3362331688404083,0.7147471904754639
1772537172172783000,0.113783203125,-0.03821389749646187,-0.554481565952301,0.8067935109138489
1772537172182831400,0.123831298828125,-0.06960651278495789,-0.6511549949645996,0.8339281678199768
1772537172192880000,0.133880126953125,-0.08923693746328354,-0.6657978296279907,0.7406402826309204
1772537172202928400,0.143928466796875,-0.09661222994327545,-0.6701021790504456,0.5044336318969727
1772537172212976000,0.15397607421875,-0.10476043820381165,-0.6369229555130005,0.18734808266162872
1772537172223024000,0.164024169921875,-0.11514876782894135,-0.5276015400886536,-0.11202351748943329
1772537172233073200,0.1740732421875,-0.12461364269256592,-0.3061054050922394,-0.29671454429626465
1772537172243121200,0.18412109375,-0.10962368547916412,-0.04829820618033409,-0.3326917886734009
1772537172253169400,0.19416943359375,-0.061366938054561615,0.12717880308628082,-0.2943771481513977
1772537172263218200,0.20421826171875,-0.019965611398220062,0.14610286056995392,-0.2784331440925598
1772537172273266400,0.214266357421875,0.0004760129377245903,0.06740671396255493,-0.34551897644996643
1772537172283314200,0.224314208984375,0.05716748163104057,-0.039818793535232544,-0.4652984142303467
1772537172293362200,0.234362060546875,0.15292197465896606,-0.10422228276729584,-0.5912033319473267
1772537172303411200,0.2444111328125,0.27958589792251587,-0.11183258146047592,-0.7062202095985413
1772537172313459200,0.254459228515625,0.417503297328949,-0.024251604452729225,-0.7904482483863831
1772537172323507200,0.264507080078125,0.5389641523361206,0.14758500456809998,-0.8008536696434021
1772537172333556200,0.27455615234375,0.628814697265625,0.32018131017684937,-0.6806929111480713
1772537172343604000,0.28460400390625,0.654684841632843,0.3715735077857971,-0.4543837606906891
1772537172353652200,0.29465234375,0.609626054763794,0.3032788634300232,-0.19200831651687622
1772537172363700200,0.3047001953125,0.5589550137519836,0.2367539256811142,0.04576382786035538
1772537172373749200,0.314749267578125,0.5580204725265503,0.19424855709075928,0.15596304833889008
1772537172383797200,0.32479736328125,0.5825093984603882,0.016309229657053947,0.11943896114826202
1772537172393845000,0.334844970703125,0.5613420605659485,-0.2745734751224518,0.004291867837309837
1772537172403894300,0.344894287109375,0.4922298192977905,-0.48018547892570496,-0.12251465767621994
1772537172413942000,0.35494189453125,0.3807240426540375,-0.5293402671813965,-0.2392418086528778
1772537172423990300,0.364990234375,0.25554943084716797,-0.2825998067855835,-0.2662354111671448
1772537172434038300,0.375038330078125,0.18318122625350952,0.013049938715994358,-0.2525065541267395
1772537172444087300,0.38508740234375,0.14489446580410004,0.11756899952888489,-0.2606469690799713
1772537172454135300,0.39513525390625,0.11233999580144882,0.14705045521259308,-0.2264959216117859
1772537172464183000,0.40518310546875,0.08800826221704483,0.09939876198768616,-0.13189184665679932
1772537172474232300,0.415232421875,0.05096236616373062,0.0737953931093216,0.005405563861131668
1772537172484280000,0.425280029296875,0.013814587146043777,0.1348271518945694,0.17392316460609436
1772537172494328300,0.435328369140625,-0.03401178866624832,0.23928885161876678,0.3469122350215912
1772537172504377000,0.445377197265625,-0.05559154972434044,0.4410116672515869,0.5092272162437439
1772537172514425300,0.45542529296875,-0.0015200618654489517,0.6087300777435303,0.6400997042655945
1772537172524473000,0.46547314453125,0.014192512258887291,0.7269195914268494,0.7813559770584106
1772537172534521000,0.47552099609375,-0.02010500803589821,0.7569632530212402,0.9207831025123596
1772537172544570000,0.485570068359375,-0.034275587648153305,0.7533595561981201,1.0281168222427368
1772537172554618000,0.4956181640625,0.016711696982383728,0.762177050113678,1.0901027917861938
1772537172564666400,0.505666259765625,0.10566294193267822,0.7400525808334351,1.1257606744766235
1772537172574715100,0.515715087890625,0.1545921415090561,0.616763174533844,1.0974302291870117
1772537172584763400,0.525763427734375,0.14251962304115295,0.42101195454597473,0.965432345867157
1772537172594811100,0.53581103515625,0.0969739779829979,0.12953881919384003,0.7445921301841736
1772537172604859100,0.545859130859375,0.050148118287324905,-0.18581543862819672,0.4798843264579773
1772537172614908200,0.555908203125,-0.0218600295484066,-0.41524678468704224,0.2659885287284851
1772537172624956200,0.5659560546875,-0.08258888870477676,-0.493334025144577,0.11129318922758102
1772537172635004200,0.576004150390625,-0.09008782356977463,-0.5015376210212708,-0.035507701337337494
1772537172645053200,0.58605322265625,-0.03933614864945412,-0.4739237129688263,-0.19634246826171875
1772537172655101200,0.59610107421875,0.121957927942276,-0.4219595789909363,-0.3718184232711792
1772537172665149200,0.606149169921875,0.3528144359588623,-0.4451690912246704,-0.5856351852416992
1772537172675197200,0.616197265625,0.5545179843902588,-0.4296862781047821,-0.8111578226089478
1772537172685246200,0.62624609375,0.6268243789672852,-0.31110718846321106,-0.9671759009361267
1772537172695294200,0.636294189453125,0.5546109080314636,-0.16771462559700012,-1.013035535812378
1772537172705342200,0.64634228515625,0.35006263852119446,-0.061164990067481995,-0.9513974189758301
1772537172715391200,0.65639111328125,0.04443534463644028,-0.04986865818500519,-0.8067755103111267
1772537172725439200,0.666439208984375,-0.23772600293159485,-0.18578268587589264,-0.6531333327293396
1772537172735487200,0.6764873046875,-0.45937585830688477,-0.44091567397117615,-0.5727834105491638
1772537172745535200,0.68653515625,-0.6679620742797852,-0.7471100687980652,-0.5520259141921997
1772537172755584300,0.696584228515625,-0.8642849922180176,-1.0051318407058716,-0.5918776988983154
1772537172765632300,0.70663232421875,-0.9903388619422913,-1.1248503923416138,-0.6555658578872681
1772537172775680300,0.71668017578125,-0.9866394996643066,-0.9655826687812805,-0.6098065972328186
1772537172785729300,0.726729248046875,-0.8609930872917175,-0.5100762844085693,-0.41087040305137634
1772537172795777000,0.736777099609375,-0.6389858722686768,0.025105902925133705,-0.1884879320859909
1772537172805825300,0.7468251953125,-0.36757075786590576,0.39590442180633545,-0.07412879168987274
1772537172815873000,0.756873046875,-0.14588655531406403,0.4183242619037628,-0.11162077635526657
1772537172825922300,0.76692236328125,-0.0294305719435215,0.1587957739830017,-0.2665073275566101
1772537172835970000,0.776969970703125,-0.030484918504953384,-0.16524700820446014,-0.4337008595466614
1772537172846018300,0.787018310546875,-0.12615646421909332,-0.4009742736816406,-0.5897939801216125
1772537172856067000,0.797067138671875,-0.27130433917045593,-0.5403249859809875,-0.7481899857521057
1772537172866115000,0.807114990234375,-0.3987284302711487,-0.6095237135887146,-0.8597645163536072
1772537172876163300,0.817163330078125,-0.44733190536499023,-0.5483424067497253,-0.8109429478645325
1772537172886211000,0.827211181640625,-0.3757479786872864,-0.4072421193122864,-0.5568658709526062
1772537172896260400,0.83726025390625,-0.26557275652885437,-0.30695438385009766,-0.18732695281505585
1772537172906308000,0.84730810546875,-0.21065837144851685,-0.24810577929019928,0.20147360861301422
1772537172916356000,0.857356201171875,-0.2026078999042511,-0.2779741883277893,0.5687472224235535
1772537172926405000,0.867405029296875,-0.2127896547317505,-0.41000068187713623,0.9313693642616272
1772537172936453000,0.877453125,-0.23724891245365143,-0.5192558169364929,1.2472310066223145
1772537172946501400,0.88750146484375,-0.24121788144111633,-0.548922061920166,1.4339269399642944
1772537172956550100,0.897550048828125,-0.16393959522247314,-0.47813576459884644,1.4502636194229126
1772537172966598400,0.907598388671875,-0.008392691612243652,-0.26831886172294617,1.3301138877868652
1772537172976646100,0.917646240234375,0.19131723046302795,0.07180330902338028,1.1438363790512085
1772537172986694100,0.927694091796875,0.39174237847328186,0.43674135208129883,0.9326857924461365
1772537172996743200,0.9377431640625,0.5634028315544128,0.7429463267326355,0.7577430009841919
1772537173006791200,0.947791259765625,0.6573253273963928,0.9580091238021851,0.6646462678909302
1772537173016839200,0.957839111328125,0.6686065196990967,0.9965312480926514,0.664435088634491
1772537173026888200,0.96788818359375,0.6290836334228516,0.8423802852630615,0.7831029295921326
1772537173036936200,0.977936279296875,0.52279132604599,0.5315268039703369,0.9892824292182922
1772537173046984200,0.987984130859375,0.3644120693206787,0.1770102083683014,1.220136284828186
1772537173057032200,0.9980322265625,0.18256691098213196,-0.14650820195674896,1.3835785388946533
1772537173067081200,1.008081298828125,0.020702773705124855,-0.3662068545818329,1.393864631652832
1772537173077129200,1.018129150390625,-0.07261253148317337,-0.4667699635028839,1.2493418455123901
1772537173087177200,1.02817724609375,-0.08177027106285095,-0.4524588882923126,0.9626835584640503
1772537173097226200,1.038226318359375,-0.018413130193948746,-0.3407328724861145,0.5552467703819275
1772537173107270000,1.048269775390625,0.07866021245718002,-0.14337073266506195,0.04119643196463585
1772537173117318000,1.05831787109375,0.14305944740772247,0.06449830532073975,-0.5149695873260498
1772537173127366100,1.0683662109375,0.16512824594974518,0.1777506321668625,-1.0303651094436646
1772537173137415000,1.078414794921875,0.19429758191108704,0.20714634656906128,-1.4083867073059082
1772537173147463200,1.088463134765625,0.255691796541214,0.14032895863056183,-1.5876981019973755
1772537173157511000,1.098510986328125,0.3241872489452362,-0.009302343241870403,-1.5875542163848877
1772537173167560200,1.108560302734375,0.3276515305042267,-0.22719646990299225,-1.4776594638824463
1772537173177608000,1.11860791015625,0.24565443396568298,-0.5312231779098511,-1.366637945175171
1772537173187656000,1.128656005859375,0.09384623169898987,-0.8984695076942444,-1.2841577529907227
1772537173197704200,1.1387041015625,-0.13773691654205322,-1.2364912033081055,-1.229034662246704
1772537173207753000,1.1487529296875,-0.4294399321079254,-1.457564115524292,-1.2527289390563965
1772537173217801200,1.15880126953125,-0.7386630177497864,-1.4718937873840332,-1.4313039779663086
1772537173227849000,1.168848876953125,-0.9823132753372192,-1.1596049070358276,-1.6686471700668335
1772537173237898000,1.17889794921875,-1.0800728797912598,-0.5766961574554443,-1.6895532608032227
1772537173247946000,1.188946044921875,-0.9969723224639893,-0.06820938736200333,-1.3782098293304443
1772537173257994000,1.198993896484375,-0.7435230016708374,0.0444074347615242,-0.8517765402793884
1772537173268042000,1.2090419921875,-0.44193217158317566,-0.3012165427207947,-0.33461859822273254
1772537173278091000,1.219091064453125,-0.24369601905345917,-0.8501225113868713,-0.036737632006406784
1772537173288139000,1.229138916015625,-0.20187467336654663,-1.333389163017273,0.06962776184082031
1772537173298187000,1.23918701171875,-0.2572050392627716,-1.6470041275024414,0.11344395577907562
1772537173308235800,1.24923583984375,-0.3172140419483185,-1.8112602233886719,0.21418586373329163
1772537173318284000,1.259283935546875,-0.3146781623363495,-1.8193962574005127,0.4015650749206543
1772537173328332000,1.26933203125,-0.2345600724220276,-1.5640597343444824,0.6562536358833313
1772537173338381000,1.279381103515625,-0.14652901887893677,-1.033667802810669,0.9303397536277771
1772537173348429000,1.289428955078125,-0.09731736034154892,-0.4586578607559204,1.1588020324707031
1772537173358476800,1.299476806640625,-0.01835596188902855,-0.05361371859908104,1.2464077472686768
1772537173368525000,1.309525146484375,0.12055924534797668,0.24784405529499054,1.1379573345184326
1772537173378573800,1.31957373046875,0.255106657743454,0.5123987793922424,0.9105415940284729
1772537173388622000,1.3296220703125,0.3376666307449341,0.7248983979225159,0.6583271026611328
1772537173398670000,1.339670166015625,0.33458322286605835,0.8756599426269531,0.44277989864349365
1772537173408719000,1.349718994140625,0.2379521280527115,0.9510926604270935,0.2904234528541565
1772537173418766800,1.359766845703125,0.09699393808841705,0.9594547152519226,0.2480783760547638
1772537173428814800,1.36981494140625,-0.02370503917336464,0.9580020904541016,0.33355918526649475
1772537173438863000,1.379863037109375,-0.10649260133504868,0.9338834285736084,0.5402036905288696
1772537173448912000,1.389911865234375,-0.14308366179466248,0.8800275921821594,0.8186177611351013
1772537173458960100,1.399960205078125,-0.12372327595949173,0.8326675295829773,1.1191596984863281
1772537173469008000,1.4100078125,-0.06261207908391953,0.762689471244812,1.3861472606658936
1772537173479057200,1.42005712890625,-0.010964865796267986,0.638662576675415,1.5480780601501465
1772537173489105000,1.43010498046875,0.031189892441034317,0.46898168325424194,1.5508548021316528
1772537173499153000,1.44015283203125,0.04600052908062935,0.3759327232837677,1.418678879737854
1772537173509201200,1.450201171875,0.039264239370822906,0.3328963816165924,1.1884629726409912
1772537173519250000,1.46025,-0.005192975513637066,0.2760413587093353,0.8957554697990417
1772537173529298200,1.470298095703125,-0.052947208285331726,0.24518835544586182,0.5665070414543152
1772537173539346000,1.480345947265625,-0.09662172198295593,0.30077171325683594,0.18007971346378326
1772537173549395200,1.490395263671875,-0.13067945837974548,0.4721059799194336,-0.2326609492301941
1772537173559443000,1.50044287109375,-0.16894908249378204,0.706608235836029,-0.6412138342857361
1772537173569491000,1.510490966796875,-0.18622234463691711,0.848738431930542,-0.983273446559906
1772537173579540000,1.5205400390625,-0.11773675680160522,0.8245702981948853,-1.1866942644119263
1772537173589588000,1.530587890625,0.04555597901344299,0.6364724040031433,-1.1469483375549316
1772537173599636000,1.540635986328125,0.23045578598976135,0.37305060029029846,-0.9200922250747681
1772537173609684000,1.55068408203125,0.39880311489105225,0.1881278157234192,-0.6240430474281311
1772537173619733000,1.56073291015625,0.5327433347702026,0.10468006134033203,-0.3780252933502197
1772537173629781000,1.570781005859375,0.6254875659942627,0.07990743219852448,-0.23036670684814453
1772537173639829000,1.5808291015625,0.6492632031440735,0.07763095945119858,-0.2074161171913147
1772537173649877000,1.590876953125,0.5594561696052551,0.07056916505098343,-0.31347790360450745
1772537173659926000,1.600926025390625,0.3615105450153351,0.0767945647239685,-0.5430887341499329
1772537173669974000,1.61097412109375,0.10317698121070862,0.13565899431705475,-0.8555690050125122
1772537173680022000,1.62102197265625,-0.1115662157535553,0.2701534032821655,-1.1796443462371826
1772537173690071000,1.631071044921875,-0.2342688888311386,0.3639813959598541,-1.4425674676895142
1772537173700119000,1.641119140625,-0.29151859879493713,0.41640251874923706,-1.5473817586898804
1772537173710167000,1.6511669921875,-0.3167603611946106,0.3757227659225464,-1.4156005382537842
1772537173720216000,1.661216064453125,-0.33365437388420105,0.16324086487293243,-1.0420278310775757
1772537173730264000,1.67126416015625,-0.3089672923088074,-0.15492092072963715,-0.5125882625579834
1772537173740312000,1.68131201171875,-0.2609526216983795,-0.5337314009666443,-0.034285351634025574
1772537173750360000,1.691360107421875,-0.22107909619808197,-0.8897461891174316,0.23869630694389343
1772537173760408800,1.701408935546875,-0.18298737704753876,-1.0766572952270508,0.2724020779132843
1772537173770457000,1.71145703125,-0.1391349583864212,-1.0395578145980835,0.08828138560056686
1772537173780504800,1.7215048828125,-0.10393302887678146,-0.7629184126853943,-0.23759205639362335
1772537173790554000,1.73155419921875,-0.05982641875743866,-0.26563745737075806,-0.571908175945282
1772537173800601900,1.741601806640625,-0.004017744213342667,0.29923203587532043,-0.7999234795570374
1772537173810649900,1.75164990234375,0.05637004226446152,0.7890093922615051,-0.8086534738540649
1772537173820698000,1.761697998046875,0.12814036011695862,1.1056097745895386,-0.5363963842391968
1772537173830747000,1.771746826171875,0.17741307616233826,1.1283409595489502,-0.06704843789339066
1772537173840795100,1.781795166015625,0.18189597129821777,0.8993104100227356,0.4597703814506531
1772537173850843000,1.7918427734375,0.12619508802890778,0.5099002718925476,0.8889861702919006
1772537173860892200,1.80189208984375,-0.0037067150697112083,0.07727696746587753,1.154369592666626
1772537173870940000,1.81193994140625,-0.168460413813591,-0.2558882236480713,1.2137571573257446
1772537173880988000,1.82198779296875,-0.33046531677246094,-0.3905360698699951,1.0752218961715698
1772537173891036200,1.8320361328125,-0.4571836292743683,-0.3028322458267212,0.8401632308959961
1772537173901085000,1.8420849609375,-0.5105012059211731,-0.04558100178837776,0.6094434857368469
1772537173911133000,1.8521328125,-0.46660497784614563,0.256355881690979,0.44379740953445435
1772537173921181000,1.862180908203125,-0.32821139693260193,0.5051227807998657,0.36538779735565186
1772537173931230000,1.87222998046875,-0.11638931930065155,0.6421831250190735,0.3401798605918884
1772537173941278000,1.88227783203125,0.10809092223644257,0.6567402482032776,0.3267703354358673
1772537173951326000,1.892325927734375,0.28810280561447144,0.5740536451339722,0.28942376375198364
1772537173961374000,1.9023740234375,0.40145573019981384,0.45637890696525574,0.24134892225265503
1772537173971423000,1.912423095703125,0.4532810151576996,0.37640732526779175,0.23494131863117218
1772537173981471000,1.922470947265625,0.43397951126098633,0.3813711702823639,0.32971787452697754
1772537173991519000,1.93251904296875,0.3583013117313385,0.4340890645980835,0.51975417137146
1772537174001568000,1.942568115234375,0.26579055190086365,0.46709761023521423,0.7583036422729492
1772537174011616000,1.952615966796875,0.1990237981081009,0.4630747139453888,1.0072734355926514
1772537174021664000,1.9626640625,0.1731029897928238,0.4695262312889099,1.2094262838363647
1772537174031713000,1.972713134765625,0.1664636880159378,0.5004600882530212,1.3095755577087402
1772537174041761000,1.982760986328125,0.15640732645988464,0.5152499675750732,1.2577592134475708
1772537174051809000,1.99280908203125,0.13845384120941162,0.47612619400024414,1.0676242113113403
1772537174061857000,2.00285693359375,0.1004374772310257,0.32948508858680725,0.7622477412223816
1772537174071906000,2.012906005859375,0.08539851009845734,0.0861007571220398,0.3791923224925995
1772537174081954000,2.0229541015625,0.11805233359336853,-0.1199679896235466,0.008439017459750175
1772537174092001800,2.033001708984375,0.1789664328098297,-0.27623191475868225,-0.33358868956565857
1772537174102051000,2.043051025390625,0.2813678979873657,-0.3567512631416321,-0.6685981154441833
1772537174112100600,2.0531005859375,0.4227544069290161,-0.22540347278118134,-0.9554715156555176
1772537174122148600,2.063148681640625,0.4910104274749756,-0.011403558775782585,-1.1779676675796509
1772537174132197600,2.07319775390625,0.4542040526866913,0.09850899130105972,-1.324878215789795
1772537174142245600,2.08324560546875,0.3213360011577606,-0.0634189322590828,-1.4016733169555664
1772537174152293600,2.093293701171875,0.10018490254878998,-0.4010579288005829,-1.4135122299194336
1772537174162341600,2.103341552734375,-0.21972492337226868,-0.7829203605651855,-1.4249905347824097
1772537174172390400,2.113390380859375,-0.6218096017837524,-1.11221444606781,-1.4256170988082886
1772537174182438700,2.123438720703125,-0.9809293746948242,-1.2588540315628052,-1.2956846952438354
1772537174192486400,2.133486328125,-1.1747955083847046,-1.2059005498886108,-0.9252768754959106
1772537174202535700,2.14353564453125,-1.160947561264038,-0.9151808023452759,-0.29584622383117676
1772537174212583400,2.15358349609375,-0.9514936804771423,-0.6110785603523254,0.43504267930984497
1772537174222631700,2.163631591796875,-0.65720134973526,-0.5757080316543579,1.0120887756347656
1772537174232679700,2.1736796875,-0.3721977770328522,-0.750741183757782,1.2858272790908813
1772537174242728400,2.183728515625,-0.1769113689661026,-0.9830255508422852,1.164933681488037
1772537174252776700,2.193776611328125,-0.11595900356769562,-1.1445752382278442,0.6963447332382202
1772537174262824400,2.203824462890625,-0.11493422091007233,-1.145842432975769,0.1167982891201973
1772537174272873700,2.213873779296875,-0.1306571513414383,-0.9158827066421509,-0.362731397151947
1772537174282921500,2.22392138671875,-0.1566767692565918,-0.4870631992816925,-0.6849568486213684
1772537174292969500,2.233969482421875,-0.1759076863527298,0.043409623205661774,-0.8111920952796936
1772537174303017700,2.244017822265625,-0.17680808901786804,0.5074017643928528,-0.6814061403274536
1772537174313066500,2.25406640625,-0.11955996602773666,0.7493653893470764,-0.2930764853954315
1772537174323114800,2.26411474609375,-0.024878202006220818,0.6596466302871704,0.20898771286010742
1772537174333162500,2.27416259765625,0.06942915916442871,0.29228922724723816,0.735550045967102
1772537174343211800,2.284211669921875,0.10422895103693008,-0.1880396008491516,1.1943563222885132
1772537174353259500,2.294259521484375,0.06509974598884583,-0.5853838920593262,1.5363974571228027
1772537174363307500,2.3043076171875,0.004998859949409962,-0.7948441505432129,1.6853994131088257
1772537174373355500,2.31435546875,0.0025063715875148773,-0.8169612288475037,1.5494167804718018
1772537174383404500,2.324404541015625,0.055034294724464417,-0.5998190641403198,1.1804635524749756
1772537174393452500,2.33445263671875,0.14403638243675232,-0.11054126173257828,0.7194949388504028
1772537174403500500,2.34450048828125,0.22027257084846497,0.5554484724998474,0.2872079908847809
1772537174413549600,2.354549560546875,0.24316249787807465,1.1871787309646606,-0.031039340421557426
1772537174423597600,2.36459765625,0.19883817434310913,1.6658254861831665,-0.1946921944618225
1772537174433645600,2.3746455078125,0.11826089024543762,1.823765754699707,-0.21547609567642212
1772537174443693600,2.384693603515625,0.03550288826227188,1.6346274614334106,-0.10407847166061401
1772537174453742600,2.39474267578125,-0.013222547248005867,1.31593656539917,0.17263248562812805
1772537174463790600,2.40479052734375,-0.05793888494372368,1.0149195194244385,0.5474497675895691
1772537174473838600,2.414838623046875,-0.13279487192630768,0.7576833963394165,0.9086382985115051
1772537174483887600,2.4248876953125,-0.23859401047229767,0.5478675961494446,1.159117341041565
1772537174493935600,2.434935546875,-0.32342690229415894,0.41712310910224915,1.285212755203247
1772537174503983600,2.444983642578125,-0.36880022287368774,0.3961099684238434,1.3006452322006226
1772537174514032600,2.45503271484375,-0.37338900566101074,0.4251388609409332,1.1743199825286865
1772537174524080600,2.46508056640625,-0.3113086223602295,0.43162980675697327,0.9256190657615662
1772537174534128600,2.475128662109375,-0.1670316755771637,0.41677823662757874,0.6037214994430542
1772537174544176600,2.4851767578125,0.01286645233631134,0.42602792382240295,0.20870789885520935
1772537174554225700,2.4952255859375,0.2280139923095703,0.5111287236213684,-0.24823670089244843
1772537174564273700,2.505273681640625,0.4638741910457611,0.6621088981628418,-0.7123812437057495
1772537174574321400,2.5153212890625,0.64122474193573,0.7751087546348572,-1.1285085678100586
1772537174584370700,2.52537060546875,0.7913516759872437,0.7348577380180359,-1.4163281917572021
1772537174594418400,2.53541845703125,0.8677287697792053,0.5821192264556885,-1.5288052558898926
1772537174604466700,2.545466796875,0.799763023853302,0.3841134309768677,-1.462265133857727
1772537174614514700,2.5555146484375,0.6827780604362488,0.16847804188728333,-1.235940933227539
1772537174624563500,2.5655634765625,0.5707511305809021,-0.0029549570754170418,-0.9461349844932556
1772537174634611700,2.57561181640625,0.43777650594711304,-0.1665039360523224,-0.7130103707313538
1772537174644659500,2.585659423828125,0.2560884654521942,-0.2633042335510254,-0.5451369881629944
1772537174654708700,2.595708740234375,0.04897259920835495,-0.26701661944389343,-0.405036062002182
1772537174664756500,2.605756591796875,-0.17940092086791992,-0.24279360473155975,-0.2788080871105194
1772537174674804700,2.6158046875,-0.3974769413471222,-0.19796350598335266,-0.06622198224067688
1772537174684852500,2.6258525390625,-0.5496097207069397,-0.16702264547348022,0.28282177448272705
1772537174694901500,2.635901611328125,-0.5979792475700378,-0.18653522431850433,0.6563273668289185
1772537174704949500,2.645949462890625,-0.5542967319488525,-0.3225572407245636,0.9104738831520081
1772537174714997500,2.65599755859375,-0.4699847996234894,-0.5918591022491455,0.9864311218261719
1772537174725046500,2.666046630859375,-0.40520793199539185,-0.9109750390052795,0.8261532783508301
1772537174735094500,2.676094482421875,-0.3502372205257416,-1.1441608667373657,0.415960431098938
1772537174745142500,2.686142578125,-0.2817572355270386,-1.227221965789795,-0.1858801543712616
1772537174755190500,2.6961904296875,-0.223229318857193,-1.1114097833633423,-0.7857170701026917
1772537174765239600,2.706239501953125,-0.2022571861743927,-0.8523346781730652,-1.283690333366394
1772537174775287600,2.71628759765625,-0.19640497863292694,-0.4569140374660492,-1.531030535697937
1772537174785335600,2.72633544921875,-0.20039120316505432,-0.036495987325906754,-1.4399573802947998
1772537174795384600,2.736384521484375,-0.1844228059053421,0.22589193284511566,-1.0437582731246948
1772537174805432600,2.7464326171875,-0.1597081422805786,0.22100131213665009,-0.4567299783229828
1772537174815480600,2.75648046875,-0.16650894284248352,-0.024236157536506653,0.19198691844940186
1772537174825529600,2.766529541015625,-0.21089611947536469,-0.3930131196975708,0.758851945400238
1772537174835577600,2.77657763671875,-0.2832449674606323,-0.7426533699035645,1.1707106828689575
1772537174845625600,2.78662548828125,-0.36857423186302185,-1.0308241844177246,1.3948367834091187
1772537174855673600,2.796673583984375,-0.4120996594429016,-1.2091916799545288,1.4151235818862915
1772537174865722600,2.80672265625,-0.40696269273757935,-1.1973981857299805,1.2575461864471436
1772537174875770600,2.8167705078125,-0.3988378643989563,-0.9794570207595825,0.9492682218551636
1772537174885818400,2.826818359375,-0.434236079454422,-0.5869904160499573,0.5484771132469177
1772537174895867600,2.83686767578125,-0.5065209865570068,-0.08264759927988052,0.1447567641735077
1772537174905915400,2.846915283203125,-0.5801651477813721,0.5110167860984802,-0.18612608313560486
1772537174915963600,2.856963623046875,-0.6595491766929626,1.1044549942016602,-0.38425856828689575
1772537174926011600,2.86701171875,-0.736865222454071,1.5358631610870361,-0.40679797530174255
1772537174936060700,2.877060791015625,-0.764387845993042,1.7578063011169434,-0.2578909397125244
1772537174946108700,2.887108642578125,-0.7652912139892578,1.745067834854126,0.013020187616348267
1772537174956156400,2.897156494140625,-0.748483419418335,1.5589549541473389,0.33526620268821716
1772537174966205700,2.907205810546875,-0.7071695327758789,1.3234885931015015,0.6663472056388855
1772537174976253400,2.91725341796875,-0.6935001015663147,1.0892142057418823,0.9773442149162292
1772537174986301700,2.9273017578125,-0.7136900424957275,0.8212898373603821,1.224766492843628
1772537174996349700,2.937349609375,-0.7156814932823181,0.5051882266998291,1.3694816827774048
1772537175006398700,2.947398681640625,-0.6627378463745117,0.20814542472362518,1.396504521369934
1772537175016446500,2.957446533203125,-0.5818257331848145,-0.055239442735910416,1.3005207777023315
1772537175026494500,2.967494384765625,-0.4640945792198181,-0.2534255087375641,1.0793391466140747
1772537175036543500,2.97754345703125,-0.29220542311668396,-0.3600495457649231,0.7595890164375305
1772537175046591500,2.987591552734375,-0.07991580665111542,-0.359418123960495,0.33964812755584717
1772537175056639700,2.9976396484375,0.13648533821105957,-0.24142636358737946,-0.09630036354064941
1772537175066687500,3.0076875,0.3371870219707489,-0.082760289311409,-0.48702043294906616
1772537175076736800,3.01773681640625,0.4716812074184418,0.08630169183015823,-0.8282623887062073
1772537175086784500,3.027784423828125,0.49786248803138733,0.13103987276554108,-1.0895051956176758
1772537175096832500,3.03783251953125,0.43571317195892334,0.014247693121433258,-1.220824956893921
1772537175106880800,3.047880859375,0.36398813128471375,-0.20049257576465607,-1.2578407526016235
1772537175116928500,3.057928466796875,0.3161136507987976,-0.48272478580474854,-1.2957358360290527
1772537175126976500,3.0679765625,0.2641974687576294,-0.8606004118919373,-1.402403712272644
1772537175137024800,3.078024658203125,0.1625472605228424,-1.2466760873794556,-1.594693899154663
1772537175147073500,3.088073486328125,-0.01199871301651001,-1.4313119649887085,-1.7676377296447754
1772537175157121500,3.09812158203125,-0.20654967427253723,-1.3278634548187256,-1.8180352449417114
1772537175167169500,3.10816943359375,-0.3173232972621918,-0.9799683094024658,-1.7090085744857788
1772537175177218600,3.118218505859375,-0.3275120258331299,-0.5200296640396118,-1.4254515171051025
1772537175187266600,3.1282666015625,-0.3250507414340973,-0.1536644548177719,-0.9689916372299194
1772537175197314600,3.138314453125,-0.3028465211391449,-0.07551294565200806,-0.43017247319221497
1772537175207362600,3.148362548828125,-0.23883847892284393,-0.292234867811203,0.021893803030252457
1772537175217411600,3.15841162109375,-0.15726520121097565,-0.6118667721748352,0.3508650064468384
1772537175227459600,3.16845947265625,-0.09087738394737244,-0.8712615966796875,0.5293404459953308
1772537175237507600,3.178507568359375,-0.04634452611207962,-1.007541537284851,0.5012093186378479
1772537175247556600,3.188556640625,-0.009656555019319057,-0.9835774898529053,0.2956377863883972
1772537175257604600,3.1986044921875,0.016735514625906944,-0.6884496808052063,0.0012765591964125633
1772537175267652600,3.208652587890625,0.0058463821187615395,-0.2381986677646637,-0.30569082498550415
1772537175277700600,3.21870068359375,-0.06314926594495773,0.14539735019207,-0.5366160869598389
1772537175287749600,3.22874951171875,-0.13947226107120514,0.3537103533744812,-0.5540094971656799
1772537175297797600,3.238797607421875,-0.18323807418346405,0.33933255076408386,-0.35242071747779846
1772537175307845600,3.248845703125,-0.1966252475976944,0.15502983331680298,-0.005255298223346472
1772537175317894400,3.258894287109375,-0.20795667171478271,-0.12065552920103073,0.3951184153556824
1772537175327942700,3.268942626953125,-0.2328132838010788,-0.3750329613685608,0.7643502354621887
1772537175337990400,3.278990478515625,-0.2597441077232361,-0.5658785104751587,1.0577569007873535
1772537175348038700,3.28903857421875,-0.2713104784488678,-0.66568523645401,1.2748594284057617
1772537175358087400,3.29908740234375,-0.26927345991134644,-0.6415739059448242,1.3979215621948242
1772537175368135700,3.3091357421875,-0.25287503004074097,-0.4941881597042084,1.4993776082992554
1772537175378183700,3.31918359375,-0.1614173948764801,-0.27321213483810425,1.578880786895752
1772537175388232400,3.329232421875,0.02880953811109066,-0.056816719472408295,1.548693060874939
1772537175398280700,3.33928076171875,0.23094311356544495,0.1329282820224762,1.386272668838501
1772537175408328400,3.349328369140625,0.34682178497314453,0.23629115521907806,1.083889126777649
1772537175418376700,3.359376708984375,0.2686665952205658,0.24536116421222687,0.681544303894043
1772537175428425500,3.369425537109375,-0.01745675690472126,0.2689855396747589,0.2683844268321991
1772537175438473500,3.379473388671875,-0.35661959648132324,0.24021291732788086,-0.10560659319162369
1772537175448521700,3.389521728515625,-0.5992423892021179,0.16298070549964905,-0.36873969435691833
1772537175458570500,3.399570556640625,-0.6978093385696411,0.13125677406787872,-0.4494362473487854
1772537175468618800,3.40961865234375,-0.6401268839836121,0.16848458349704742,-0.3284222185611725
1772537175478666500,3.41966650390625,-0.41811081767082214,0.27621904015541077,-0.05142980068922043
1772537175488715800,3.4297158203125,-0.10587090253829956,0.3490748703479767,0.3017919063568115
1772537175498763500,3.439763427734375,0.19098229706287384,0.3105281591415405,0.6576363444328308
1772537175508811500,3.4498115234375,0.423994779586792,0.19038283824920654,0.9461389780044556
1772537175518859500,3.459859619140625,0.5818919539451599,0.09599749743938446,1.1046454906463623
1772537175528908500,3.469908447265625,0.6434267163276672,0.024413594976067543,1.0770975351333618
1772537175538956500,3.47995654296875,0.619006335735321,-0.03421496972441673,0.8589768409729004
1772537175549004500,3.490004638671875,0.5502352714538574,-0.06588315218687057,0.5155917406082153
1772537175559053600,3.500053466796875,0.48415544629096985,0.008693987503647804,0.12670105695724487
1772537175569101600,3.5101015625,0.476821631193161,0.23168179392814636,-0.23875068128108978
1772537175579149600,3.520149658203125,0.5327461957931519,0.46371379494667053,-0.5433045625686646
1772537175589197600,3.530197509765625,0.6159441471099854,0.5487954020500183,-0.7893590331077576
1772537175599246600,3.54024658203125,0.7053200006484985,0.4872680902481079,-0.9782077670097351
1772537175609294600,3.550294677734375,0.7281582355499268,0.40928274393081665,-1.0829919576644897
1772537175619342600,3.560342529296875,0.6208117604255676,0.24255090951919556,-1.1374645233154297
1772537175629391600,3.5703916015625,0.4102071523666382,-0.06913559883832932,-1.1723895072937012
1772537175639439600,3.580439697265625,0.16596868634223938,-0.4877893924713135,-1.133848786354065
1772537175649487600,3.590487548828125,-0.05586092174053192,-0.8433935642242432,-1.0509741306304932
1772537175659535600,3.60053564453125,-0.21441833674907684,-0.9957101345062256,-0.9895135164260864
1772537175669584600,3.610584716796875,-0.31516891717910767,-0.9159740209579468,-0.9972883462905884
1772537175679632600,3.620632568359375,-0.36865919828414917,-0.6376580595970154,-1.044608235359192
1772537175689680600,3.6306806640625,-0.4170733392238617,-0.28230321407318115,-1.0259509086608887
1772537175699729700,3.640729736328125,-0.4557337760925293,-0.01604415848851204,-0.8373251557350159
1772537175709777700,3.650777587890625,-0.43401727080345154,-0.02712583914399147,-0.4980509579181671
1772537175719825400,3.660825439453125,-0.3155991733074188,-0.3111274838447571,-0.1291084587574005
1772537175729873700,3.670873779296875,-0.14869728684425354,-0.6442710757255554,0.17999586462974548
1772537175739922400,3.68092236328125,0.005744626745581627,-0.8850054740905762,0.29898372292518616
1772537175749970700,3.690970703125,0.11005745083093643,-0.9789349436759949,0.15800316631793976
1772537175760018700,3.701018798828125,0.13994136452674866,-0.8542253971099854,-0.14880549907684326
1772537175770067700,3.711067626953125,0.08597081154584885,-0.47570526599884033,-0.47807979583740234
1772537175780115700,3.72111572265625,-0.05724310129880905,-0.0016610082238912582,-0.6692293286323547
1772537175790163500,3.73116357421875,-0.24265584349632263,0.30964335799217224,-0.6174598932266235
1772537175800211700,3.741211669921875,-0.3990309238433838,0.3748572766780853,-0.32164937257766724
1772537175810260500,3.751260498046875,-0.5044186115264893,0.24809587001800537,0.13740235567092896
1772537175820308700,3.761308837890625,-0.5661702156066895,-0.03342817723751068,0.6362740397453308
1772537175830356500,3.7713564453125,-0.6314096450805664,-0.4398078918457031,0.99735027551651
1772537175840405500,3.781405517578125,-0.7148125767707825,-0.845404863357544,1.1110280752182007
1772537175850453500,3.79145361328125,-0.7979077100753784,-1.0593078136444092,0.9445784091949463
1772537175860501500,3.80150146484375,-0.8302085399627686,-0.9821410775184631,0.6220121383666992
1772537175870549800,3.8115498046875,-0.7400016784667969,-0.6811652779579163,0.2842405140399933
1772537175880598500,3.8215986328125,-0.516924262046814,-0.3085174262523651,-0.010404291562736034
1772537175890646500,3.831646484375,-0.19278641045093536,0.05848270282149315,-0.2228502482175827
1772537175900694500,3.841694580078125,0.14519715309143066,0.3812207579612732,-0.30988478660583496
1772537175910743600,3.85174365234375,0.41368934512138367,0.631004810333252,-0.24635028839111328
1772537175920791600,3.86179150390625,0.5651928782463074,0.7413788437843323,-0.04878520220518112
1772537175930839600,3.871839599609375,0.5938980579376221,0.6385172009468079,0.2706569731235504
1772537175940887800,3.8818876953125,0.5270573496818542,0.3868890702724457,0.6591299176216125
1772537175950936600,3.8919365234375,0.4124513566493988,0.10352978855371475,1.0548486709594727
1772537175960984600,3.901984619140625,0.3000001609325409,-0.14085154235363007,1.397079586982727
1772537175971032600,3.912032470703125,0.2451440989971161,-0.27765682339668274,1.6230047941207886
1772537175981081600,3.92208154296875,0.24457335472106934,-0.27382752299308777,1.7276192903518677
1772537175991129600,3.932129638671875,0.2545173168182373,-0.1294434517621994,1.723051905632019
1772537176001177600,3.942177490234375,0.26359838247299194,0.10089652240276337,1.6368763446807861
1772537176011225300,3.952225341796875,0.2869151532649994,0.341683030128479,1.449880599975586
1772537176021274600,3.962274658203125,0.33800703287124634,0.4766460061073303,1.183628797531128
1772537176031322400,3.972322265625,0.37379300594329834,0.5519663095474243,0.8693584203720093
1772537176041370600,3.98237060546875,0.3595666289329529,0.5488129258155823,0.5318207740783691
1772537176051419400,3.99241943359375,0.33849355578422546,0.4807038903236389,0.19816933572292328
1772537176061467600,4.002467529296875,0.3262477517127991,0.46269670128822327,-0.09130039811134338
1772537176071515600,4.012515625,0.2853831648826599,0.46943503618240356,-0.3549341559410095
1772537176081563400,4.0225634765625,0.23620761930942535,0.5260272026062012,-0.5441060066223145
1772537176091612700,4.03261279296875,0.2296740859746933,0.579683244228363,-0.6232340931892395
1772537176101660400,4.042660400390625,0.25302472710609436,0.5589467883110046,-0.6338930130004883
1772537176111709700,4.052709716796875,0.26153168082237244,0.408141553401947,-0.6289059519767761
1772537176121758700,4.0627587890625,0.2608333230018616,0.17045281827449799,-0.6777113676071167
1772537176131806700,4.072806640625,0.2434876263141632,-0.07353267818689346,-0.7991688251495361
1772537176141854700,4.082854736328125,0.18900927901268005,-0.321443647146225,-0.9503772258758545
1772537176151902700,4.09290283203125,0.10215428471565247,-0.5666379928588867,-1.1029986143112183
1772537176161951700,4.10295166015625,0.004745484795421362,-0.7694528698921204,-1.2675458192825317
1772537176171999700,4.112999755859375,-0.06060502678155899,-0.8357333540916443,-1.3853569030761719
1772537176182047500,4.123047607421875,-0.08348744362592697,-0.6813920140266418,-1.4000651836395264
1772537176192096800,4.1330966796875,-0.10471630096435547,-0.39154693484306335,-1.2943613529205322
1772537176202144500,4.14314453125,-0.19401590526103973,-0.13485395908355713,-1.0475038290023804
1772537176212192800,4.15319287109375,-0.3056287169456482,-0.09365352988243103,-0.7132617235183716
1772537176222240800,4.16324072265625,-0.35153651237487793,-0.28583240509033203,-0.3809235990047455
1772537176232289800,4.173289794921875,-0.3399445712566376,-0.5772855281829834,-0.1657920926809311
1772537176242337800,4.183337890625,-0.335287481546402,-0.8535512089729309,-0.16825897991657257
1772537176252385500,4.193385498046875,-0.361771821975708,-0.98795086145401,-0.35213056206703186
1772537176262434800,4.203434814453125,-0.39077427983283997,-0.9315869212150574,-0.6469339728355408
1772537176272482600,4.213482666015625,-0.42526647448539734,-0.70500648021698,-0.9418529868125916
1772537176282530800,4.22353076171875,-0.43437886238098145,-0.30988016724586487,-1.081527590751648
1772537176292578800,4.233578857421875,-0.39775267243385315,0.17134635150432587,-0.9545440077781677
1772537176302627800,4.2436279296875,-0.3347233533859253,0.5427632331848145,-0.5587586164474487
1772537176312675800,4.25367578125,-0.2686106264591217,0.6228689551353455,0.04612753912806511
1772537176322723600,4.2637236328125,-0.2421833872795105,0.32534462213516235,0.729215681552887
1772537176332772600,4.273772705078125,-0.262842059135437,-0.2318190187215805,1.314522624015808
1772537176342820600,4.283820556640625,-0.2980392575263977,-0.8621837496757507,1.6671507358551025
1772537176352868900,4.293868896484375,-0.31849950551986694,-1.273783802986145,1.7588460445404053
1772537176362916600,4.30391650390625,-0.2705937623977661,-1.2812713384628296,1.6493581533432007
1772537176372966000,4.3139658203125,-0.13765408098697662,-0.9949602484703064,1.4097343683242798
1772537176383013600,4.324013671875,0.03952358663082123,-0.5790325403213501,1.148285984992981
1772537176393061600,4.3340615234375,0.21792873740196228,-0.19941729307174683,0.9734526872634888
1772537176403110700,4.344110595703125,0.3240547776222229,0.07283236086368561,0.893488883972168
1772537176413158700,4.35415869140625,0.3381713926792145,0.2132624387741089,0.8799736499786377
1772537176423207000,4.36420703125,0.2935052514076233,0.24716144800186157,0.9113340377807617
1772537176433254700,4.374254638671875,0.2092345803976059,0.25160863995552063,0.9615742564201355
1772537176443303700,4.3843037109375,0.1128411516547203,0.24690181016921997,1.0098330974578857
1772537176453351700,4.3943515625,0.04469991475343704,0.2425352931022644,1.0392637252807617
1772537176463399700,4.404399658203125,-0.015552408061921597,0.25033318996429443,1.0182325839996338
1772537176473448700,4.41444873046875,-0.07726850360631943,0.30831924080848694,0.9551466107368469
1772537176483496700,4.42449658203125,-0.10870414227247238,0.40105387568473816,0.8785675168037415
1772537176493544700,4.434544677734375,-0.09459365159273148,0.5405761003494263,0.819037914276123
1772537176503592700,4.4445927734375,-0.04616595432162285,0.7480830550193787,0.7641379833221436
1772537176513641500,4.454641357421875,0.0068690357729792595,0.9730834364891052,0.702086865901947
1772537176523689700,4.464689697265625,0.05959474667906761,1.1498966217041016,0.6057695150375366
1772537176533737700,4.47473779296875,0.11870227009057999,1.225993037223816,0.4847480058670044
1772537176543786800,4.484786865234375,0.15810048580169678,1.200147271156311,0.3651333749294281
1772537176553834800,4.494834716796875,0.20176860690116882,1.1047182083129883,0.248714879155159
1772537176563882500,4.504882568359375,0.2493034154176712,0.9823284149169922,0.11673904955387115
1772537176573930800,4.5149306640625,0.29770317673683167,0.8481407761573792,-0.05178657919168472
1772537176583979500,4.5249794921875,0.3168892562389374,0.7409780621528625,-0.2535303235054016
1772537176594027800,4.53502783203125,0.3391122817993164,0.7296534776687622,-0.4212583303451538
1772537176604075800,4.54507568359375,0.36286014318466187,0.8084768056869507,-0.5471217036247253
1772537176614124800,4.555124755859375,0.42998725175857544,0.9071192145347595,-0.6115339994430542
1772537176624172800,4.5651728515625,0.5312715768814087,1.0012738704681396,-0.6324021816253662
1772537176634220500,4.575220458984375,0.634205162525177,1.0010679960250854,-0.6443496942520142
1772537176644268800,4.585268798828125,0.6832393407821655,0.7987580299377441,-0.6828130483627319
1772537176654317600,4.595317626953125,0.6151204705238342,0.4346562325954437,-0.7483313083648682
1772537176664365800,4.60536572265625,0.47571027278900146,0.04970893636345863,-0.8261501789093018
1772537176674413600,4.61541357421875,0.34786897897720337,-0.2043510377407074,-0.942695677280426
1772537176684462800,4.625462890625,0.22238226234912872,-0.2536904811859131,-1.0988572835922241
1772537176694510600,4.635510498046875,0.05768120661377907,-0.09719783067703247,-1.2238043546676636
1772537176704558600,4.64555859375,-0.15161371231079102,0.16992658376693726,-1.2040674686431885
1772537176714606800,4.65560693359375,-0.3340199887752533,0.3730919361114502,-0.997007429599762
1772537176724655600,4.665655517578125,-0.40619170665740967,0.3951182961463928,-0.6361581087112427
1772537176734703900,4.675703857421875,-0.34786179661750793,0.08660759776830673,-0.32031863927841187
1772537176744751600,4.685751708984375,-0.1506141722202301,-0.45380261540412903,-0.2012294977903366
1772537176754801000,4.69580078125,0.1446574181318283,-0.9045319557189941,-0.3742752969264984
1772537176764848600,4.7058486328125,0.4222683310508728,-1.0568690299987793,-0.8001139163970947
1772537176774896600,4.715896728515625,0.5801708698272705,-0.7644451260566711,-1.3093336820602417
1772537176784945000,4.72594482421875,0.5578291416168213,-0.1663326770067215,-1.7361963987350464
1772537176794993700,4.73599365234375,0.35311752557754517,0.5061474442481995,-1.9033161401748657
1772537176805041700,4.746041748046875,0.04945726692676544,1.0478436946868896,-1.674736738204956
1772537176815089700,4.756089599609375,-0.24231255054473877,1.2188035249710083,-1.0934584140777588
1772537176825138700,4.766138671875,-0.4549878239631653,0.9576587080955505,-0.27234622836112976
1772537176835186700,4.776186767578125,-0.5958935618400574,0.3541720509529114,0.6067224740982056
1772537176845234700,4.786234619140625,-0.6909670233726501,-0.3424791097640991,1.3758689165115356
1772537176855282700,4.79628271484375,-0.7164881229400635,-0.8467355966567993,1.8936797380447388
1772537176865331700,4.806331787109375,-0.6892457604408264,-1.0530571937561035,2.0957212448120117
1772537176875379700,4.816379638671875,-0.6257517337799072,-0.9955951571464539,2.0413386821746826
1772537176885427700,4.826427734375,-0.48895934224128723,-0.7694244384765625,1.828209638595581
1772537176895476700,4.836476806640625,-0.2984205484390259,-0.4786194860935211,1.509793758392334
1772537176905524700,4.846524658203125,-0.09291389584541321,-0.12479235976934433,1.173548698425293
1772537176915572700,4.85657275390625,0.0804365873336792,0.3285791277885437,0.88498455286026
1772537176925620700,4.866620849609375,0.18977504968643188,0.7426989674568176,0.640180766582489
1772537176935669800,4.876669677734375,0.2482394129037857,0.9967842698097229,0.4245600700378418
1772537176945717800,4.8867177734375,0.25311610102653503,1.0051043033599854,0.2454013079404831
1772537176955765800,4.896765869140625,0.16142931580543518,0.6977190375328064,0.10469798743724823
1772537176965814500,4.906814453125,-0.0015297941863536835,0.23478518426418304,0.010489196516573429
1772537176975862800,4.91686279296875,-0.1152997687458992,-0.05736277997493744,-0.02628905698657036
1772537176985910500,4.92691064453125,-0.15346753597259521,-0.11379522830247879,-0.04458371922373772
1772537176995958800,4.936958740234375,-0.11012193560600281,0.048172902315855026,-0.06469324976205826
1772537177006007600,4.947007568359375,0.0014031450264155865,0.30934733152389526,-0.10198328644037247
1772537177016055600,4.9570556640625,0.14407241344451904,0.5415986776351929,-0.1368379443883896
1772537177026103800,4.967103759765625,0.28443214297294617,0.6499965786933899,-0.15265648066997528
1772537177036152600,4.977152587890625,0.3771975040435791,0.647820234298706,-0.12544216215610504
1772537177046200800,4.987200927734375,0.4074040353298187,0.6061009764671326,-0.044319383800029755
1772537177056248600,4.99724853515625,0.398560494184494,0.5707445740699768,0.057134803384542465
1772537177066296800,5.007296875,0.3657973110675812,0.48855501413345337,0.14466336369514465
1772537177076345600,5.017345703125,0.3240043520927429,0.357607364654541,0.18695995211601257
1772537177086393600,5.0273935546875,0.25519105792045593,0.21680426597595215,0.19053079187870026
1772537177096441900,5.03744189453125,0.16591419279575348,0.09618650376796722,0.16912563145160675
1772537177106488300,5.04748828125,0.08218129724264145,0.0029029706493020058,0.1345144361257553
1772537177116537300,5.057537353515625,0.05180314928293228,0.0002041230909526348,0.09544505923986435
1772537177126585300,5.06758544921875,0.06730727851390839,0.06616031378507614,0.047660380601882935
1772537177136633000,5.077633056640625,0.09127333015203476,0.1289997398853302,-0.019982045516371727
1772537177146682400,5.087682373046875,0.11103712767362595,0.0971369668841362,-0.1368188112974167
1772537177156730000,5.097730224609375,0.09362351894378662,-0.040446192026138306,-0.3223479092121124
1772537177166778400,5.1077783203125,0.036912694573402405,-0.18748345971107483,-0.5126222372055054
1772537177176827100,5.1178271484375,-0.040053728967905045,-0.29641473293304443,-0.672854483127594
1772537177186875400,5.12787548828125,-0.09825398772954941,-0.3443222939968109,-0.7776409983634949
1772537177196923100,5.137923095703125,-0.1074160635471344,-0.28891441226005554,-0.799155592918396
1772537177206971100,5.14797119140625,-0.14181526005268097,-0.2033269852399826,-0.7980557680130005
1772537177217020200,5.158020263671875,-0.254469096660614,-0.19094409048557281,-0.7960817813873291
1772537177227068200,5.168068115234375,-0.39271029829978943,-0.22721457481384277,-0.7644062638282776
1772537177237116400,5.178116455078125,-0.5077130198478699,-0.37120503187179565,-0.7370694279670715
1772537177247164200,5.1881640625,-0.591728687286377,-0.6134105920791626,-0.7053458094596863
1772537177257213400,5.19821337890625,-0.6277180910110474,-0.875338613986969,-0.6442742347717285
1772537177267261200,5.20826123046875,-0.5860171318054199,-1.084450364112854,-0.6063093543052673
1772537177277309200,5.21830908203125,-0.4568982422351837,-1.1737639904022217,-0.6381881833076477
1772537177287358200,5.228358154296875,-0.2564595639705658,-1.0689467191696167,-0.7584697604179382
1772537177297406200,5.23840625,0.00015782564878463745,-0.8304928541183472,-0.9881207942962646
1772537177307454500,5.248454345703125,0.26305490732192993,-0.45991945266723633,-1.255595326423645
1772537177317503200,5.258503173828125,0.4705934524536133,-0.0374147966504097,-1.5274622440338135
1772537177327551200,5.26855126953125,0.5336527824401855,0.2830098271369934,-1.7442103624343872
1772537177337599200,5.27859912109375,0.448179692029953,0.5061659812927246,-1.8073368072509766
1772537177347647200,5.288647216796875,0.3731752038002014,0.8646232485771179,-1.6840018033981323
1772537177357696300,5.2986962890625,0.407285213470459,1.337778091430664,-1.4047762155532837
1772537177367744300,5.308744140625,0.4690069556236267,1.7308413982391357,-1.0433008670806885
1772537177377792300,5.318792236328125,0.49267899990081787,1.8412301540374756,-0.669170081615448
1772537177387840300,5.32884033203125,0.3751606047153473,1.5321048498153687,-0.2735447287559509
1772537177397889000,5.338888916015625,0.14623883366584778,1.004760503768921,0.1701752245426178
1772537177407937300,5.348937255859375,-0.05799926817417145,0.4516354501247406,0.5958197116851807
1772537177417985300,5.3589853515625,-0.15845398604869843,0.02999308705329895,0.881205141544342
1772537177428034300,5.369034423828125,-0.14725752174854279,-0.10822417587041855,0.989632785320282
1772537177438082300,5.379082275390625,-0.056498702615499496,0.008452298119664192,0.9246079325675964
1772537177448130000,5.389130126953125,0.08578839898109436,0.2994668185710907,0.7203804850578308
1772537177458178300,5.39917822265625,0.26099511981010437,0.6959422826766968,0.4474544823169708
1772537177468227000,5.40922705078125,0.46041178703308105,1.1223729848861694,0.1559767723083496
1772537177478275300,5.419275390625,0.6838712692260742,1.439653754234314,-0.10961415618658066
1772537177488323300,5.4293232421875,0.9084154367446899,1.5523502826690674,-0.3143574297428131
1772537177498372400,5.439372314453125,1.02145254611969,1.3755854368209839,-0.46612951159477234
1772537177508420400,5.44942041015625,1.016748309135437,1.0279781818389893,-0.5426732897758484
1772537177518468000,5.459468017578125,0.9352627992630005,0.7257741689682007,-0.4928187429904938
1772537177528516400,5.469516357421875,0.7918339967727661,0.54015052318573,-0.35359135270118713
1772537177538565000,5.479565185546875,0.6563045978546143,0.4397197365760803,-0.1739645004272461
1772537177548613400,5.48961328125,0.523169994354248,0.3544335961341858,0.02432968281209469
1772537177558661000,5.4996611328125,0.397273987531662,0.2334667593240738,0.22765225172042847
1772537177568710400,5.50971044921875,0.3190481662750244,0.0806465819478035,0.4023401737213135
1772537177578758100,5.519758056640625,0.28501883149147034,-0.06881683319807053,0.5157497525215149
1772537177588806100,5.52980615234375,0.2752506136894226,-0.15918241441249847,0.541958212852478
1772537177598854400,5.5398544921875,0.27697789669036865,-0.21103323996067047,0.466269850730896
1772537177608903200,5.549903076171875,0.2816445529460907,-0.2590998113155365,0.2666073143482208
1772537177618951400,5.559951416015625,0.24202540516853333,-0.30670660734176636,-0.032508719712495804
1772537177628999200,5.569999267578125,0.16158384084701538,-0.3600372076034546,-0.38123875856399536
1772537177639048400,5.58004833984375,0.0841849148273468,-0.41244885325431824,-0.7137746214866638
1772537177649096200,5.59009619140625,0.039006516337394714,-0.3708449602127075,-0.9090423583984375
1772537177659144200,5.600144287109375,0.02544882334768772,-0.12702485918998718,-0.9455620646476746
1772537177669192200,5.610192138671875,0.10792053490877151,0.2638304829597473,-0.8271504640579224
1772537177679241200,5.6202412109375,0.21433860063552856,0.5444365739822388,-0.6877735257148743
1772537177689289200,5.630289306640625,0.1889522820711136,0.5465494990348816,-0.6423403024673462
1772537177699337200,5.640337158203125,0.016449280083179474,0.23492023348808289,-0.6681843400001526
1772537177709385200,5.65038525390625,-0.1912972629070282,-0.3207642734050751,-0.7455568909645081
1772537177719434200,5.660434326171875,-0.38627782464027405,-0.9077635407447815,-0.8234077095985413
1772537177729482200,5.670482177734375,-0.6126949787139893,-1.279162049293518,-0.8131654858589172
1772537177739530200,5.6805302734375,-0.8511104583740234,-1.3875348567962646,-0.6803767681121826
1772537177749579300,5.690579345703125,-1.0155484676361084,-1.3226799964904785,-0.44912225008010864
1772537177759627300,5.700627197265625,-1.0237230062484741,-1.13491952419281,-0.11522124707698822
1772537177769675300,5.71067529296875,-0.8567537665367126,-0.8605233430862427,0.24073871970176697
1772537177779723300,5.72072314453125,-0.5859783887863159,-0.6634373068809509,0.40495336055755615
1772537177789772300,5.730772216796875,-0.3241635859012604,-0.5993232727050781,0.2731889486312866
1772537177799820300,5.7408203125,-0.18244652450084686,-0.5947248935699463,-0.11261047422885895
1772537177809868300,5.750868408203125,-0.19662199914455414,-0.5688530802726746,-0.6014211773872375
1772537177819917300,5.760917236328125,-0.29714083671569824,-0.44152072072029114,-0.9666461944580078
1772537177829965300,5.77096533203125,-0.424251914024353,-0.21439383924007416,-1.075785756111145
1772537177840013300,5.781013427734375,-0.5207613110542297,0.06149687245488167,-0.8816968202590942
1772537177850061000,5.79106103515625,-0.5526832938194275,0.30685868859291077,-0.4165281057357788
1772537177860110300,5.8011103515625,-0.5144374370574951,0.3863767087459564,0.16953375935554504
1772537177870158000,5.811157958984375,-0.4389336407184601,0.3582223057746887,0.7031388282775879
1772537177880206300,5.821206298828125,-0.3145618140697479,0.3247024416923523,1.113701343536377
1772537177890255000,5.831255126953125,-0.1792023926973343,0.22608798742294312,1.4100462198257446
1772537177900303000,5.84130322265625,-0.06753218919038773,0.04246515780687332,1.6412124633789062
1772537177910351400,5.851351318359375,0.02287546917796135,-0.12035945057868958,1.8283239603042603
1772537177920399000,5.861399169921875,0.11361286789178848,-0.12258005887269974,1.9629194736480713
1772537177930448400,5.871448486328125,0.2227577269077301,0.1168903186917305,1.966129183769226
1772537177940496100,5.88149609375,0.35065698623657227,0.5683599710464478,1.7785115242004395
1772537177950544400,5.89154443359375,0.4627110958099365,1.0756816864013672,1.4347269535064697
1772537177960593200,5.90159326171875,0.45841771364212036,1.394707202911377,1.0302042961120605
1772537177970641200,5.91164111328125,0.3165798783302307,1.3479441404342651,0.6789328455924988
1772537177980689400,5.921689453125,0.09866161644458771,0.9601904153823853,0.4753322899341583
1772537177990737200,5.931737060546875,-0.084920734167099,0.4449020028114319,0.4739634394645691
1772537178000786400,5.941786376953125,-0.14269110560417175,0.025691471993923187,0.6288050413131714
1772537178010834200,5.951834228515625,-0.07087710499763489,-0.09262344986200333,0.8897535800933838
1772537178020882200,5.961882080078125,0.06150923669338226,0.05838998407125473,1.1795732975006104
1772537178030931200,5.97193115234375,0.22790805995464325,0.34863752126693726,1.4209283590316772
1772537178040979200,5.981979248046875,0.41453441977500916,0.6632788181304932,1.5902694463729858
1772537178051027200,5.992027099609375,0.5614322423934937,0.8799850940704346,1.67900812625885
1772537178061075200,6.0020751953125,0.6528926491737366,0.9320799708366394,1.6569997072219849
1772537178071124200,6.012124267578125,0.6671618223190308,0.7999088764190674,1.515399694442749
1772537178081172200,6.022172119140625,0.5971486568450928,0.5493163466453552,1.254939079284668
1772537178091220200,6.03222021484375,0.5130465626716614,0.30323025584220886,0.9095501899719238
1772537178101269200,6.042269287109375,0.4770328402519226,0.21039484441280365,0.5115439295768738
1772537178111321000,6.052321044921875,0.47869229316711426,0.23739494383335114,0.052842166274785995
1772537178121369000,6.062369140625,0.5352077484130859,0.401391863822937,-0.38592958450317383
1772537178131417000,6.0724169921875,0.6580798625946045,0.6572974324226379,-0.7318208813667297
1772537178141466000,6.082466064453125,0.812552273273468,0.9150789380073547,-0.9766870737075806
1772537178151514000,6.09251416015625,0.9403879642486572,1.096114158630371,-1.0744386911392212
1772537178161561900,6.102561767578125,1.0112608671188354,1.1131548881530762,-1.0347442626953125
1772537178171610000,6.112610107421875,0.9619241952896118,0.8577076196670532,-0.9576839208602905
1772537178181659000,6.122658935546875,0.7133500576019287,0.25723958015441895,-0.9502172470092773
1772537178191707100,6.13270703125,0.36271584033966064,-0.6116997003555298,-1.028889536857605
1772537178201755100,6.142755126953125,0.02063598483800888,-1.4149974584579468,-1.1582916975021362
1772537178211804200,6.15280419921875,-0.29169008135795593,-1.789617657661438,-1.3387433290481567
1772537178221852200,6.16285205078125,-0.5454192757606506,-1.668199062347412,-1.539886474609375
1772537178231900000,6.17289990234375,-0.6921676993370056,-1.1198570728302002,-1.5712651014328003
1772537178241949200,6.18294921875,-0.7216057777404785,-0.3591121435165405,-1.311643362045288
1772537178251997000,6.192996826171875,-0.6352088451385498,0.2707531154155731,-0.82672119140625
1772537178262045200,6.203045166015625,-0.4708643853664398,0.5046049952507019,-0.2899022698402405
1772537178272093200,6.21309326171875,-0.3143063187599182,0.375775009393692,0.12467651814222336
1772537178282142200,6.22314208984375,-0.28659507632255554,-0.019990697503089905,0.3558831214904785
1772537178292190000,6.23318994140625,-0.4416605830192566,-0.48154616355895996,0.3620816767215729
1772537178302238000,6.243238037109375,-0.6359432339668274,-0.6750183701515198,0.23286086320877075
1772537178312286200,6.2532861328125,-0.7546295523643494,-0.5149204134941101,0.032363411039114
1772537178322335000,6.2633349609375,-0.7641370296478271,-0.07786484062671661,-0.1591612696647644
1772537178332383200,6.27338330078125,-0.659487783908844,0.5109118819236755,-0.28175053000450134
1772537178342431000,6.283430908203125,-0.4422534704208374,1.0397478342056274,-0.3300411105155945
1772537178352480300,6.293480224609375,-0.173737034201622,1.3607609272003174,-0.30935409665107727
1772537178362528000,6.303528076171875,0.045981477946043015,1.3603739738464355,-0.21242408454418182
1772537178372576000,6.313575927734375,0.141534686088562,0.9894537925720215,-0.0954141765832901
1772537178382624300,6.323624267578125,0.12264648079872131,0.43847182393074036,0.00933459959924221
1772537178392673000,6.333673095703125,0.07088767737150192,-0.042194664478302,0.05688614025712013
1772537178402721300,6.34372119140625,0.046172477304935455,-0.3051251173019409,0.00866987556219101
1772537178412769000,6.35376904296875,0.0405317097902298,-0.30460235476493835,-0.17899015545845032
1772537178422818300,6.363818359375,0.054833151400089264,-0.1408959925174713,-0.48116251826286316
1772537178432866000,6.373865966796875,0.10202118754386902,0.1998700499534607,-0.7579892873764038
1772537178442914000,6.3839140625,0.17736122012138367,0.5992754697799683,-0.9018266201019287
1772537178452962000,6.393962158203125,0.25702613592147827,0.8798828721046448,-0.9011416435241699
1772537178463011000,6.404010986328125,0.30884379148483276,0.8660829067230225,-0.7668623924255371
1772537178473059000,6.41405908203125,0.3733215630054474,0.5981127023696899,-0.5621685981750488
1772537178483107000,6.424107177734375,0.40623289346694946,0.2837222218513489,-0.3028068244457245
1772537178493155800,6.43415576171875,0.36614927649497986,0.010797034949064255,-0.029706235975027084
1772537178503204000,6.4442041015625,0.2649020254611969,-0.20132960379123688,0.20593585073947906
1772537178513252000,6.454252197265625,0.1516479104757309,-0.2947808504104614,0.40107324719429016
1772537178523300000,6.464300048828125,0.1049904078245163,-0.2580236494541168,0.6114853620529175
1772537178533349000,6.47434912109375,0.12971940636634827,-0.14667047560214996,0.8552209734916687
1772537178543397000,6.484397216796875,0.191960409283638,-0.04807359725236893,1.0712809562683105
1772537178553445000,6.494445068359375,0.25929194688796997,-0.0252811498939991,1.196431279182434
1772537178563494000,6.504493896484375,0.2969341278076172,-0.06676414608955383,1.2034624814987183
1772537178573542100,6.514542236328125,0.3162772059440613,-0.1463167518377304,1.0500229597091675
1772537178583590100,6.524590087890625,0.29917067289352417,-0.26778939366340637,0.7256079912185669
1772537178593638100,6.53463818359375,0.293308287858963,-0.3453143537044525,0.2961774468421936
1772537178603687200,6.544687255859375,0.29569077491760254,-0.3436829149723053,-0.15613757073879242
1772537178613735000,6.55473486328125,0.28166165947914124,-0.28114622831344604,-0.5830094218254089
1772537178623783200,6.564783203125,0.2650618851184845,-0.1626209318637848,-0.959866464138031
1772537178633831000,6.574830810546875,0.22010114789009094,-0.02574525773525238,-1.2867858409881592
1772537178643880200,6.584880126953125,0.1348395198583603,0.036200135946273804,-1.5443060398101807
1772537178653928000,6.594927978515625,0.029941821470856667,0.032849010080099106,-1.6683405637741089
1772537178663976200,6.60497607421875,-0.12590956687927246,0.00038907211273908615,-1.648106336593628
1772537178674025000,6.61502490234375,-0.3352484107017517,-0.06342582404613495,-1.5336332321166992
1772537178684073000,6.625072998046875,-0.5567491054534912,-0.21044190227985382,-1.3869787454605103
1772537178694121200,6.635121337890625,-0.7776028513908386,-0.5796076059341431,-1.254908800125122
1772537178704170000,6.645169921875,-0.9843347072601318,-1.0976214408874512,-1.1834050416946411
1772537178714218200,6.65521826171875,-1.1873975992202759,-1.5309956073760986,-1.1991058588027954
1772537178724266000,6.665265869140625,-1.3326506614685059,-1.6969857215881348,-1.287393569946289
1772537178734314000,6.67531396484375,-1.341532588005066,-1.4738746881484985,-1.3781652450561523
1772537178744363000,6.685363037109375,-1.2172068357467651,-0.9858629107475281,-1.3849211931228638
1772537178754411000,6.695410888671875,-0.9913338422775269,-0.5401089787483215,-1.2851274013519287
1772537178764459000,6.705458984375,-0.6691813468933105,-0.2772986888885498,-1.115648627281189
1772537178774507000,6.715507080078125,-0.306220144033432,-0.17612987756729126,-0.9292839169502258
1772537178784556000,6.72555615234375,-0.0019143326207995415,-0.164345383644104,-0.7327522039413452
1772537178794604000,6.73560400390625,0.14707684516906738,-0.1889626830816269,-0.5518775582313538
1772537178804652000,6.745652099609375,0.16459006071090698,-0.22779157757759094,-0.43809106945991516
1772537178814701000,6.755701171875,0.09747089445590973,-0.2672533392906189,-0.3835676312446594
1772537178824749000,6.7657490234375,-0.0743514746427536,-0.2756345570087433,-0.30477455258369446
1772537178834797000,6.775797119140625,-0.2951563894748688,-0.19661104679107666,-0.15524117648601532
1772537178844845000,6.785844970703125,-0.4821270704269409,-0.029331766068935394,0.03128475323319435
1772537178854894000,6.79589404296875,-0.5487385988235474,0.10879724472761154,0.22195684909820557
1772537178864942000,6.805942138671875,-0.5060475468635559,0.12403186410665512,0.36313340067863464
1772537178874990000,6.815989990234375,-0.4088781774044037,0.04158706218004227,0.4165225923061371
1772537178885039000,6.8260390625,-0.2902772128582001,-0.047964390367269516,0.3728989362716675
1772537178895087000,6.836087158203125,-0.19667458534240723,-0.10002753138542175,0.23736315965652466
1772537178905135000,6.846135009765625,-0.17496930062770844,-0.1516909897327423,0.049724824726581573
1772537178915183000,6.85618310546875,-0.1945018619298935,-0.30031779408454895,-0.14920219779014587
1772537178925232000,6.866232177734375,-0.21413815021514893,-0.48207589983940125,-0.31267768144607544
1772537178935280000,6.876280029296875,-0.21026411652565002,-0.5374863743782043,-0.40646398067474365
1772537178945327900,6.886327880859375,-0.13666073977947235,-0.36795780062675476,-0.46730950474739075
1772537178955376000,6.896376220703125,-0.011409372091293335,-0.38217219710350037,-0.4556584060192108
1772537178965425000,6.9064248046875,0.009193375706672668,-0.24388355016708374,-0.1815166175365448
1772537178975473200,6.91647314453125,0.07000287622213364,-0.01170615665614605,0.21243105828762054
1772537178985521200,6.926521240234375,0.1824178397655487,0.12312889099121094,0.5605400204658508
1772537178995570200,6.936570068359375,0.26417163014411926,0.13188832998275757,0.8342496752738953
1772537179005618200,6.9466181640625,0.3106403350830078,0.07751376181840897,1.0327668190002441
1772537179015666000,6.956666015625,0.33078059554100037,0.004550731275230646,1.128201961517334
1772537179025714200,6.966714111328125,0.346725732088089,-0.08818986266851425,1.0741914510726929
1772537179035763000,6.976762939453125,0.32021158933639526,-0.10375051945447922,0.8987187743186951
1772537179045811200,6.986811279296875,0.2921655476093292,-0.022120904177427292,0.689206063747406
1772537179055859200,6.996859130859375,0.29163652658462524,0.06900705397129059,0.5085272192955017
1772537179065908000,7.006907958984375,0.3263673484325409,0.2389204502105713,0.4281277060508728
1772537179075956200,7.016956298828125,0.4105759561061859,0.540969967842102,0.45479485392570496
1772537179086004000,7.02700390625,0.526103138923645,0.8720632195472717,0.5343219041824341
1772537179096052200,7.03705224609375,0.6246797442436218,1.1376973390579224,0.615543782711029
1772537179106101000,7.04710107421875,0.6907458305358887,1.2886983156204224,0.6472194790840149
1772537179116148700,7.057148681640625,0.7221376299858093,1.3032442331314087,0.6297043561935425
1772537179126196700,7.06719677734375,0.6789699196815491,1.120318055152893,0.558080792427063
1772537179136245800,7.077245849609375,0.566495954990387,0.8098596334457397,0.43582069873809814
1772537179146293800,7.087293701171875,0.41402384638786316,0.4861651360988617,0.24707183241844177
1772537179156341800,7.097341796875,0.24462421238422394,0.18707948923110962,-0.03985660895705223
1772537179166390000,7.10739013671875,0.06843507289886475,0.009434389881789684,-0.4116322994232178
1772537179176438800,7.117438720703125,-0.10866729170084,-0.034889206290245056,-0.8461540341377258
1772537179186486800,7.12748681640625,-0.23904339969158173,0.05809745565056801,-1.2425016164779663
1772537179196534800,7.13753466796875,-0.294967919588089,0.19054128229618073,-1.5300897359848022
1772537179206583800,7.147583740234375,-0.31170400977134705,0.25462305545806885,-1.7303764820098877
1772537179216631800,7.1576318359375,-0.34152713418006897,0.19344665110111237,-1.910567283630371
1772537179226679800,7.1676796875,-0.38929465413093567,0.01679997146129608,-2.0884077548980713
1772537179236727800,7.177727783203125,-0.4460291266441345,-0.20029188692569733,-2.2635693550109863
1772537179246776800,7.18777685546875,-0.5289679169654846,-0.31770187616348267,-2.3551886081695557
1772537179256824800,7.197824951171875,-0.6269026398658752,-0.25852054357528687,-2.257966995239258
1772537179266872800,7.207872802734375,-0.731228768825531,-0.07623917609453201,-1.8611260652542114
1772537179276921900,7.217921875,-0.8374993801116943,0.12361156195402145,-1.1592202186584473
1772537179286969900,7.227969970703125,-0.8846104145050049,0.18654419481754303,-0.3472391963005066
1772537179297017900,7.238017822265625,-0.8538755774497986,0.035553764551877975,0.28190749883651733
1772537179307065600,7.248065673828125,-0.7841271162033081,-0.31032055616378784,0.5503884553909302
1772537179317115000,7.258114990234375,-0.7949791550636292,-0.7956984639167786,0.3841976821422577
1772537179327162600,7.26816259765625,-0.9069646000862122,-1.2049826383590698,-0.1591217964887619
1772537179337211000,7.2782109375,-0.9649721384048462,-1.2382417917251587,-0.8292238116264343
1772537179347259000,7.2882587890625,-0.8882811069488525,-0.8359979391098022,-1.3793312311172485
1772537179357308000,7.298307861328125,-0.698874294757843,-0.027026792988181114,-1.6475626230239868
1772537179367356000,7.30835595703125,-0.4001743793487549,0.8112527132034302,-1.5343819856643677
1772537179377403600,7.318403564453125,-0.0693390816450119,1.3247809410095215,-1.0955767631530762
1772537179387453000,7.328452880859375,0.17653673887252808,1.3695952892303467,-0.45665889978408813
1772537179397500700,7.338500732421875,0.2943732440471649,1.0254592895507812,0.21979299187660217
1772537179407549000,7.348548828125,0.22772392630577087,0.44734033942222595,0.7634797096252441
1772537179417597000,7.358596923828125,-0.0008431104943156242,-0.1759193241596222,1.1101621389389038
1772537179427646000,7.36864599609375,-0.2921750843524933,-0.6302804350852966,1.2456011772155762
1772537179437694000,7.37869384765625,-0.5184460282325745,-0.8052846789360046,1.1920068264007568
1772537179447741700,7.38874169921875,-0.6455991864204407,-0.7296615839004517,1.0260522365570068
1772537179457791000,7.398791015625,-0.6493452787399292,-0.4955655634403229,0.8543281555175781
1772537179467838700,7.408838623046875,-0.5189774036407471,-0.2319088876247406,0.6986509561538696
1772537179477887000,7.418886962890625,-0.31121623516082764,0.02283649519085884,0.5190727710723877
1772537179487934700,7.428934814453125,-0.0726337730884552,0.3044809401035309,0.3502217233181
1772537179497984000,7.43898388671875,0.11788418889045715,0.5734953284263611,0.219929501414299
1772537179508031700,7.44903173828125,0.250517338514328,0.7897096276283264,0.17521315813064575
1772537179518079700,7.459079833984375,0.3569910526275635,0.8629776239395142,0.28672167658805847
1772537179528128000,7.4691279296875,0.4676147699356079,0.7834223508834839,0.5288275480270386
1772537179538176800,7.4791767578125,0.55086350440979,0.5890566110610962,0.8482147455215454
1772537179548225000,7.48922509765625,0.6048742532730103,0.30888432264328003,1.2065887451171875
1772537179558272800,7.499272705078125,0.6285290122032166,0.08532790094614029,1.5421749353408813
1772537179568322000,7.509322021484375,0.6326172351837158,-0.007660896051675081,1.8252812623977661
1772537179578369800,7.519369873046875,0.6047050952911377,0.09390244632959366,2.0430662631988525
1772537179588417800,7.529417724609375,0.5326809883117676,0.23632165789604187,2.1434130668640137
1772537179598465800,7.5394658203125,0.41322779655456543,0.36504122614860535,2.108980417251587
1772537179608514800,7.549514892578125,0.28519099950790405,0.4461241066455841,1.9649492502212524
1772537179618562800,7.559562744140625,0.23519667983055115,0.48306503891944885,1.7274322509765625
1772537179628610800,7.56961083984375,0.27680137753486633,0.5307617783546448,1.4478533267974854
1772537179638659800,7.579659912109375,0.36759841442108154,0.58465176820755,1.1219884157180786
1772537179648707800,7.589707763671875,0.4664440453052521,0.6124599575996399,0.7175780534744263
1772537179658755800,7.599755859375,0.5088342428207397,0.6568942070007324,0.2527031898498535
1772537179668803800,7.609803955078125,0.5171211957931519,0.6800650358200073,-0.1949472725391388
1772537179678852900,7.619852783203125,0.5293114185333252,0.6859841346740723,-0.5693244934082031
1772537179688900600,7.629900634765625,0.5786800384521484,0.6036620736122131,-0.8501604795455933
1772537179698948900,7.639948974609375,0.6136053204536438,0.4228167235851288,-1.0486931800842285
1772537179708997600,7.64999755859375,0.6635553240776062,0.15449047088623047,-1.0900678634643555
1772537179719046000,7.6600458984375,0.6822674870491028,-0.12979793548583984,-1.0033153295516968
1772537179729094000,7.670093994140625,0.5700173377990723,-0.20477789640426636,-0.8216819167137146
1772537179739142000,7.680141845703125,0.337110698223114,-0.24020448327064514,-0.6270123720169067
1772537179749191000,7.69019091796875,0.0010117795318365097,-0.3911740183830261,-0.5057075023651123
1772537179759238700,7.70023876953125,-0.3801504075527191,-0.7359137535095215,-0.49058395624160767
1772537179769287000,7.710286865234375,-0.776936948299408,-1.283926248550415,-0.6560136079788208
1772537179779335700,7.720335693359375,-1.161930799484253,-1.7837815284729004,-0.8842995762825012
1772537179789384000,7.730384033203125,-1.469468116760254,-2.0035762786865234,-0.9626228213310242
1772537179799431700,7.740431640625,-1.6512013673782349,-1.819286823272705,-0.785797119140625
1772537179809479700,7.750479736328125,-1.6188790798187256,-1.4033905267715454,-0.46579036116600037
1772537179819528700,7.76052880859375,-1.4167228937149048,-1.0523127317428589,-0.19791685044765472
1772537179829576700,7.77057666015625,-1.1820929050445557,-0.8105270266532898,-0.08247973769903183
1772537179839625000,7.780625,-1.022912621498108,-0.7287161350250244,-0.18212659657001495
1772537179849672700,7.790672607421875,-0.9689800143241882,-0.7983825206756592,-0.4854060411453247
1772537179859722000,7.800721923828125,-0.9666913747787476,-0.8211774826049805,-0.765685498714447
1772537179869769700,7.810769775390625,-0.9665009379386902,-0.7232128381729126,-0.8499191403388977
1772537179879817700,7.820817626953125,-0.9314308166503906,-0.4701082408428192,-0.6757834553718567
1772537179889866800,7.83086669921875,-0.8085075616836548,-0.0838148444890976,-0.26936402916908264
1772537179899914800,7.840914794921875,-0.6238356232643127,0.2108137458562851,0.27605634927749634
1772537179909963000,7.850962890625,-0.4545117914676666,0.22977305948734283,0.8356770277023315
1772537179920010800,7.8610107421875,-0.30532076954841614,0.07124458253383636,1.296123743057251
1772537179930060000,7.87106005859375,-0.20684665441513062,-0.10253972560167313,1.5999746322631836
1772537179940107800,7.881107666015625,-0.16454988718032837,-0.1408713012933731,1.7422584295272827
1772537179950155800,7.89115576171875,-0.18441201746463776,0.03302565962076187,1.7645241022109985
1772537179960204800,7.901204833984375,-0.2535879909992218,0.3205004930496216,1.6965968608856201
1772537179970252800,7.911252685546875,-0.3323043882846832,0.5729154348373413,1.558376431465149
1772537179980300800,7.92130078125,-0.37756645679473877,0.7467990517616272,1.338059902191162
1772537179990348800,7.931348876953125,-0.3261410593986511,0.8126659393310547,1.0471150875091553
1772537180000397800,7.941397705078125,-0.16292917728424072,0.8007181286811829,0.7494215369224548
1772537180010445800,7.95144580078125,0.05827564001083374,0.7557240128517151,0.552079439163208
1772537180020493800,7.961493896484375,0.2726459801197052,0.7084201574325562,0.4857714772224426
1772537180030542800,7.97154296875,0.4454960525035858,0.7073879241943359,0.5587810277938843
1772537180040590800,7.9815908203125,0.5571191906929016,0.7309839129447937,0.7124565243721008
1772537180050638800,7.991638916015625,0.6007974147796631,0.7986462712287903,0.8644106388092041
1772537180060686800,8.001686767578125,0.5953314900398254,0.8680993914604187,0.9715487957000732
1772537180070736000,8.01173583984375,0.5458760857582092,0.8170279860496521,1.0412133932113647
1772537180080784000,8.021783935546875,0.4467528462409973,0.5699352622032166,1.0963237285614014
1772537180090832000,8.031831787109375,0.2936874032020569,0.14465054869651794,1.0932368040084839
1772537180100880000,8.0418798828125,0.04719152674078941,-0.26154235005378723,1.1292532682418823
1772537180110929400,8.051929443359375,-0.1164674460887909,-0.4805101156234741,1.2304378747940063
1772537180120977700,8.061977783203124,-0.27297672629356384,-0.6156715750694275,1.2781318426132202
1772537180131025700,8.072025634765625,-0.4565015435218811,-0.6897100806236267,1.2735844850540161
1772537180141074700,8.08207470703125,-0.4975958466529846,-0.5866158604621887,1.2561125755310059
1772537180151122700,8.092122802734375,-0.4049907922744751,-0.49883702397346497,1.0962283611297607
1772537180161170400,8.10217041015625,-0.2153867781162262,-0.4205397367477417,0.7790960669517517
1772537180171218700,8.11221875,0.025462046265602112,-0.35451358556747437,0.34493398666381836
1772537180181267500,8.122267333984375,0.26074397563934326,-0.37243974208831787,-0.2052268087863922
1772537180191315700,8.132315673828124,0.45137596130371094,-0.40313372015953064,-0.8408170938491821
1772537180201363500,8.142363525390625,0.5645314455032349,-0.38997453451156616,-1.4933011531829834
1772537180211412700,8.152412841796876,0.5504356026649475,-0.4190323054790497,-2.11946439743042
1772537180221460500,8.16246044921875,0.4252229332923889,-0.44481804966926575,-2.5877392292022705
1772537180231508500,8.172508544921875,0.31394994258880615,-0.19921229779720306,-2.6532156467437744
1772537180241556700,8.182556640625,0.2019822597503662,0.24993404746055603,-2.2402536869049072
1772537180251605500,8.19260546875,0.06062939763069153,0.44069334864616394,-1.701667308807373
1772537180261653800,8.20265380859375,-0.17516949772834778,0.47336119413375854,-1.1824686527252197
1772537180271701500,8.212701416015625,-0.41852062940597534,0.138444721698761,-0.8182387948036194
1772537180281750800,8.222750732421876,-0.666888415813446,-0.467983216047287,-0.6695048809051514
1772537180291798500,8.232798583984374,-0.9393073916435242,-1.0619959831237793,-0.7219047546386719
1772537180301846500,8.242846435546875,-1.172216773033142,-1.2811944484710693,-0.8734515309333801
1772537180311894500,8.25289453125,-1.2889132499694824,-1.117431879043579,-1.0318981409072876
1772537180321943600,8.262943603515625,-1.2837939262390137,-0.881471574306488,-1.133276104927063
1772537180331991600,8.272991455078126,-1.1494823694229126,-0.3881942331790924,-1.173862338066101
1772537180342039600,8.28303955078125,-0.8372235894203186,-0.020412752404808998,-1.156644582748413
1772537180352087600,8.293087646484375,-0.5140263438224792,0.03802232816815376,-1.160516381263733
1772537180362136600,8.303136474609374,-0.2885192632675171,0.023608513176441193,-1.1615674495697021
1772537180372184600,8.3131845703125,-0.13054189085960388,-0.015848346054553986,-1.0455214977264404
1772537180382232600,8.323232666015626,-0.07254727184772491,0.009110657498240471,-0.8173162341117859
1772537180392281600,8.333281494140625,-0.11456982046365738,0.07286939024925232,-0.534958004951477
1772537180402329600,8.34332958984375,-0.24100205302238464,0.12132355570793152,-0.23025470972061157
1772537180412377600,8.353377685546874,-0.3847333788871765,0.18241435289382935,0.07436564564704895
1772537180422425600,8.363425537109375,-0.4707021117210388,0.22197414934635162,0.35977327823638916
1772537180432474600,8.373474609375,-0.5032131671905518,0.2511003613471985,0.6064760088920593
1772537180442522600,8.383522705078125,-0.49847954511642456,0.22961756587028503,0.8047301769256592
1772537180452570600,8.393570556640626,-0.45105528831481934,0.02314508706331253,0.9472122192382812
1772537180462619600,8.40361962890625,-0.37747111916542053,-0.22610409557819366,1.0052258968353271
1772537180472667400,8.41366748046875,-0.25568583607673645,-0.37613433599472046,0.9491587281227112
1772537180482715600,8.423715576171874,-0.05187838152050972,-0.4591151773929596,0.7631186246871948
1772537180492763400,8.433763427734375,0.192062646150589,-0.44091033935546875,0.4643647372722626
1772537180502812700,8.443812744140626,0.3960859775543213,-0.2945759892463684,0.08651988953351974
1772537180512860400,8.4538603515625,0.5127747654914856,-0.039002809673547745,-0.29946908354759216
1772537180522908700,8.46390869140625,0.5353096723556519,0.2573896050453186,-0.6594492197036743
1772537180532956700,8.473956787109374,0.49116382002830505,0.4351007342338562,-0.923224151134491
1772537180543005400,8.48400537109375,0.4284520149230957,0.5269022583961487,-0.9978543519973755
1772537180553053700,8.4940537109375,0.3748135566711426,0.5447582602500916,-0.8552125096321106
1772537180563101400,8.504101318359375,0.35945338010787964,0.47748929262161255,-0.5213980078697205
1772537180573150700,8.514150634765626,0.37739697098731995,0.27463364601135254,-0.048797182738780975
1772537180583198500,8.524198486328125,0.3888859450817108,-0.010382067412137985,0.4394172132015228
1772537180593246500,8.53424658203125,0.3794386386871338,-0.2509877383708954,0.8345922827720642
1772537180603294700,8.544294677734374,0.3863474130630493,-0.3515046238899231,1.1049091815948486
1772537180613343500,8.554343505859375,0.4092559218406677,-0.30086034536361694,1.223523736000061
1772537180623391700,8.564391845703126,0.4132211208343506,-0.11465658247470856,1.205188512802124
1772537180633439500,8.574439453125,0.3887951374053955,0.17368119955062866,1.096266508102417
1772537180643488800,8.58448876953125,0.35619455575942993,0.4805997908115387,0.9707449078559875
1772537180653536500,8.59453662109375,0.3429698348045349,0.7532027959823608,0.8579206466674805
1772537180663584500,8.60458447265625,0.31624266505241394,0.9323915839195251,0.7564602494239807
1772537180673632500,8.614632568359376,0.26607590913772583,0.9167314171791077,0.6801435947418213
1772537180683681500,8.624681640625,0.1901271939277649,0.7481688857078552,0.6671615839004517
1772537180693729500,8.6347294921875,0.09230849891901016,0.5195040702819824,0.6504198908805847
1772537180703777500,8.644777587890625,-0.012718847021460533,0.284281462430954,0.589621901512146
1772537180713826600,8.65482666015625,-0.10082074254751205,0.1123959869146347,0.5058905482292175
1772537180723874600,8.66487451171875,-0.13439667224884033,0.004019963089376688,0.4045944809913635
1772537180733922600,8.674922607421875,-0.10569045692682266,-0.025489727035164833,0.23479397594928741
1772537180743970600,8.684970458984376,-0.044940002262592316,0.03354381397366524,-0.03317355737090111
1772537180754019600,8.69501953125,0.020061898976564407,0.1120482087135315,-0.3936888873577118
1772537180764067600,8.705067626953126,0.05504003167152405,0.11577629297971725,-0.8410602807998657
1772537180774115600,8.715115478515624,0.06631825119256973,0.08431130647659302,-1.2806439399719238
1772537180784163600,8.72516357421875,0.05695106461644173,0.0743217021226883,-1.5822992324829102
1772537180794212600,8.735212646484374,0.0092591792345047,-0.05812821909785271,-1.6715235710144043
1772537180804260600,8.745260498046875,-0.09324108064174652,-0.38621583580970764,-1.514479398727417
1772537180814308600,8.75530859375,-0.09804967790842056,-0.742993950843811,-1.2083287239074707
1772537180824357600,8.765357666015625,0.0706816166639328,-1.0621472597122192,-0.9835112690925598
1772537180834405600,8.775405517578125,0.3304450213909149,-1.6310557126998901,-1.3215374946594238
1772537180844453600,8.78545361328125,0.4573904871940613,-1.5196187496185303,-1.8316928148269653
1772537180854501400,8.79550146484375,0.37657421827316284,-0.8277618885040283,-2.034263849258423
1772537180864550700,8.805550537109376,0.3575235605239868,-0.23595046997070312,-2.034769058227539
1772537180874598400,8.815598388671875,0.4155024290084839,0.1981613039970398,-1.845301866531372
1772537180884646700,8.825646728515625,0.4539715051651001,0.3127087652683258,-1.5272430181503296
1772537180894695400,8.8356953125,0.4822092652320862,0.15290337800979614,-1.191369891166687
1772537180904743700,8.84574365234375,0.4237724542617798,-0.0922887921333313,-0.9552769064903259
1772537180914791700,8.855791748046874,0.20370613038539886,-0.22056980431079865,-0.8321448564529419
1772537180924839400,8.86583935546875,-0.05785388499498367,-0.18314802646636963,-0.7074856162071228
1772537180934888700,8.875888671875,-0.22579069435596466,-0.028082014992833138,-0.5475441217422485
1772537180944936400,8.8859365234375,-0.3008372485637665,0.19877704977989197,-0.29378071427345276
1772537180954984700,8.895984619140625,-0.2880823016166687,0.37847384810447693,0.02149440534412861
1772537180965032700,8.90603271484375,-0.22401005029678345,0.4499085247516632,0.35434550046920776
1772537180975081700,8.916081787109375,-0.1567242294549942,0.4308314919471741,0.5893580317497253
1772537180985129500,8.92612939453125,-0.09583421796560287,0.39727020263671875,0.6910637617111206
1772537180995177500,8.936177490234375,-0.046212337911129,0.3366449177265167,0.6785985827445984
1772537181005226500,8.9462265625,-0.006882574409246445,0.2626587152481079,0.6395930051803589
1772537181015274500,8.9562744140625,0.03138012811541557,0.18899434804916382,0.61747145652771
1772537181025322800,8.96632275390625,0.06920751929283142,0.1386384516954422,0.6183114647865295
1772537181035370500,8.97637060546875,0.12978777289390564,0.13656172156333923,0.6040965914726257
1772537181045419800,8.986419677734375,0.1751175820827484,0.11322344094514847,0.543586790561676
1772537181055467500,8.996467529296876,0.2255546599626541,0.08411136269569397,0.45606088638305664
1772537181065515500,9.006515625,0.30493173003196716,0.06972640007734299,0.3577277660369873
1772537181075564500,9.016564453125,0.3858838379383087,0.12561602890491486,0.2898153066635132
1772537181085612500,9.026612548828124,0.4005091190338135,0.27508753538131714,0.29533204436302185
1772537181095660800,9.036660888671875,0.3635958433151245,0.3407943546772003,0.42155468463897705
1772537181105708500,9.04670849609375,0.35018473863601685,0.16238872706890106,0.6181442141532898
1772537181115757800,9.0567578125,0.3416258990764618,-0.056339893490076065,0.8113692998886108
1772537181125805600,9.0668056640625,0.28932949900627136,-0.052652135491371155,0.9935956001281738
1772537181135853600,9.076853515625,0.20819975435733795,0.016600970178842545,1.2124539613723755
1772537181145901600,9.086901611328125,0.16093726456165314,0.011163407936692238,1.4101462364196777
1772537181155950600,9.09695068359375,0.10663087666034698,-0.08419187366962433,1.5490583181381226
1772537181165998600,9.10699853515625,0.062073949724435806,-0.13070836663246155,1.5819646120071411
1772537181176046600,9.117046630859376,0.053511086851358414,-0.12151460349559784,1.5324852466583252
1772537181186095600,9.127095703125,0.0695251077413559,-0.13259822130203247,1.413495421409607
1772537181196143600,9.1371435546875,0.12816178798675537,-0.044716835021972656,1.2810028791427612
1772537181206191600,9.147191650390624,0.25429630279541016,0.02112814038991928,1.1385917663574219
