time,seconds_elapsed,z,y,x
1772571145185851600,0.1868515625,-0.04773426055908203,-0.003945684991776943,0.0009119510650634766
1772571145203687000,0.20468701171875,-0.04531574249267578,0.0005759662017226219,-0.0014292001724243164
1772571145221522200,0.222522216796875,-0.04090309143066406,-0.0004853922873735428,-0.0017020702362060547
1772571145239357400,0.240357421875,-0.04850196838378906,0.002910682000219822,-0.0006392598152160645
1772571145257192700,0.258192626953125,-0.052041053771972656,-0.0016447072848677635,-0.006348609924316406
1772571145275028000,0.276028076171875,-0.05409049987792969,-0.007825478911399841,0.0000997781753540039
1772571145292863200,0.29386328125,-0.053948402404785156,-0.0063830832950770855,-0.0038161277770996094
1772571145310698500,0.311698486328125,-0.04635429382324219,-0.010887939482927322,-0.007895588874816895
1772571145328533500,0.329533447265625,-0.04423713684082031,-0.005183035973459482,-0.0006682872772216797
1772571145346368800,0.34736865234375,-0.04826068878173828,-0.0009969193488359451,-0.0009918212890625
1772571145364203000,0.365203125,-0.051898956298828125,-0.0030144941993057728,0.0021530985832214355
1772571145382032000,0.383031982421875,-0.039440155029296875,0.0026394259184598923,-0.008078396320343018
1772571145399874000,0.4008740234375,-0.04805183410644531,-0.004163207486271858,0.0026914477348327637
1772571145417707500,0.41870751953125,-0.04523181915283203,-0.0008439375087618828,0.007393181324005127
1772571145435546600,0.436546630859375,-0.04145526885986328,0.002152813598513603,-0.0020279884338378906
1772571145453379800,0.4543798828125,-0.040309906005859375,-0.00759934913367033,-0.0044664740562438965
1772571145471215000,0.472215087890625,-0.050182342529296875,-0.004532427527010441,-0.004997968673706055
1772571145489050400,0.49005029296875,-0.04316234588623047,-0.0075331078842282295,0.00039082765579223633
1772571145506885000,0.507885009765625,-0.048844337463378906,-0.009031259454786777,-0.007782697677612305
1772571145524721000,0.525720947265625,-0.04662513732910156,-0.002176729030907154,-0.005200028419494629
1772571145542555600,0.5435556640625,-0.0523681640625,-0.005243198946118355,-0.008856236934661865
1772571145560389000,0.56138916015625,-0.04610252380371094,-0.005063892342150211,-0.0022530555725097656
1772571145578228000,0.57922802734375,-0.04832267761230469,-0.0014771688729524612,-0.001822829246520996
1772571145596058400,0.597058349609375,-0.041767120361328125,-0.0016911933198571205,-0.0009747147560119629
1772571145613900000,0.614900146484375,-0.044508934020996094,0.00292408000677824,-0.0030871033668518066
1772571145631733200,0.632733154296875,-0.053478240966796875,0.000657164491713047,-0.004862666130065918
1772571145649565200,0.650565185546875,-0.04715919494628906,-0.010506102815270424,-0.007732987403869629
1772571145667401700,0.668401611328125,-0.05338764190673828,-0.0034384457394480705,0.0009447932243347168
1772571145685237000,0.686237060546875,-0.058159828186035156,-0.005036295857280493,-0.005218505859375
1772571145703072300,0.704072265625,-0.04531574249267578,-0.006010536104440689,-0.005130290985107422
1772571145720907300,0.7219072265625,-0.047883033752441406,-0.003218358848243952,-0.004784643650054932
1772571145738742500,0.739742431640625,-0.046278953552246094,0.0023788250982761383,-0.002688765525817871
1772571145756578300,0.757578369140625,-0.049315452575683594,0.00010503735393285751,0.0016679763793945312
1772571145774413600,0.77541357421875,-0.041034698486328125,-0.0001359637826681137,-0.0038800835609436035
1772571145792248600,0.79324853515625,-0.04004669189453125,-0.004118913318961859,-0.0047525763511657715
1772571145810083800,0.811083740234375,-0.04482269287109375,-0.008945688605308533,-0.003186941146850586
1772571145827919000,0.828919189453125,-0.04336071014404297,0.00013137143105268478,-0.007343292236328125
1772571145845753900,0.84675390625,-0.048244476318359375,-0.005659290589392185,-0.0004006624221801758
1772571145863589400,0.86458935546875,-0.04534721374511719,-0.008095689117908478,0.0062901973724365234
1772571145881424100,0.882424072265625,-0.040833473205566406,-0.005333967972546816,-0.0030350685119628906
1772571145899259600,0.900259765625,-0.047911643981933594,-0.008612219244241714,-0.011047959327697754
1772571145917095200,0.91809521484375,-0.04397296905517578,-0.0010762810707092285,0.006603837013244629
1772571145934930200,0.93593017578125,-0.049927711486816406,-0.003919457085430622,0.00037556886672973633
1772571145952765400,0.953765380859375,-0.04025077819824219,-0.0042960187420248985,-0.006268858909606934
1772571145970603500,0.971603515625,-0.049712181091308594,-0.00500490702688694,-0.0056411027908325195
1772571145988435500,0.989435546875,-0.04757881164550781,-0.0008260747417807579,-0.002348780632019043
1772571146006270500,1.0072705078125,-0.036459922790527344,-0.006227647420018911,-0.0009074807167053223
1772571146024106200,1.025106201171875,-0.04184913635253906,-0.0038800081238150597,-0.009448707103729248
1772571146041940700,1.042940673828125,-0.043845176696777344,-0.0056974031031131744,-0.00847858190536499
1772571146059776500,1.060776611328125,-0.041019439697265625,-0.005607618018984795,-0.003843367099761963
1772571146077611800,1.07861181640625,-0.04754924774169922,-0.0026100585237145424,0.004065036773681641
1772571146095447000,1.096447021484375,-0.0431060791015625,-0.004347333684563637,-0.008072376251220703
1772571146113282300,1.1142822265625,-0.04302406311035156,-0.0059137530624866486,-0.002993166446685791
1772571146131117300,1.132117431640625,-0.043869972229003906,-0.004340358544141054,-0.001699686050415039
1772571146148952000,1.1499521484375,-0.047850608825683594,-0.006928975693881512,0.005396068096160889
1772571146166787300,1.167787353515625,-0.045948028564453125,-0.0025959312915802,0.00018829107284545898
1772571146184622600,1.18562255859375,-0.04638862609863281,-0.005223211366683245,-0.006207644939422607
1772571146202457600,1.20345751953125,-0.050724029541015625,0.0008954005315899849,-0.0047335028648376465
1772571146220280300,1.2212802734375,-0.04266071319580078,-0.009018589742481709,-0.003570854663848877
1772571146238115600,1.239115478515625,-0.04131031036376953,-0.003401520662009716,-0.009054303169250488
1772571146255964000,1.2569638671875,-0.03952503204345703,-0.0025336500257253647,0.002071976661682129
1772571146273799000,1.274798828125,-0.034351348876953125,-0.008071132935583591,-0.005938053131103516
1772571146291634400,1.292634521484375,-0.040060997009277344,0.008100423030555248,0.0002548694610595703
1772571146309469700,1.3104697265625,-0.049233436584472656,-0.007813846692442894,-0.005269825458526611
1772571146327304400,1.328304443359375,-0.04172229766845703,-0.007077912334352732,-0.008919060230255127
1772571146345139500,1.346139404296875,-0.04850482940673828,-0.006475694011896849,-0.0046263933181762695
1772571146362974700,1.363974609375,-0.044254302978515625,-0.0041137863881886005,-0.005877315998077393
1772571146380797200,1.381797119140625,-0.04671669006347656,-0.0026858747005462646,-0.0003002285957336426
1772571146398645000,1.39964501953125,-0.049223899841308594,0.00012854207307100296,0.00005924701690673828
1772571146416480500,1.41748046875,-0.04074859619140625,-0.004008368123322725,-0.0013862252235412598
1772571146434315500,1.4353154296875,-0.045905113220214844,-0.005037732422351837,-0.00541234016418457
1772571146452150800,1.45315087890625,-0.03680133819580078,-0.007842399179935455,-0.0025652647018432617
1772571146469985800,1.47098583984375,-0.046291351318359375,-0.0033710096031427383,-0.008427083492279053
1772571146487821000,1.488821044921875,-0.0476837158203125,-0.004315381869673729,-0.003260493278503418
1772571146505656000,1.506656005859375,-0.04384040832519531,-0.005422270856797695,-0.004821658134460449
1772571146523491300,1.5244912109375,-0.04356193542480469,-0.006099569611251354,-0.004662752151489258
1772571146541326600,1.54232666015625,-0.040645599365234375,-0.00823934655636549,-0.0015003085136413574
1772571146559161900,1.560161865234375,-0.03801441192626953,-0.004724983125925064,-0.006272852420806885
1772571146576997000,1.5779970703125,-0.039160728454589844,-0.004168473184108734,-0.0007191300392150879
1772571146594832400,1.595832275390625,-0.044997215270996094,-0.00800381600856781,0.00048363208770751953
1772571146612667600,1.613667724609375,-0.047234535217285156,-0.0002051573246717453,-0.002984941005706787
1772571146630503000,1.6315029296875,-0.05116081237792969,-0.002546444535255432,0.00023615360260009766
1772571146648325400,1.649325439453125,-0.03377342224121094,-0.01053735800087452,-0.005331277847290039
1772571146666173200,1.667173095703125,-0.034671783447265625,-0.0053996192291378975,-0.005744040012359619
1772571146684008700,1.6850087890625,-0.05031013488769531,-0.01188177801668644,0.00007528066635131836
1772571146701830000,1.702829833984375,-0.033618927001953125,-0.004016753751784563,-0.002467334270477295
1772571146719678700,1.7206787109375,-0.0433197021484375,-0.009189598262310028,0.004640698432922363
1772571146737514000,1.738513916015625,-0.044460296630859375,-0.009033091366291046,0.00544130802154541
1772571146755349500,1.756349609375,-0.04335212707519531,-0.005557090509682894,-0.011609256267547607
1772571146773184800,1.774184814453125,-0.047367095947265625,-0.00614312244579196,-0.0030788779258728027
1772571146791020000,1.79202001953125,-0.0448150634765625,-0.0046625141985714436,0.0018169283866882324
1772571146808855000,1.80985498046875,-0.040701866149902344,-0.009786692447960377,0.00028395652770996094
1772571146826690300,1.827690185546875,-0.040877342224121094,-0.007690930273383856,0.003175497055053711
1772571146844525300,1.845525390625,-0.04568767547607422,-0.005474581848829985,-0.0013631582260131836
1772571146862356500,1.8633564453125,-0.046515464782714844,-0.0021594613790512085,-0.010231614112854004
1772571146880195800,1.88119580078125,-0.04332733154296875,-0.0002588937059044838,-0.006743729114532471
1772571146898027500,1.899027587890625,-0.04445457458496094,-0.003546338062733412,-0.005389869213104248
1772571146915870000,1.916869873046875,-0.04374885559082031,-0.006432222202420235,0.002412736415863037
1772571146933698600,1.934698486328125,-0.043025970458984375,-0.003651137463748455,0.004622697830200195
1772571146951539700,1.952539794921875,-0.0482940673828125,-0.000825708732008934,0.000056862831115722656
1772571146969371600,1.97037158203125,-0.04406547546386719,-0.010274406522512436,-0.006037592887878418
1772571146987206700,1.98820654296875,-0.038735389709472656,-0.005949472077190876,-0.002216160297393799
1772571147005042200,2.006042236328125,-0.041728973388671875,-0.003761779982596636,0.0023154616355895996
1772571147022877400,2.02387744140625,-0.033537864685058594,-0.006252113729715347,0.005365312099456787
1772571147069694000,2.07069384765625,-0.041176795959472656,-0.006121220998466015,0.0023311972618103027
1772571147087528400,2.088528564453125,-0.044101715087890625,-0.0012526856735348701,0.006536006927490234
1772571147105364500,2.106364501953125,-0.03984642028808594,-0.004405500367283821,0.003073453903198242
1772571147123199200,2.12419921875,-0.0410003662109375,-0.004975605756044388,0.0028900504112243652
1772571147141034800,2.14203466796875,-0.04410743713378906,-0.005063385237008333,-0.0010513663291931152
1772571147158869500,2.159869384765625,-0.050922393798828125,0.0008057747036218643,-0.001492321491241455
1772571147176705500,2.17770556640625,-0.04384613037109375,0.004591007716953754,-0.0012967586517333984
1772571147194540300,2.195540283203125,-0.04162406921386719,0.0034627793356776237,-0.0003643631935119629
1772571147212376000,2.2133759765625,-0.04421234130859375,-0.004867325536906719,-0.002498328685760498
1772571147230210800,2.2312109375,-0.04537773132324219,-0.004794206935912371,-0.00037801265716552734
1772571147248046600,2.249046630859375,-0.044780731201171875,-0.0019706622697412968,-0.0041498541831970215
1772571147265881000,2.266881103515625,-0.045459747314453125,-0.007347569335252047,-0.0024706125259399414
1772571147283716600,2.284716552734375,-0.046217918395996094,-0.006295142695307732,-0.002134859561920166
1772571147301548500,2.302548583984375,-0.04148578643798828,-0.0032495837658643723,-0.0019652247428894043
1772571147319387000,2.320386962890625,-0.04596519470214844,0.0013133278116583824,-0.0008525848388671875
1772571147337222400,2.338222412109375,-0.04143714904785156,-0.006517560686916113,0.0009682178497314453
1772571147355058000,2.356057861328125,-0.041896820068359375,-0.006018523592501879,0.0036655068397521973
1772571147372892400,2.373892333984375,-0.046677589416503906,-0.006006383802741766,0.0018001198768615723
1772571147390728200,2.391728271484375,-0.04154205322265625,-0.007907841354608536,-0.004520595073699951
1772571147408563000,2.40956298828125,-0.043682098388671875,-0.005168681964278221,0.004319489002227783
1772571147426399000,2.42739892578125,-0.04108142852783203,0.0009584072977304459,0.0015844106674194336
1772571147444233200,2.445233154296875,-0.04120063781738281,-0.002233552746474743,0.002893388271331787
1772571147462071600,2.463071533203125,-0.042359352111816406,-0.0026236996054649353,0.00008970499038696289
1772571147479906800,2.48090673828125,-0.04496479034423828,-0.0016342690214514732,0.0022677183151245117
1772571147497735400,2.4987353515625,-0.044709205627441406,-0.0025233132764697075,0.0043618083000183105
1772571147515578400,2.516578369140625,-0.04873085021972656,0.0013669570907950401,-0.005536079406738281
1772571147533410600,2.53441064453125,-0.04236793518066406,-0.0008792150765657425,0.0008397102355957031
1772571147551244000,2.552244140625,-0.04254341125488281,-0.0025016162544488907,-0.00400012731552124
1772571147569080300,2.570080322265625,-0.04142189025878906,0.0024479255080223083,-0.00022482872009277344
1772571147586915000,2.5879150390625,-0.045958518981933594,-0.00434142118319869,0.003211498260498047
1772571147604750600,2.60575048828125,-0.04307842254638672,-0.008838504552841187,-0.0038112401962280273
1772571147622585600,2.623585693359375,-0.04846000671386719,-0.008787560276687145,0.0015864372253417969
1772571147640421400,2.64142138671875,-0.04230022430419922,-0.009616348892450333,0.0003342628479003906
1772571147658256100,2.659256103515625,-0.039600372314453125,-0.0037284758873283863,-0.0013180375099182129
1772571147676079400,2.677079345703125,-0.03983306884765625,-0.007746445946395397,0.0012186765670776367
1772571147693926700,2.6949267578125,-0.036948204040527344,-0.0036353198811411858,0.002825617790222168
1772571147711762700,2.7127626953125,-0.043511390686035156,-0.004707383923232555,-0.0036890506744384766
1772571147729597200,2.73059716796875,-0.04272174835205078,-0.0013333167880773544,-0.0027930736541748047
1772571147747433000,2.748432861328125,-0.03854179382324219,0.0014299070462584496,-0.005573868751525879
1772571147765267500,2.766267333984375,-0.044884681701660156,0.0007483083754777908,-0.000341951847076416
1772571147783103200,2.784103271484375,-0.038867950439453125,-0.0010605351999402046,0.004015743732452393
1772571147800937700,2.801937744140625,-0.04493904113769531,-0.00661761499941349,0.0034835338592529297
1772571147818774000,2.81977392578125,-0.04360198974609375,0.0006088092923164368,0.003258824348449707
1772571147836608500,2.8376083984375,-0.040493011474609375,0.004121375270187855,0.003999531269073486
1772571147854444300,2.8554443359375,-0.04523181915283203,0.0023899152874946594,0.0042912960052490234
1772571147872279300,2.873279296875,-0.0447998046875,-0.003787163645029068,0.0030212998390197754
1772571147890115000,2.891114990234375,-0.047028541564941406,-0.005972144193947315,0.0013506412506103516
1772571147907949300,2.90894921875,-0.0439605712890625,-0.004089311696588993,0.00009894371032714844
1772571147925785000,2.92678515625,-0.04464435577392578,-0.00024043582379817963,0.00011682510375976562
1772571147943620000,2.9446201171875,-0.045897483825683594,-0.004222951829433441,-0.0014663338661193848
1772571147961455600,2.96245556640625,-0.051939964294433594,-0.007251822389662266,0.0024453401565551758
1772571147979290600,2.98029052734375,-0.04585075378417969,0.000629674643278122,0.0015802979469299316
1772571147997126100,2.998126220703125,-0.0408782958984375,-0.006730622611939907,-0.0006507039070129395
1772571148014961200,3.015961181640625,-0.04238605499267578,-0.0019970545545220375,-0.00011551380157470703
1772571148032796700,3.033796630859375,-0.0414886474609375,-0.0024458765983581543,0.006026089191436768
1772571148050631200,3.051631103515625,-0.045413970947265625,-0.005349820479750633,0.005806386470794678
1772571148068467000,3.069467041015625,-0.042601585388183594,-0.0043051643297076225,0.008165240287780762
1772571148086301700,3.0873017578125,-0.04152393341064453,-0.004553181119263172,0.005541503429412842
1772571148104127700,3.105127685546875,-0.04249858856201172,-0.006801133044064045,0.006948947906494141
1772571148121972200,3.12297216796875,-0.04085826873779297,-0.0006836876273155212,0.007480025291442871
1772571148139807700,3.140807861328125,-0.046448707580566406,-0.0038047926500439644,0.0011903643608093262
1772571148157643000,3.15864306640625,-0.05022239685058594,-0.009987525641918182,0.00030034780502319336
1772571148175478800,3.176478759765625,-0.044457435607910156,-0.006255167070776224,0.005388796329498291
1772571148193313300,3.194313232421875,-0.051731109619140625,-0.00462019257247448,0.0031464695930480957
1772571148211149300,3.2121494140625,-0.048768043518066406,-0.0033559175208210945,0.003913938999176025
1772571148228984000,3.229984130859375,-0.04767036437988281,0.003430156037211418,0.0017303228378295898
1772571148246819800,3.24781982421875,-0.044582366943359375,-0.0031045787036418915,0.0037087202072143555
1772571148264654300,3.265654296875,-0.049468994140625,0.00458518136292696,-0.0030506253242492676
1772571148282489900,3.28348974609375,-0.05069732666015625,-0.0017431839369237423,-0.004076778888702393
1772571148300324900,3.301324951171875,-0.04097270965576172,-0.0038817264139652252,0.0027344822883605957
1772571148318145300,3.319145263671875,-0.05006599426269531,-0.006390614900738001,-0.004910469055175781
1772571148335986200,3.336986083984375,-0.04964923858642578,-0.004635117016732693,0.005536556243896484
1772571148353834000,3.354833984375,-0.04665851593017578,0.0006515160202980042,0.004128515720367432
1772571148371665700,3.372665771484375,-0.048478126525878906,-0.007493997924029827,-0.001990675926208496
1772571148389501400,3.39050146484375,-0.04940509796142578,-0.006886988878250122,0.0029734373092651367
1772571148407336200,3.408336181640625,-0.04662036895751953,-0.007522190921008587,0.001912534236907959
1772571148425172000,3.426171875,-0.046196937561035156,-0.0059424578212201595,0.0005985498428344727
1772571148443006500,3.44400634765625,-0.053112030029296875,-0.005655978340655565,-0.001507580280303955
1772571148460842800,3.4618427734375,-0.04715728759765625,-0.0026525291614234447,0.002614617347717285
1772571148478677000,3.479677001953125,-0.046257972717285156,-0.0051502808928489685,0.0003389120101928711
1772571148496513300,3.49751318359375,-0.05310535430908203,0.0013210400938987732,0.004035294055938721
1772571148514347800,3.51534765625,-0.05008506774902344,0.0010475032031536102,0.0006236433982849121
1772571148532183800,3.533183837890625,-0.050772666931152344,-0.0035982681438326836,0.004291713237762451
1772571148550018000,3.55101806640625,-0.04681396484375,-0.0027598245069384575,-0.0003910064697265625
1772571148567853600,3.568853515625,-0.049780845642089844,-0.004416286014020443,-0.00008469820022583008
1772571148585679000,3.58667919921875,-0.05005645751953125,-0.0005719056352972984,-0.0013873577117919922
1772571148603524400,3.6045244140625,-0.04961681365966797,-0.0009959852322936058,0.00373232364654541
1772571148621359400,3.622359375,-0.0524749755859375,-0.0038621332496404648,0.0016025900840759277
1772571148639190300,3.640190185546875,-0.04932117462158203,-0.004177310969680548,0.003962337970733643
1772571148657030000,3.65802978515625,-0.047710418701171875,-0.008171625435352325,0.010225236415863037
1772571148674865400,3.675865478515625,-0.05331897735595703,-0.008872942999005318,0.0002097487449645996
1772571148692700400,3.693700439453125,-0.05237007141113281,-0.0008686212822794914,0.003696143627166748
1772571148710536000,3.711535888671875,-0.04930305480957031,-0.0007592020556330681,0.004227042198181152
1772571148728370700,3.72937060546875,-0.0553436279296875,-0.0037453779950737953,0.006230056285858154
1772571148746206700,3.747206787109375,-0.04456138610839844,-0.0053890543058514595,0.0018347501754760742
1772571148764041500,3.76504150390625,-0.05106639862060547,-0.007701496127992868,0.006115138530731201
1772571148781877000,3.782876953125,-0.050919532775878906,-0.0034964364022016525,0.0010178685188293457
1772571148799709400,3.80070947265625,-0.053824424743652344,-0.0010465281084179878,0.007288694381713867
1772571148817549800,3.8185498046875,-0.04613685607910156,-0.008870666846632957,0.006358504295349121
1772571148835382500,3.836382568359375,-0.04608631134033203,-0.00892035011202097,-0.0005512833595275879
1772571148853217800,3.8542177734375,-0.04836082458496094,-0.0009928923100233078,-0.000303804874420166
1772571148871052300,3.87205224609375,-0.04642295837402344,-0.007751687429845333,0.0007314085960388184
1772571148888888000,3.88988818359375,-0.05424308776855469,-0.004749284125864506,0.0013751387596130371
1772571148906723000,3.90772314453125,-0.05431175231933594,-0.002477390691637993,0.00006699562072753906
1772571148924558800,3.925558837890625,-0.055438995361328125,-0.010923615656793118,0.0006656050682067871
1772571148942393600,3.9433935546875,-0.054488182067871094,-0.0035604755394160748,0.0028299689292907715
1772571148960229000,3.96122900390625,-0.05320930480957031,-0.004179117735475302,0.0025550127029418945
1772571148978064400,3.979064453125,-0.053005218505859375,-0.004350429400801659,-0.0017377138137817383
1772571148995900200,3.996900146484375,-0.05411052703857422,-0.004230789840221405,-0.0035657882690429688
1772571149013735000,4.01473486328125,-0.052483558654785156,-0.000045697204768657684,0.0018873214721679688
1772571149031570400,4.0325703125,-0.049968719482421875,-0.0007029641419649124,0.002815544605255127
1772571149049405200,4.0504052734375,-0.040322303771972656,0.0019035795703530312,0.0051392316818237305
1772571149067240000,4.068239990234375,-0.05624580383300781,-0.0005582673475146294,-0.0015006661415100098
1772571149085076000,4.086075927734375,-0.05393218994140625,0.0018538273870944977,-0.004374682903289795
1772571149102911500,4.103911376953125,-0.05421733856201172,-0.0008278535678982735,0.003705620765686035
1772571149120746000,4.12174609375,-0.05717945098876953,-0.0012355800718069077,-0.003921031951904297
1772571149138580000,4.139580078125,-0.05727100372314453,-0.008286837488412857,0.0027144551277160645
1772571149156416800,4.157416748046875,-0.04773235321044922,-0.0005485378205776215,0.004054248332977295
1772571149174252500,4.17525244140625,-0.04857158660888672,0.0015643173828721046,0.003275573253631592
1772571149192087300,4.19308740234375,-0.04755973815917969,-0.009202694520354271,-0.0020779967308044434
1772571149209923300,4.21092333984375,-0.053264617919921875,0.00014981813728809357,0.003639400005340576
1772571149227757800,4.2287578125,-0.054121971130371094,-0.00429090391844511,0.00490337610244751
1772571149245590300,4.24659033203125,-0.053605079650878906,-0.003291443921625614,0.0010771751403808594
1772571149263431200,4.26443115234375,-0.04832935333251953,-0.005858650431036949,0.005230724811553955
1772571149281263900,4.282263916015625,-0.05629253387451172,-0.005158859305083752,0.0027469396591186523
1772571149299095800,4.300095703125,-0.05862998962402344,-0.0010683713480830193,-0.002434968948364258
1772571149316937000,4.31793701171875,-0.05377483367919922,0.0007270611822605133,-0.0015917420387268066
1772571149334769200,4.33576904296875,-0.05416584014892578,-0.003681621979922056,0.0012519359588623047
1772571149352604400,4.3536044921875,-0.05423450469970703,-0.0021834620274603367,0.0029907822608947754
1772571149370439400,4.371439453125,-0.057178497314453125,-0.00509246252477169,0.0005018115043640137
1772571149388275200,4.389275146484375,-0.05177879333496094,-0.003514588810503483,0.003102540969848633
1772571149406109700,4.407109619140625,-0.058597564697265625,0.0020220205187797546,0.003146529197692871
1772571149423945500,4.424945556640625,-0.049063682556152344,-0.007033782545477152,-0.000672459602355957
1772571149441780200,4.4427802734375,-0.05231952667236328,-0.0036680838093161583,0.0025931596755981445
1772571149459616300,4.4606162109375,-0.05736541748046875,-0.0018351469188928604,0.0037996768951416016
1772571149477451000,4.478450927734375,-0.054718017578125,-0.0057862428948283195,-0.002481520175933838
1772571149495287000,4.496287109375,-0.059014320373535156,-0.0050863707438111305,0.0021734237670898438
1772571149513121800,4.514121826171875,-0.04796123504638672,-0.002052287571132183,0.002223193645477295
1772571149530957300,4.531957275390625,-0.046295166015625,-0.008647998794913292,0.001206517219543457
1772571149548791800,4.549791748046875,-0.05302906036376953,-0.002565103117376566,-0.0000642538070678711
1772571149566615000,4.567614990234375,-0.047410011291503906,-0.004599925596266985,0.0020442605018615723
1772571149584462800,4.585462890625,-0.05025959014892578,-0.0069748032838106155,0.002068817615509033
1772571149602298000,4.603298095703125,-0.05069160461425781,0.003914330154657364,0.0009576678276062012
1772571149620133000,4.621133056640625,-0.054823875427246094,-0.0033632516860961914,0.00201338529586792
1772571149637956400,4.638956298828125,-0.052524566650390625,-0.010303960181772709,0.0007717013359069824
1772571149655803400,4.656803466796875,-0.053455352783203125,-0.007848931476473808,-0.0009428262710571289
1772571149673640200,4.67464013671875,-0.054083824157714844,-0.005348165985196829,-0.005272924900054932
1772571149691473000,4.692472900390625,-0.05076313018798828,-0.00711564626544714,-0.0019320249557495117
1772571149709309400,4.710309326171875,-0.05025768280029297,-0.003284263424575329,-0.0026200413703918457
1772571149727144400,4.72814453125,-0.060237884521484375,-0.001480691134929657,0.002081930637359619
1772571149744980000,4.74597998046875,-0.04912090301513672,-0.005280204117298126,0.0007086992263793945
1772571149762814700,4.763814697265625,-0.050782203674316406,-0.004671764560043812,-0.0043370723724365234
1772571149780650500,4.781650390625,-0.05430126190185547,-0.0016744444146752357,-0.0004342198371887207
1772571149798485200,4.7994853515625,-0.04378318786621094,-0.003018462099134922,-0.0005514025688171387
1772571149816321000,4.817321044921875,-0.05211830139160156,-0.0014012311585247517,0.0033122897148132324
1772571149834155800,4.83515576171875,-0.053379058837890625,-0.00235987501218915,0.00501704216003418
1772571149851991300,4.8529912109375,-0.05582427978515625,-0.0030568991787731647,-0.0020493268966674805
1772571149869825800,4.87082568359375,-0.06026744842529297,-0.00027171336114406586,-0.0030990242958068848
1772571149887661800,4.888661865234375,-0.061278343200683594,-0.006090579088777304,-0.0009101629257202148
1772571149905496300,4.906496337890625,-0.050515174865722656,-0.005689734127372503,0.0011439919471740723
1772571149923332400,4.924332275390625,-0.053585052490234375,0.0013038888573646545,-0.0016624927520751953
1772571149941154600,4.942154541015625,-0.04754638671875,-0.0045257313176989555,-0.00350344181060791
1772571149959002600,4.960002685546875,-0.05313873291015625,-0.005596470087766647,0.0000826716423034668
1772571149976837600,4.977837646484375,-0.0619659423828125,-0.005305202212184668,-0.003275275230407715
1772571149994673400,4.99567333984375,-0.05465507507324219,-0.005940805189311504,0.004548788070678711
1772571150012508200,5.013508056640625,-0.053071022033691406,-0.002133370377123356,-0.0027067065238952637
1772571150030344000,5.031343994140625,-0.05510997772216797,0.004125870764255524,-0.0030832886695861816
1772571150048178400,5.049178466796875,-0.05834484100341797,-0.0024398891255259514,-0.0027688145637512207
1772571150066014500,5.067014404296875,-0.054780006408691406,-0.0028642993420362473,0.0032578110694885254
1772571150083848700,5.0848486328125,-0.05080986022949219,-0.000008896924555301666,-0.0016605257987976074
1772571150101684700,5.102684814453125,-0.05312824249267578,-0.005381016060709953,0.004496634006500244
1772571150119519000,5.12051904296875,-0.0564117431640625,-0.0032850801944732666,0.00038236379623413086
1772571150137355300,5.138355224609375,-0.05220222473144531,0.00004663504660129547,-0.003091275691986084
1772571150155189800,5.156189697265625,-0.05334758758544922,-0.0036984840407967567,-0.0025600194931030273
1772571150173025300,5.174025390625,-0.0558013916015625,-0.004847017116844654,0.0016779899597167969
1772571150190860000,5.191860107421875,-0.05503654479980469,-0.006023675203323364,-0.002852499485015869
1772571150208696000,5.209696044921875,-0.054923057556152344,-0.0034234290942549706,-0.000583648681640625
1772571150226530600,5.227530517578125,-0.05376911163330078,-0.00037377048283815384,-0.00020992755889892578
1772571150244366000,5.245365966796875,-0.057659149169921875,-0.0016642538830637932,-0.0059618353843688965
1772571150262199600,5.263199462890625,-0.057244300842285156,-0.0036592152900993824,0.00002181529998779297
1772571150280036600,5.28103662109375,-0.05234336853027344,-0.0012194858863949776,0.000057816505432128906
1772571150297871600,5.29887158203125,-0.05503082275390625,-0.0017609558999538422,0.002278625965118408
1772571150315707400,5.316707275390625,-0.05464744567871094,-0.00594172952696681,0.002648651599884033
1772571150333542100,5.334542236328125,-0.05426311492919922,0.001582886092364788,0.0012667179107666016
1772571150351377700,5.352377685546875,-0.052414894104003906,-0.001469828188419342,0.0016328096389770508
1772571150369199900,5.370199951171875,-0.05454254150390625,-0.0018709618598222733,0.0015108585357666016
1772571150387048200,5.388048095703125,-0.04967308044433594,-0.003842344507575035,0.0016597509384155273
1772571150404873700,5.405873779296875,-0.052969932556152344,-0.0022550909779965878,-0.005812227725982666
1772571150422718500,5.423718505859375,-0.053460121154785156,0.003840605728328228,-0.003033459186553955
1772571150440537300,5.441537353515625,-0.051749229431152344,-0.0032210866920650005,-0.0025919079780578613
1772571150458389200,5.45938916015625,-0.05149269104003906,-0.003245131578296423,-0.003618299961090088
1772571150476224000,5.47722412109375,-0.05730915069580078,-0.0033562537282705307,0.0022066235542297363
1772571150494059800,5.495059814453125,-0.05006122589111328,-0.003426056355237961,-0.001711726188659668
1772571150511894300,5.512894287109375,-0.058203697204589844,-0.0003586672246456146,-0.0020334720611572266
1772571150529730000,5.53072998046875,-0.0513153076171875,-0.0005910312756896019,0.002016901969909668
1772571150547564800,5.548564697265625,-0.05435752868652344,-0.002856263890862465,-0.004584848880767822
1772571150565400600,5.566400634765625,-0.05659770965576172,-0.001981133595108986,-0.005060315132141113
1772571150583235000,5.584235107421875,-0.05693626403808594,-0.0023032454773783684,-0.004644572734832764
1772571150601070600,5.602070556640625,-0.05925273895263672,-0.003177618607878685,-0.0011834502220153809
1772571150618905600,5.619905517578125,-0.05553627014160156,-0.010779064148664474,-0.0007564425468444824
1772571150636741400,5.637741455078125,-0.05154895782470703,-0.00443719606846571,0.0013679265975952148
1772571150654572500,5.655572509765625,-0.05436515808105469,-0.0012563560158014297,-0.0033795833587646484
1772571150672414700,5.673414794921875,-0.05706501007080078,-0.0060615865513682365,-0.004123210906982422
1772571150690246100,5.69124609375,-0.057473182678222656,-0.004854254424571991,-0.00019085407257080078
1772571150708082000,5.70908203125,-0.0570526123046875,-0.005319555290043354,-0.0024245381355285645
1772571150725916400,5.72691650390625,-0.05632209777832031,-0.002623911015689373,-0.0041915178298950195
1772571150743752400,5.74475244140625,-0.05214881896972656,-0.005121746100485325,-0.001561284065246582
1772571150761587000,5.7625869140625,-0.058498382568359375,-0.0006470652297139168,-0.0012226104736328125
1772571150779423000,5.780423095703125,-0.059462547302246094,-0.007842724211513996,-0.0029076337814331055
1772571150797257700,5.7982578125,-0.05553913116455078,-0.0031217499636113644,0.0025498270988464355
1772571150815093500,5.816093505859375,-0.05493640899658203,-0.0045799692161381245,-0.000843048095703125
1772571150832928300,5.83392822265625,-0.05597209930419922,-0.007638235576450825,-0.0004233717918395996
1772571150850763300,5.85176318359375,-0.050937652587890625,-0.003907877951860428,-0.0013710260391235352
1772571150868586000,5.8695859375,-0.05538463592529297,0.0007211687043309212,-0.0019788742065429688
1772571150886434300,5.887434326171875,-0.058979034423828125,-0.007745086215436459,0.0008034110069274902
1772571150904258600,5.905258544921875,-0.0525360107421875,-0.009577042423188686,0.00007170438766479492
1772571150922104600,5.9231044921875,-0.055121421813964844,-0.0029040933586657047,-0.006105005741119385
1772571150939939000,5.94093896484375,-0.06072235107421875,-0.006320937070995569,-0.003285050392150879
1772571150957775000,5.958775146484375,-0.05571937561035156,-0.007561776787042618,0.0022969841957092285
1772571150975609900,5.97660986328125,-0.059029579162597656,-0.008492568507790565,-0.004879653453826904
1772571150993442600,5.994442626953125,-0.04963207244873047,0.0001459214836359024,-0.0005834102630615234
1772571151011283200,6.012283203125,-0.05291461944580078,-0.0004993434995412827,-0.004086971282958984
1772571151029116000,6.030115966796875,-0.05682659149169922,-0.005560855846852064,-0.003427743911743164
1772571151046950100,6.0479501953125,-0.055812835693359375,-0.005440497770905495,0.0028648972511291504
1772571151064786400,6.065786376953125,-0.06020164489746094,-0.0037069786339998245,-0.00036770105361938477
1772571151082621000,6.083620849609375,-0.06086540222167969,-0.011087043210864067,0.002056419849395752
1772571151100453600,6.10145361328125,-0.05575084686279297,-0.008929545059800148,0.0014907121658325195
1772571151118294000,6.1192939453125,-0.057247161865234375,-0.006999395787715912,0.001970231533050537
1772571151136125700,6.137125732421875,-0.05812358856201172,-0.009966875426471233,-0.002660691738128662
1772571151153962500,6.15496240234375,-0.05416679382324219,-0.00726708397269249,-0.002066195011138916
1772571151171797200,6.17279736328125,-0.05649757385253906,-0.005172640550881624,0.0010569095611572266
1772571151189632000,6.190632080078125,-0.056194305419921875,-0.005648542661219835,-0.0015206336975097656
1772571151207467500,6.208467529296875,-0.05501747131347656,-0.0028091268613934517,-0.0017992258071899414
1772571151225302000,6.226302001953125,-0.06068897247314453,-0.0044115767814219,-0.0006812214851379395
1772571151243138000,6.244137939453125,-0.05976581573486328,-0.0053721521981060505,-0.004481136798858643
1772571151260972800,6.261972900390625,-0.0573577880859375,-0.008756504394114017,-0.00378340482711792
1772571151278808300,6.279808349609375,-0.055214881896972656,0.0005459766834974289,-0.0006277561187744141
1772571151296643000,6.29764306640625,-0.053750038146972656,-0.004083277657628059,-0.004277944564819336
1772571151314478800,6.315478759765625,-0.05581951141357422,-0.002755007240921259,0.00015473365783691406
1772571151332313600,6.333313720703125,-0.05386066436767578,-0.00358999939635396,0.00024276971817016602
1772571151350149600,6.351149658203125,-0.05877113342285156,-0.0031854840926826,0.003318309783935547
1772571151367983900,6.36898388671875,-0.057231903076171875,-0.008925455622375011,0.0007288455963134766
1772571151385819600,6.386819580078125,-0.05455780029296875,-0.009546400047838688,0.0002473592758178711
1772571151403654400,6.404654296875,-0.05186653137207031,0.0002878047525882721,0.002896904945373535
1772571151421490200,6.422490234375,-0.054383277893066406,-0.002165160607546568,0.0014886856079101562
1772571151439324700,6.44032470703125,-0.05589866638183594,-0.0013641752302646637,-0.0016893744468688965
1772571151457160700,6.45816064453125,-0.056610107421875,-0.004420711658895016,-0.0040474534034729
1772571151474995200,6.4759951171875,-0.05802726745605469,-0.0006090356037020683,0.002264082431793213
1772571151492831000,6.4938310546875,-0.06116676330566406,-0.0039323074743151665,-0.006647348403930664
1772571151510652700,6.511652587890625,-0.059845924377441406,-0.0021802205592393875,-0.0023124217987060547
1772571151528489500,6.529489501953125,-0.05493354797363281,-0.004489329177886248,0.005289435386657715
1772571151546336300,6.547336181640625,-0.050772666931152344,-0.004426675848662853,0.0016297101974487305
1772571151564170000,6.565169921875,-0.060050010681152344,-0.008879372850060463,-0.007069408893585205
1772571151581999000,6.5829990234375,-0.058544158935546875,0.0003431970253586769,-0.001178145408630371
1772571151599841500,6.600841552734375,-0.051975250244140625,-0.00595760578289628,-0.0032892823219299316
1772571151617673500,6.618673583984375,-0.05959892272949219,-0.004287452436983585,-0.0034876465797424316
1772571151635515400,6.636515380859375,-0.054419517517089844,-0.001131533645093441,-0.003473818302154541
1772571151653346800,6.654346923828125,-0.055919647216796875,-0.0053181033581495285,-0.00039511919021606445
1772571151671182600,6.6721826171875,-0.05612945556640625,-0.002846299670636654,-0.0013545751571655273
1772571151689017000,6.69001708984375,-0.06021881103515625,-0.00483500212430954,0.0013551115989685059
1772571151706852900,6.707852783203125,-0.05449104309082031,-0.01211849320679903,0.000917971134185791
1772571151724687600,6.7256875,-0.059479713439941406,-0.004250170662999153,-0.0019289255142211914
1772571151742523100,6.743523193359375,-0.054871559143066406,-0.004092111252248287,-0.00582963228225708
1772571151760358000,6.76135791015625,-0.058879852294921875,-0.005237521603703499,-0.003588557243347168
1772571151778193700,6.779193603515625,-0.051354408264160156,-0.006507189944386482,0.0006667375564575195
1772571151796028400,6.7970283203125,-0.05720710754394531,-0.004181092604994774,-0.003315269947052002
1772571151813864200,6.8148642578125,-0.053383827209472656,-0.002259909175336361,0.00018864870071411133
1772571151831699000,6.832698974609375,-0.054581642150878906,-0.0036956043913960457,-0.0005849599838256836
1772571151849534500,6.850534423828125,-0.054103851318359375,0.0006502754986286163,-0.004942119121551514
1772571151867369200,6.868369140625,-0.05467700958251953,-0.00311972014605999,-0.0016118884086608887
1772571151885205200,6.886205322265625,-0.05476093292236328,-0.0024966266937553883,0.004693448543548584
1772571151903039500,6.90403955078125,-0.053646087646484375,-0.0014510396867990494,-0.000030338764190673828
1772571151920875000,6.921875,-0.05346393585205078,-0.007030680309981108,0.0001551508903503418
1772571151938709800,6.939709716796875,-0.055716514587402344,-0.0020731370896101,-0.00313645601272583
1772571151956545800,6.9575458984375,-0.056056976318359375,-0.006373581010848284,-0.0013655424118041992
1772571151974380000,6.975380126953125,-0.054973602294921875,-0.0027742190286517143,0.0030112862586975098
1772571151992215800,6.9932158203125,-0.05188560485839844,-0.00481937313452363,0.0007417201995849609
1772571152010050300,7.01105029296875,-0.05206489562988281,-0.006277177482843399,-0.0019249916076660156
1772571152027886000,7.028885986328125,-0.05322742462158203,-0.004206045996397734,-0.0023686885833740234
1772571152045720800,7.046720947265625,-0.0545501708984375,-0.0021627587266266346,0.0017900466918945312
1772571152063556600,7.064556640625,-0.050689697265625,0.00031378772109746933,-0.0016083121299743652
1772571152081391400,7.082391357421875,-0.054169654846191406,-0.0017824601382017136,0.004250466823577881
1772571152099227100,7.10022705078125,-0.05064964294433594,-0.003711070865392685,0.00019872188568115234
1772571152117061600,7.1180615234375,-0.052359580993652344,-0.007468951400369406,0.00014972686767578125
1772571152134897400,7.1358974609375,-0.04969501495361328,-0.0006342194974422455,-0.00209963321685791
1772571152152732000,7.15373193359375,-0.05108356475830078,-0.00007179006934165955,-0.005291461944580078
1772571152170567400,7.1715673828125,-0.055991172790527344,-0.002310609444975853,0.000986635684967041
1772571152188402200,7.189402099609375,-0.05722332000732422,-0.006805216893553734,0.0001823902130126953
1772571152206238000,7.207238037109375,-0.053985595703125,0.0006965240463614464,-0.005339860916137695
1772571152224069000,7.225069091796875,-0.05756855010986328,-0.00922355242073536,-0.0019190311431884766
1772571152241895700,7.242895751953125,-0.05517387390136719,0.002096257172524929,-0.002770662307739258
1772571152259743500,7.260743408203125,-0.04668140411376953,-0.0027142874896526337,-0.002533853054046631
1772571152277578800,7.278578857421875,-0.049462318420410156,-0.0081876739859581,-0.0029023289680480957
1772571152295413500,7.29641357421875,-0.04989814758300781,-0.003113322425633669,0.001359403133392334
1772571152313249300,7.314249267578125,-0.048831939697265625,-0.0032848166301846504,-0.0026329755783081055
1772571152331083800,7.332083740234375,-0.04687976837158203,-0.005017041228711605,-0.0015164613723754883
1772571152348919600,7.34991943359375,-0.04479789733886719,-0.008164407685399055,-0.0013355016708374023
1772571152366753800,7.36775390625,-0.048050880432128906,-0.001565367914736271,-0.0025461316108703613
1772571152384589800,7.38558984375,-0.04740715026855469,-0.0018810559995472431,-0.008542835712432861
1772571152402424300,7.40342431640625,-0.048431396484375,-0.0036982856690883636,0.00019061565399169922
1772571152420260400,7.42126025390625,-0.05151939392089844,-0.004233817104250193,-0.0030443668365478516
1772571152438082300,7.439082275390625,-0.042082786560058594,-0.0010536490008234978,-0.0016524195671081543
1772571152455930000,7.45693017578125,-0.05282783508300781,-0.002213628962635994,-0.0028032660484313965
1772571152473764600,7.4747646484375,-0.048122406005859375,-0.004146785009652376,-0.007586061954498291
1772571152491600600,7.4926005859375,-0.03735637664794922,0.001420857384800911,-0.0021448731422424316
1772571152509435100,7.51043505859375,-0.05506610870361328,-0.0028022308833897114,-0.002991020679473877
1772571152527271200,7.528271240234375,-0.05256080627441406,-0.003389507532119751,0.00004738569259643555
1772571152545105700,7.546105712890625,-0.060790061950683594,-0.0026670247316360474,0.0028961896896362305
1772571152562941700,7.563941650390625,-0.04935646057128906,0.00018164236098527908,0.0025678277015686035
1772571152580770800,7.581770751953125,-0.044048309326171875,0.004710380919277668,-0.0016280412673950195
1772571152598611500,7.599611572265625,-0.05249786376953125,0.0001528458669781685,0.001650989055633545
