time,seconds_elapsed,z,y,x
1772537120880247000,0.0702470703125,-1.539031982421875,-0.4938201904296875,0.204254150390625
1772537120890296000,0.080296142578125,-1.700164794921875,-0.529693603515625,0.274139404296875
1772537120900344000,0.090343994140625,-1.8264617919921875,-0.533203125,0.325408935546875
1772537120910392000,0.10039208984375,-1.8699493408203125,-0.5386810302734375,0.3459930419921875
1772537120920441000,0.110441162109375,-1.9353485107421875,-0.537445068359375,0.31304931640625
1772537120930489000,0.120489013671875,-1.942169189453125,-0.547698974609375,0.330291748046875
1772537120940537000,0.130537109375,-1.9849853515625,-0.5445404052734375,0.3721466064453125
1772537120950586000,0.140586181640625,-1.9629058837890625,-0.6192779541015625,0.48931884765625
1772537120960634000,0.150634033203125,-1.9788665771484375,-0.699371337890625,0.552490234375
1772537120970682000,0.16068212890625,-2.0094757080078125,-0.6892852783203125,0.522918701171875
1772537120980731100,0.170731201171875,-1.951446533203125,-0.6727447509765625,0.458770751953125
1772537120990779100,0.180779052734375,-1.9073486328125,-0.679534912109375,0.348114013671875
1772537121000827100,0.1908271484375,-1.877166748046875,-0.6844940185546875,0.23565673828125
1772537121010876200,0.200876220703125,-1.826629638671875,-0.6616363525390625,0.114837646484375
1772537121020924200,0.210924072265625,-1.7779083251953125,-0.58782958984375,0.0223236083984375
1772537121030972000,0.220971923828125,-1.6583709716796875,-0.493408203125,-0.0077362060546875
1772537121041021200,0.231021240234375,-1.48431396484375,-0.405426025390625,0.0072021484375
1772537121051069000,0.24106884765625,-1.3504486083984375,-0.3242950439453125,0.0464019775390625
1772537121061117200,0.2511171875,-1.2001953125,-0.24920654296875,0.0718536376953125
1772537121071166000,0.261166015625,-1.080352783203125,-0.1876678466796875,0.080322265625
1772537121081214200,0.271214111328125,-0.9500885009765625,-0.140411376953125,0.0717010498046875
1772537121091262200,0.28126220703125,-0.8006134033203125,-0.0873870849609375,0.0531005859375
1772537121101311200,0.291311279296875,-0.6710052490234375,-0.026947021484375,0.051483154296875
1772537121111359200,0.301359130859375,-0.546356201171875,0.0470733642578125,0.0568084716796875
1772537121121407000,0.311406982421875,-0.42816162109375,0.1183319091796875,0.0318145751953125
1772537121131456300,0.321456298828125,-0.3041229248046875,0.1662750244140625,0.035064697265625
1772537121141504000,0.33150390625,-0.181610107421875,0.1918792724609375,0.032958984375
1772537121151552300,0.34155224609375,-0.0841217041015625,0.2105712890625,0.0233306884765625
1772537121161601000,0.35160107421875,-0.005523681640625,0.20513916015625,0.03594970703125
1772537121171649300,0.361649169921875,0.0515899658203125,0.1748809814453125,0.047943115234375
1772537121181697000,0.371697021484375,0.1060638427734375,0.12890625,0.045745849609375
1772537121191746000,0.38174609375,0.149993896484375,0.0852508544921875,0.050628662109375
1772537121201794000,0.3917939453125,0.17413330078125,0.054718017578125,0.0528717041015625
1772537121211843000,0.401843017578125,0.19970703125,0.022979736328125,0.053985595703125
1772537121221891000,0.41189111328125,0.24566650390625,-0.012420654296875,0.0637054443359375
1772537121231939000,0.42193896484375,0.2588958740234375,-0.0411834716796875,0.053314208984375
1772537121241988000,0.431988037109375,0.2412109375,-0.0395660400390625,0.037445068359375
1772537121252036000,0.4420361328125,0.2250518798828125,-0.0090484619140625,-0.01336669921875
1772537121262084000,0.452083984375,0.255340576171875,0.0421295166015625,0.0160980224609375
1772537121272133000,0.462133056640625,0.2244415283203125,-0.011505126953125,-0.0004119873046875
1772537121282181000,0.47218115234375,0.122314453125,-0.074066162109375,-0.1058349609375
1772537121292229000,0.48222900390625,0.06048583984375,-0.0266876220703125,-0.0533905029296875
1772537121302278100,0.492278076171875,-0.02447509765625,-0.0790252685546875,-0.0804443359375
1772537121312326100,0.502326171875,-0.186431884765625,-0.192779541015625,-0.006561279296875
1772537121322374100,0.5123740234375,-0.32818603515625,-0.317779541015625,0.0662841796875
1772537121332423200,0.522423095703125,-0.5015411376953125,-0.390411376953125,0.1282501220703125
1772537121342471200,0.53247119140625,-0.7629547119140625,-0.4469146728515625,0.200927734375
1772537121352519000,0.542518798828125,-1.062103271484375,-0.4503021240234375,0.2176666259765625
1772537121362568200,0.552568115234375,-1.2519073486328125,-0.32574462890625,0.090301513671875
1772537121372616000,0.562615966796875,-1.388946533203125,-0.205291748046875,-0.039794921875
1772537121382664200,0.572664306640625,-1.4895477294921875,-0.2377471923828125,-0.0384521484375
1772537121392713000,0.582712890625,-1.5810699462890625,-0.3005523681640625,0.1207275390625
1772537121402761200,0.59276123046875,-1.6475372314453125,-0.4638824462890625,0.3397216796875
1772537121412809200,0.602809326171875,-1.766357421875,-0.737213134765625,0.495574951171875
1772537121422858000,0.61285791015625,-1.9658966064453125,-0.970458984375,0.443206787109375
1772537121432906200,0.62290625,-2.1116180419921875,-1.0726165771484375,0.27337646484375
1772537121442954000,0.6329541015625,-2.16912841796875,-1.126922607421875,0.0735626220703125
1772537121453003300,0.643003173828125,-2.1611328125,-1.146331787109375,-0.0662384033203125
1772537121463051000,0.653051025390625,-2.14495849609375,-1.1183624267578125,-0.072540283203125
1772537121473099000,0.66309912109375,-2.07489013671875,-1.0859375,-0.023406982421875
1772537121483148000,0.67314794921875,-1.9815216064453125,-1.07550048828125,0.055511474609375
1772537121493196000,0.683196044921875,-1.9134063720703125,-1.105926513671875,0.061065673828125
1772537121503244300,0.693244384765625,-1.9023590087890625,-1.1623687744140625,0.0314788818359375
1772537121513293000,0.70329296875,-1.8929290771484375,-1.1756744384765625,-0.0030364990234375
1772537121523341000,0.713341064453125,-1.846710205078125,-1.0163116455078125,-0.041290283203125
1772537121533389000,0.72338916015625,-1.772857666015625,-1.0102996826171875,-0.061279296875
1772537121543438000,0.73343798828125,-1.64678955078125,-0.9733734130859375,-0.0894775390625
1772537121553486000,0.743486083984375,-1.5198516845703125,-0.7187652587890625,-0.060394287109375
1772537121563534000,0.7535341796875,-1.377960205078125,-0.6158905029296875,-0.0325927734375
1772537121573583000,0.7635830078125,-1.24530029296875,-0.556854248046875,0.0025177001953125
1772537121583631000,0.773631103515625,-1.133392333984375,-0.373199462890625,0.0568389892578125
1772537121593679000,0.78367919921875,-1.0437774658203125,-0.263885498046875,0.0811920166015625
1772537121603728100,0.79372802734375,-0.9389190673828125,-0.1810302734375,0.10650634765625
1772537121613776100,0.803776123046875,-0.84930419921875,-0.0730438232421875,0.1034088134765625
1772537121623825200,0.8138251953125,-0.735015869140625,0.010162353515625,0.082916259765625
1772537121633873000,0.823872802734375,-0.624725341796875,0.09161376953125,0.0516815185546875
1772537121643921200,0.833921142578125,-0.5386199951171875,0.17724609375,0.0227813720703125
1772537121653970000,0.843969970703125,-0.447418212890625,0.2410736083984375,0.0278167724609375
1772537121664018200,0.85401806640625,-0.379638671875,0.2563629150390625,0.02642822265625
1772537121674066200,0.864066162109375,-0.2912750244140625,0.2354583740234375,0.0321807861328125
1772537121684115200,0.874115234375,-0.16693115234375,0.19683837890625,0.0359649658203125
1772537121694163200,0.8841630859375,-0.0556793212890625,0.1437835693359375,0.04498291015625
1772537121704211000,0.8942109375,0.02301025390625,0.10296630859375,0.0842132568359375
1772537121714260200,0.90426025390625,0.0910491943359375,0.0729827880859375,0.1118927001953125
1772537121724308000,0.914307861328125,0.1570892333984375,0.04656982421875,0.10504150390625
1772537121734356200,0.924356201171875,0.196258544921875,0.024932861328125,0.11236572265625
1772537121744405000,0.934405029296875,0.21417236328125,-0.0004730224609375,0.091949462890625
1772537121754453200,0.944453369140625,0.24847412109375,0.0178375244140625,0.0911712646484375
1772537121764501000,0.9545009765625,0.273773193359375,0.0772247314453125,0.0787506103515625
1772537121774550300,0.96455029296875,0.25335693359375,0.07952880859375,0.0561065673828125
1772537121784598000,0.974597900390625,0.2113037109375,0.047149658203125,0.0334014892578125
1772537121794646000,0.98464599609375,0.152130126953125,-0.011688232421875,-0.0110626220703125
1772537121804695000,0.994695068359375,0.0625,-0.082672119140625,-0.0210723876953125
1772537121814743000,1.004742919921875,-0.07122802734375,-0.1815338134765625,-0.007781982421875
1772537121824791300,1.014791259765625,-0.2522735595703125,-0.2966766357421875,0.0399322509765625
1772537121834840000,1.024840087890625,-0.4713592529296875,-0.4073028564453125,0.14154052734375
1772537121844888300,1.034888427734375,-0.659088134765625,-0.4715576171875,0.2366790771484375
1772537121854936000,1.04493603515625,-0.7536773681640625,-0.471893310546875,0.245208740234375
1772537121864985000,1.054985107421875,-0.8639678955078125,-0.3997344970703125,0.2107086181640625
1772537121875033000,1.065033203125,-1.0423126220703125,-0.3304901123046875,0.1374664306640625
1772537121885081000,1.0750810546875,-1.1407470703125,-0.3822479248046875,0.028778076171875
1772537121895130000,1.085130126953125,-1.3536224365234375,-0.2815399169921875,0.0671539306640625
1772537121905178000,1.09517822265625,-1.5177764892578125,-0.2793121337890625,0.06842041015625
1772537121915226000,1.10522607421875,-1.60205078125,-0.5013885498046875,0.106048583984375
1772537121925275100,1.115275146484375,-1.7266845703125,-0.772491455078125,0.1167449951171875
1772537121935323000,1.125322998046875,-1.9019927978515625,-0.98004150390625,0.03057861328125
1772537121945371100,1.13537109375,-2.049072265625,-1.1161346435546875,-0.1030731201171875
1772537121955420000,1.145419921875,-2.15472412109375,-1.1680450439453125,-0.1652374267578125
1772537121965468200,1.15546826171875,-2.1895904541015625,-1.1358184814453125,-0.1644134521484375
1772537121975517000,1.165516845703125,-2.19146728515625,-1.0478973388671875,-0.094512939453125
1772537121985565200,1.175565185546875,-2.1839599609375,-0.9327545166015625,-0.002197265625
1772537121995613200,1.18561328125,-2.1462249755859375,-0.8260955810546875,0.0965576171875
1772537122005662200,1.195662109375,-2.079010009765625,-0.787506103515625,0.1598358154296875
1772537122015710200,1.205710205078125,-2.0521240234375,-0.8052520751953125,0.1959991455078125
1772537122025758000,1.215758056640625,-2.0278472900390625,-0.814422607421875,0.2118377685546875
1772537122035807200,1.22580712890625,-1.9656829833984375,-0.8113861083984375,0.1852569580078125
1772537122045855000,1.23585498046875,-1.895477294921875,-0.7704925537109375,0.1098480224609375
1772537122055903500,1.245903564453125,-1.8143768310546875,-0.6772918701171875,0.04302978515625
1772537122065952500,1.255952392578125,-1.6827239990234375,-0.5654296875,0.018402099609375
1772537122076000500,1.26600048828125,-1.5201263427734375,-0.4640350341796875,-0.0006103515625
1772537122086048300,1.27604833984375,-1.33258056640625,-0.387054443359375,-0.01885986328125
1772537122096097500,1.28609765625,-1.1644287109375,-0.3448486328125,-0.0341033935546875
1772537122106145300,1.296145263671875,-1.001953125,-0.330810546875,-0.0521087646484375
1772537122116193500,1.306193603515625,-0.8356475830078125,-0.30963134765625,-0.0678558349609375
1772537122126242300,1.3162421875,-0.689056396484375,-0.2747650146484375,-0.071533203125
1772537122136290600,1.32629052734375,-0.5634307861328125,-0.2213134765625,-0.0598297119140625
1772537122146338600,1.336338623046875,-0.46759033203125,-0.140106201171875,-0.042755126953125
1772537122156387300,1.34638720703125,-0.3793487548828125,-0.0601348876953125,-0.0160064697265625
1772537122166435600,1.356435546875,-0.2827301025390625,-0.01068115234375,0.0088653564453125
1772537122176483300,1.3664833984375,-0.1858673095703125,0.0381317138671875,0.0241851806640625
1772537122186532600,1.37653271484375,-0.1161346435546875,0.0889129638671875,0.0475921630859375
1772537122196580400,1.386580322265625,-0.05096435546875,0.1275634765625,0.0816192626953125
1772537122206628400,1.39662841796875,0.0146636962890625,0.1381072998046875,0.126434326171875
1772537122216677400,1.406677490234375,0.0572967529296875,0.129608154296875,0.1733551025390625
1772537122226725400,1.416725341796875,0.0802001953125,0.1208038330078125,0.1946563720703125
1772537122236774400,1.4267744140625,0.104827880859375,0.1113433837890625,0.204071044921875
1772537122246822400,1.436822509765625,0.124359130859375,0.0970306396484375,0.198333740234375
1772537122256870400,1.446870361328125,0.14190673828125,0.06878662109375,0.1790313720703125
1772537122266919400,1.45691943359375,0.138275146484375,0.042327880859375,0.1389617919921875
1772537122276967400,1.466967529296875,0.109588623046875,0.0406341552734375,0.0891876220703125
1772537122287015400,1.477015380859375,0.089874267578125,0.047271728515625,0.0484466552734375
1772537122297064400,1.487064453125,0.0737457275390625,0.042510986328125,0.0025177001953125
1772537122307112400,1.497112548828125,0.037872314453125,0.0294952392578125,-0.04779052734375
1772537122317160400,1.507160400390625,-0.0211944580078125,-0.0079498291015625,-0.024078369140625
1772537122327209500,1.51720947265625,-0.1255950927734375,-0.1027679443359375,0.0548858642578125
1772537122337257500,1.527257568359375,-0.291015625,-0.2361297607421875,0.1973876953125
1772537122347305500,1.537305419921875,-0.517791748046875,-0.3837890625,0.327728271484375
1772537122357354500,1.5473544921875,-0.7505035400390625,-0.4954833984375,0.3289337158203125
1772537122367402500,1.557402587890625,-0.933990478515625,-0.4810791015625,0.2772216796875
1772537122377450500,1.567450439453125,-1.101715087890625,-0.4306640625,0.2288818359375
1772537122387499300,1.577499267578125,-1.231842041015625,-0.4711456298828125,0.165863037109375
1772537122397547500,1.587547607421875,-1.35076904296875,-0.50360107421875,0.059478759765625
1772537122407595500,1.597595458984375,-1.409698486328125,-0.4293975830078125,-0.08062744140625
1772537122417644500,1.60764453125,-1.4846343994140625,-0.3642578125,-0.1027374267578125
1772537122427692300,1.6176923828125,-1.5957794189453125,-0.4419708251953125,-0.0438995361328125
1772537122437740300,1.627740234375,-1.6653594970703125,-0.6345977783203125,0.017852783203125
1772537122447789300,1.637789306640625,-1.736297607421875,-0.755035400390625,0.0883636474609375
1772537122457837300,1.64783740234375,-1.8334503173828125,-0.782012939453125,0.178558349609375
1772537122467885600,1.657885498046875,-1.8799896240234375,-0.7383575439453125,0.2286529541015625
1772537122477934300,1.667934326171875,-1.889495849609375,-0.72406005859375,0.2319183349609375
1772537122487982600,1.677982666015625,-1.8997344970703125,-0.76385498046875,0.2214202880859375
1772537122498030300,1.6880302734375,-1.9201812744140625,-0.8092498779296875,0.206390380859375
1772537122508079600,1.69807958984375,-1.9287109375,-0.84271240234375,0.2018890380859375
1772537122518127400,1.70812744140625,-1.9346771240234375,-0.8812255859375,0.1640625
1772537122528176600,1.7181767578125,-1.9337158203125,-0.93487548828125,0.1214752197265625
1772537122538224400,1.728224365234375,-1.9138336181640625,-0.977264404296875,0.1284637451171875
1772537122548272400,1.7382724609375,-1.8840179443359375,-0.9502410888671875,0.124114990234375
1772537122558321400,1.7483212890625,-1.856964111328125,-0.8759918212890625,0.1163330078125
1772537122568369400,1.758369384765625,-1.8110809326171875,-0.77960205078125,0.109344482421875
1772537122578417700,1.768417724609375,-1.7387237548828125,-0.64971923828125,0.108642578125
1772537122588466400,1.778466552734375,-1.623992919921875,-0.52197265625,0.1153411865234375
1772537122598514400,1.788514404296875,-1.4980010986328125,-0.4111785888671875,0.111663818359375
1772537122608562400,1.7985625,-1.343841552734375,-0.317840576171875,0.1059112548828125
1772537122618611500,1.808611572265625,-1.19354248046875,-0.2479248046875,0.097137451171875
1772537122628659500,1.818659423828125,-1.0678558349609375,-0.2015533447265625,0.0797119140625
1772537122638707500,1.82870751953125,-0.947296142578125,-0.1623992919921875,0.0652923583984375
1772537122648756500,1.838756591796875,-0.8225555419921875,-0.1259002685546875,0.047088623046875
1772537122658804500,1.848804443359375,-0.691009521484375,-0.0864410400390625,0.0207366943359375
1772537122668852200,1.858852294921875,-0.576263427734375,-0.0397491455078125,-0.0070343017578125
1772537122678901500,1.868901611328125,-0.46185302734375,-0.0089569091796875,-0.033203125
1772537122688949200,1.87894921875,-0.354400634765625,0.0143280029296875,-0.0541229248046875
1772537122698997500,1.88899755859375,-0.2495574951171875,0.0340576171875,-0.0701751708984375
1772537122709046300,1.89904638671875,-0.162933349609375,0.056610107421875,-0.07421875
1772537122719094500,1.909094482421875,-0.0798492431640625,0.0719146728515625,-0.058013916015625
1772537122729142500,1.919142578125,-0.0112762451171875,0.0833740234375,-0.0242919921875
1772537122739191600,1.929191650390625,0.050018310546875,0.0972442626953125,0.0138397216796875
1772537122749239600,1.939239501953125,0.0862274169921875,0.0921173095703125,0.0421295166015625
1772537122759287300,1.949287353515625,0.072723388671875,0.066375732421875,0.0550079345703125
1772537122769336600,1.959336669921875,0.082061767578125,0.0416259765625,0.0700225830078125
1772537122779384300,1.96938427734375,0.1185302734375,0.0184173583984375,0.072357177734375
1772537122789432600,1.9794326171875,0.1105194091796875,0.0040740966796875,0.0699462890625
1772537122799481300,1.9894814453125,0.065582275390625,-0.0076751708984375,0.0604095458984375
1772537122809529600,1.999529541015625,0.0309295654296875,-0.02984619140625,0.040557861328125
1772537122819578400,2.009578369140625,-0.002197265625,-0.0395355224609375,0.014068603515625
1772537122829626400,2.01962646484375,-0.0116729736328125,-0.050933837890625,-0.01641845703125
1772537122839674400,2.02967431640625,-0.020355224609375,-0.096893310546875,-0.0035858154296875
1772537122849723400,2.039723388671875,-0.084869384765625,-0.17919921875,0.0716400146484375
1772537122859771400,2.049771484375,-0.1934967041015625,-0.278961181640625,0.1958770751953125
1772537122869819400,2.0598193359375,-0.388031005859375,-0.388946533203125,0.34124755859375
1772537122879868400,2.069868408203125,-0.6583404541015625,-0.4616851806640625,0.392547607421875
1772537122889916400,2.07991650390625,-0.8951873779296875,-0.473175048828125,0.33746337890625
1772537122899964400,2.08996435546875,-1.0060577392578125,-0.4643096923828125,0.261962890625
1772537122910013400,2.100013427734375,-1.054840087890625,-0.473663330078125,0.208831787109375
1772537122920061400,2.1100615234375,-1.0937347412109375,-0.4469451904296875,0.11297607421875
1772537122930109400,2.120109375,-1.2629852294921875,-0.3653717041015625,0.0244140625
1772537122940158500,2.130158447265625,-1.5293731689453125,-0.3098602294921875,0.1301422119140625
1772537122950206500,2.14020654296875,-1.6328125,-0.553802490234375,0.20892333984375
1772537122960254500,2.15025439453125,-1.7515411376953125,-0.8671722412109375,0.2518463134765625
1772537122970303500,2.160303466796875,-1.9218902587890625,-0.9906463623046875,0.2141876220703125
1772537122980351500,2.1703515625,-2.003570556640625,-1.08349609375,0.1672821044921875
1772537122990399500,2.1803994140625,-2.055145263671875,-1.1226959228515625,0.163665771484375
1772537123000448500,2.190448486328125,-2.047576904296875,-1.1117095947265625,0.16656494140625
1772537123010496300,2.200496337890625,-2.0501556396484375,-1.1162261962890625,0.1453399658203125
1772537123020544500,2.21054443359375,-2.0815582275390625,-1.0809326171875,0.1305389404296875
1772537123030593300,2.22059326171875,-2.11260986328125,-1.024139404296875,0.1563262939453125
1772537123040641500,2.2306416015625,-2.1131744384765625,-1.0019989013671875,0.198150634765625
1772537123050689500,2.240689453125,-2.0540618896484375,-1.00323486328125,0.22509765625
1772537123060737800,2.25073779296875,-2.004913330078125,-0.9854278564453125,0.224853515625
1772537123070785800,2.260785888671875,-1.920989990234375,-0.8821563720703125,0.2020721435546875
1772537123080834800,2.270834716796875,-1.7925262451171875,-0.694305419921875,0.1982879638671875
1772537123090882800,2.2808828125,-1.6414031982421875,-0.5269927978515625,0.224853515625
1772537123100930800,2.290930908203125,-1.4752655029296875,-0.4036865234375,0.24749755859375
1772537123110979800,2.300979736328125,-1.3218536376953125,-0.31298828125,0.243804931640625
1772537123121027800,2.31102783203125,-1.193511962890625,-0.2264404296875,0.2006072998046875
1772537123131075800,2.321075927734375,-1.0517730712890625,-0.1610870361328125,0.1407012939453125
1772537123141124900,2.331124755859375,-0.894195556640625,-0.1300811767578125,0.05572509765625
1772537123151172900,2.3411728515625,-0.74298095703125,-0.1111907958984375,-0.0122528076171875
1772537123161220900,2.351220947265625,-0.61639404296875,-0.0816650390625,-0.0383453369140625
1772537123171270000,2.361269775390625,-0.48486328125,-0.0286407470703125,-0.0363006591796875
1772537123181318000,2.37131787109375,-0.35821533203125,0.0309906005859375,-0.0340728759765625
1772537123191366000,2.381365966796875,-0.242523193359375,0.10308837890625,-0.035125732421875
1772537123201415000,2.391414794921875,-0.13323974609375,0.1563568115234375,-0.039642333984375
1772537123211462700,2.401462646484375,-0.04034423828125,0.1676483154296875,-0.026947021484375
1772537123221511000,2.411510986328125,0.0231170654296875,0.150299072265625,-0.00262451171875
1772537123231559700,2.4215595703125,0.08050537109375,0.12890625,0.0268402099609375
1772537123241608000,2.43160791015625,0.135955810546875,0.12286376953125,0.04766845703125
1772537123251656000,2.441656005859375,0.1912689208984375,0.121734619140625,0.0648651123046875
1772537123261705000,2.451705078125,0.2145843505859375,0.0992431640625,0.080596923828125
1772537123271753000,2.4617529296875,0.2107696533203125,0.0766448974609375,0.08074951171875
1772537123281800700,2.47180078125,0.22113037109375,0.0719451904296875,0.071502685546875
1772537123291849700,2.481849609375,0.188018798828125,0.0511474609375,0.0471038818359375
1772537123301897700,2.491897705078125,0.1786956787109375,0.0188140869140625,0.0144805908203125
1772537123311946000,2.501946044921875,0.14666748046875,-0.0261077880859375,-0.00811767578125
1772537123321994800,2.511994873046875,0.0817108154296875,-0.1122894287109375,-0.0284881591796875
1772537123332043000,2.52204296875,-0.0262603759765625,-0.2220306396484375,-0.0128631591796875
1772537123342091800,2.532091796875,-0.215911865234375,-0.3547821044921875,0.0662078857421875
1772537123352140000,2.54214013671875,-0.4555511474609375,-0.4857330322265625,0.136474609375
1772537123362187800,2.552187744140625,-0.6713409423828125,-0.5602264404296875,0.159912109375
1772537123372237000,2.562237060546875,-0.8214111328125,-0.5762939453125,0.13165283203125
1772537123382284800,2.572284912109375,-0.9325408935546875,-0.547119140625,0.0837249755859375
1772537123392332800,2.582332763671875,-1.013336181640625,-0.4958343505859375,0.0419921875
1772537123402381800,2.5923818359375,-1.0633544921875,-0.4234161376953125,0.002166748046875
1772537123412429800,2.602429931640625,-1.1619720458984375,-0.3498077392578125,0.01519775390625
1772537123422478000,2.61247802734375,-1.336944580078125,-0.4031219482421875,0.0247955322265625
1772537123432526800,2.62252685546875,-1.515106201171875,-0.414794921875,0.1907806396484375
1772537123442574800,2.632574951171875,-1.5520477294921875,-0.66741943359375,0.1422882080078125
1772537123452622800,2.642622802734375,-1.688079833984375,-0.899169921875,0.0760498046875
1772537123462672000,2.652671875,-1.803436279296875,-1.0212860107421875,0.006378173828125
1772537123472720000,2.662719970703125,-1.875518798828125,-1.0980224609375,-0.0552978515625
1772537123482768000,2.672767822265625,-1.9278717041015625,-1.1038970947265625,-0.0595550537109375
1772537123492817000,2.68281689453125,-1.98187255859375,-1.0803375244140625,-0.050384521484375
1772537123502865000,2.692864990234375,-2.03717041015625,-1.0311737060546875,-0.0074615478515625
1772537123512912600,2.70291259765625,-2.1020660400390625,-0.9599456787109375,0.053466796875
1772537123522962000,2.7129619140625,-2.13372802734375,-0.923431396484375,0.1027984619140625
1772537123533009700,2.723009765625,-2.1328125,-0.8983001708984375,0.1539154052734375
1772537123543058000,2.733057861328125,-2.123504638671875,-0.8484344482421875,0.2128143310546875
1772537123553106700,2.743106689453125,-2.0916290283203125,-0.784698486328125,0.23834228515625
1772537123563155000,2.753155029296875,-2.031036376953125,-0.6988525390625,0.204925537109375
1772537123573203000,2.763202880859375,-1.918975830078125,-0.5996856689453125,0.16583251953125
1772537123583252000,2.773251953125,-1.762664794921875,-0.4937286376953125,0.1384124755859375
1772537123593300000,2.783300048828125,-1.575836181640625,-0.3892669677734375,0.1049346923828125
1772537123603349000,2.793348876953125,-1.38818359375,-0.317474365234375,0.0568695068359375
1772537123613397000,2.80339697265625,-1.2144317626953125,-0.26312255859375,-0.0028839111328125
1772537123623444700,2.81344482421875,-1.0597381591796875,-0.205230712890625,-0.0567169189453125
1772537123633494000,2.823493896484375,-0.91156005859375,-0.1491546630859375,-0.1011810302734375
1772537123643541800,2.833541748046875,-0.781829833984375,-0.077392578125,-0.1378936767578125
1772537123653590000,2.843590087890625,-0.669586181640625,0.0166473388671875,-0.14410400390625
1772537123663638800,2.853638671875,-0.5418853759765625,0.102996826171875,-0.136993408203125
1772537123673686800,2.863686767578125,-0.3995819091796875,0.1512908935546875,-0.1232757568359375
1772537123683734800,2.87373486328125,-0.287689208984375,0.1708831787109375,-0.0980377197265625
1772537123693783800,2.88378369140625,-0.2177276611328125,0.1617584228515625,-0.053863525390625
1772537123703831800,2.893831787109375,-0.1383819580078125,0.120086669921875,-0.0097503662109375
1772537123713879800,2.9038798828125,-0.0341033935546875,0.0891876220703125,0.0350799560546875
1772537123723928800,2.9139287109375,0.07269287109375,0.07440185546875,0.0861358642578125
1772537123733976800,2.923976806640625,0.1684722900390625,0.0517425537109375,0.1444091796875
1772537123744024800,2.93402490234375,0.227325439453125,0.0330047607421875,0.1884918212890625
1772537123754073900,2.944073974609375,0.2506866455078125,0.0379180908203125,0.2032318115234375
1772537123764121900,2.954121826171875,0.262451171875,0.052642822265625,0.200103759765625
1772537123774169900,2.964169921875,0.276580810546875,0.0552825927734375,0.181976318359375
1772537123784219000,2.974218994140625,0.2804412841796875,0.045013427734375,0.16033935546875
1772537123794267000,2.984266845703125,0.263031005859375,0.0171661376953125,0.1275787353515625
1772537123804315000,2.99431494140625,0.2303009033203125,-0.02423095703125,0.0774688720703125
1772537123814364000,3.004364013671875,0.1726531982421875,-0.074737548828125,0.039947509765625
1772537123824412000,3.014411865234375,0.045135498046875,-0.1580963134765625,0.0348358154296875
1772537123834460000,3.0244599609375,-0.1245574951171875,-0.25775146484375,0.0489501953125
1772537123844509000,3.034509033203125,-0.2827301025390625,-0.3626251220703125,0.07965087890625
1772537123854556700,3.044556640625,-0.442108154296875,-0.47698974609375,0.1339111328125
1772537123864605000,3.05460498046875,-0.596282958984375,-0.5449676513671875,0.1449737548828125
1772537123874653700,3.06465380859375,-0.764862060546875,-0.53997802734375,0.1001434326171875
1772537123884702000,3.074701904296875,-0.9271087646484375,-0.5322418212890625,0.0650634765625
1772537123894750700,3.084750732421875,-1.1076812744140625,-0.57275390625,0.0643768310546875
1772537123904798700,3.094798828125,-1.288543701171875,-0.540740966796875,0.0545501708984375
1772537123914847000,3.104846923828125,-1.398773193359375,-0.39215087890625,-0.049468994140625
1772537123924895700,3.114895751953125,-1.5255889892578125,-0.3004608154296875,-0.0791778564453125
1772537123934944000,3.124944091796875,-1.7207794189453125,-0.4430389404296875,-0.06689453125
1772537123944991700,3.13499169921875,-1.91064453125,-0.7067718505859375,-0.1986846923828125
1772537123955041000,3.145041015625,-2.0039215087890625,-0.9097747802734375,-0.2491455078125
1772537123965088800,3.1550888671875,-2.0668182373046875,-0.979827880859375,-0.1816864013671875
1772537123975136800,3.16513671875,-2.1202239990234375,-0.97021484375,-0.067291259765625
1772537123985185800,3.175185791015625,-2.1431732177734375,-0.909881591796875,0.0194854736328125
1772537123995233800,3.18523388671875,-2.1467437744140625,-0.82659912109375,0.0631256103515625
1772537124005282000,3.195281982421875,-2.15753173828125,-0.78509521484375,0.0847930908203125
1772537124015330800,3.205330810546875,-2.1265106201171875,-0.7447967529296875,0.0590667724609375
1772537124025378800,3.21537890625,-2.058685302734375,-0.7121429443359375,0.01409912109375
1772537124035426800,3.2254267578125,-1.9932403564453125,-0.7076263427734375,0.0041656494140625
1772537124045475800,3.235475830078125,-1.9116973876953125,-0.699371337890625,0.0150299072265625
1772537124055523300,3.2455234375,-1.80377197265625,-0.6876678466796875,0.044158935546875
1772537124065571600,3.255571533203125,-1.675048828125,-0.638153076171875,0.082855224609375
1772537124075620400,3.265620361328125,-1.5378570556640625,-0.5537109375,0.1072845458984375
1772537124085668600,3.275668701171875,-1.4113006591796875,-0.4600372314453125,0.1109771728515625
1772537124095716400,3.28571630859375,-1.27203369140625,-0.3591766357421875,0.0906982421875
1772537124105765600,3.295765625,-1.150421142578125,-0.24749755859375,0.0437469482421875
1772537124115813400,3.3058134765625,-0.997222900390625,-0.1292724609375,0.00616455078125
1772537124125861400,3.315861328125,-0.8237762451171875,-0.0376129150390625,-0.0209808349609375
1772537124135910400,3.325910400390625,-0.7152557373046875,0.0187225341796875,-0.031768798828125
1772537124145958400,3.33595849609375,-0.639190673828125,0.0391693115234375,-0.056884765625
1772537124156006700,3.346006591796875,-0.5694732666015625,0.053863525390625,-0.0842132568359375
1772537124166055400,3.356055419921875,-0.5026397705078125,0.087005615234375,-0.1071319580078125
1772537124176103700,3.366103759765625,-0.449188232421875,0.1181640625,-0.143585205078125
1772537124186152400,3.37615234375,-0.3975677490234375,0.1334381103515625,-0.1739654541015625
1772537124196200400,3.386200439453125,-0.326446533203125,0.13482666015625,-0.170562744140625
1772537124206248400,3.39624853515625,-0.2213592529296875,0.1366424560546875,-0.13848876953125
1772537124216297500,3.40629736328125,-0.121917724609375,0.124298095703125,-0.0916290283203125
1772537124226345500,3.416345458984375,-0.042755126953125,0.0987701416015625,-0.0346527099609375
1772537124236393500,3.4263935546875,0.025909423828125,0.0710906982421875,0.0268402099609375
1772537124246442500,3.4364423828125,0.0910491943359375,0.046417236328125,0.0677337646484375
1772537124256490500,3.446490478515625,0.1410369873046875,0.0196075439453125,0.0974273681640625
1772537124266538500,3.45653857421875,0.149078369140625,-0.011749267578125,0.116729736328125
1772537124276587500,3.46658740234375,0.13421630859375,-0.042572021484375,0.110198974609375
1772537124286635500,3.476635498046875,0.13604736328125,-0.0622100830078125,0.0898590087890625
1772537124296683500,3.48668359375,0.1192779541015625,-0.071197509765625,0.05340576171875
1772537124306732500,3.496732666015625,0.0807037353515625,-0.078399658203125,0.0290069580078125
1772537124316780500,3.506780517578125,0.0170135498046875,-0.1179656982421875,0.0128326416015625
1772537124326828500,3.51682861328125,-0.0749969482421875,-0.2024993896484375,0.0228424072265625
1772537124336877600,3.526877685546875,-0.22918701171875,-0.3196868896484375,0.04241943359375
1772537124346925600,3.536925537109375,-0.446075439453125,-0.4427337646484375,0.1219482421875
1772537124356973300,3.546973388671875,-0.64947509765625,-0.56707763671875,0.2115325927734375
1772537124367022600,3.557022705078125,-0.79107666015625,-0.633697509765625,0.22454833984375
1772537124377070300,3.5670703125,-0.8819732666015625,-0.6173553466796875,0.178680419921875
1772537124387118600,3.57711865234375,-0.971160888671875,-0.528717041015625,0.12384033203125
1772537124397167400,3.58716748046875,-1.0856781005859375,-0.39312744140625,0.024261474609375
1772537124407215600,3.597215576171875,-1.2507781982421875,-0.2676544189453125,-0.0694122314453125
1772537124417263600,3.607263671875,-1.4218902587890625,-0.2580718994140625,-0.095703125
1772537124427312400,3.6173125,-1.498565673828125,-0.478424072265625,0.0038604736328125
1772537124437360600,3.627360595703125,-1.5413970947265625,-0.7449188232421875,0.0974578857421875
1772537124447409400,3.637409423828125,-1.683929443359375,-0.8780517578125,0.0476226806640625
1772537124457457700,3.647457763671875,-1.8452301025390625,-0.9709625244140625,-0.0095367431640625
1772537124467505400,3.65750537109375,-1.950164794921875,-0.991546630859375,0.00250244140625
1772537124477554400,3.667554443359375,-1.98480224609375,-0.8868255615234375,0.020660400390625
1772537124487602400,3.6776025390625,-1.9864044189453125,-0.7802886962890625,0.000640869140625
1772537124497650400,3.687650390625,-1.987152099609375,-0.685089111328125,-0.029815673828125
1772537124507699500,3.697699462890625,-1.997802734375,-0.616851806640625,-0.0475006103515625
1772537124517747500,3.70774755859375,-2.0163726806640625,-0.5904541015625,-0.022552490234375
1772537124527795500,3.71779541015625,-2.004425048828125,-0.5977630615234375,-0.0168609619140625
1772537124537844500,3.727844482421875,-1.96148681640625,-0.616241455078125,-0.0510406494140625
1772537124547892500,3.737892578125,-1.91424560546875,-0.6522979736328125,-0.0860443115234375
1772537124557940500,3.7479404296875,-1.8822021484375,-0.6854248046875,-0.1078033447265625
1772537124567989500,3.757989501953125,-1.8685760498046875,-0.6471099853515625,-0.0746917724609375
1772537124578037500,3.76803759765625,-1.822967529296875,-0.560760498046875,-0.007354736328125
1772537124588085500,3.77808544921875,-1.7246246337890625,-0.48785400390625,0.03753662109375
1772537124598134500,3.788134521484375,-1.5932159423828125,-0.42236328125,0.0622406005859375
1772537124608182500,3.7981826171875,-1.4462127685546875,-0.3634490966796875,0.0550384521484375
1772537124618230500,3.80823046875,-1.2856903076171875,-0.3220367431640625,0.043243408203125
1772537124628279600,3.818279541015625,-1.11517333984375,-0.286651611328125,0.0282440185546875
1772537124638327300,3.828327392578125,-0.9544525146484375,-0.255279541015625,0.01617431640625
1772537124648375600,3.83837548828125,-0.8166656494140625,-0.2169342041015625,0.0237884521484375
1772537124658424300,3.84842431640625,-0.6898193359375,-0.1687164306640625,0.0273284912109375
1772537124668472600,3.85847265625,-0.57330322265625,-0.11163330078125,0.026336669921875
1772537124678520300,3.868520263671875,-0.4640960693359375,-0.051177978515625,0.031890869140625
1772537124688569600,3.878569580078125,-0.3709716796875,0.0029754638671875,0.0325927734375
1772537124698617300,3.888617431640625,-0.295989990234375,0.04779052734375,0.027191162109375
1772537124708665300,3.898665283203125,-0.2111053466796875,0.08013916015625,0.0218658447265625
1772537124718714400,3.90871435546875,-0.1485595703125,0.0985107421875,0.0275115966796875
1772537124728762400,3.918762451171875,-0.0928802490234375,0.110565185546875,0.040496826171875
1772537124738810600,3.928810546875,-0.044708251953125,0.1115264892578125,0.0496368408203125
1772537124748859400,3.938859375,-0.0017242431640625,0.108673095703125,0.06158447265625
1772537124758907600,3.94890771484375,0.040252685546875,0.10302734375,0.0680084228515625
1772537124768956400,3.958956298828125,0.0782928466796875,0.0937957763671875,0.0660552978515625
1772537124779004700,3.969004638671875,0.1134490966796875,0.06951904296875,0.0586090087890625
1772537124789052400,3.979052490234375,0.133056640625,0.0336761474609375,0.0533294677734375
1772537124799101700,3.989101806640625,0.12860107421875,0.0104827880859375,0.03265380859375
1772537124809149400,3.9991494140625,0.1300048828125,-0.0115203857421875,0.0240478515625
1772537124819197400,4.009197509765625,0.1250457763671875,-0.057281494140625,0.01434326171875
1772537124829246500,4.01924658203125,0.048858642578125,-0.100494384765625,0.023681640625
1772537124839294500,4.02929443359375,-0.0606689453125,-0.1571044921875,0.0624237060546875
1772537124849342500,4.039342529296875,-0.190032958984375,-0.2472686767578125,0.109527587890625
1772537124859391500,4.0493916015625,-0.3846893310546875,-0.3401641845703125,0.163818359375
1772537124869439500,4.059439453125,-0.6012420654296875,-0.4337615966796875,0.2028656005859375
1772537124879487500,4.069487548828125,-0.7867584228515625,-0.4817352294921875,0.1865386962890625
1772537124889536300,4.079536376953125,-0.8735809326171875,-0.4949798583984375,0.114227294921875
1772537124899584500,4.08958447265625,-0.9290313720703125,-0.4870452880859375,0.065826416015625
1772537124909632500,4.099632568359375,-0.9703369140625,-0.4604339599609375,0.036956787109375
1772537124919681500,4.109681640625,-1.025421142578125,-0.3816986083984375,0.008758544921875
1772537124929729500,4.1197294921875,-1.1472930908203125,-0.3011932373046875,-0.0206146240234375
1772537124939777300,4.12977734375,-1.317718505859375,-0.2775115966796875,0.0390472412109375
1772537124949826600,4.13982666015625,-1.4824066162109375,-0.44915771484375,0.1798248291015625
1772537124959874300,4.149874267578125,-1.7197418212890625,-0.6322479248046875,0.191558837890625
1772537124969922600,4.159922607421875,-1.88739013671875,-0.735321044921875,0.0518951416015625
1772537124979971300,4.169971435546875,-1.959808349609375,-0.81683349609375,-0.09112548828125
1772537124990019600,4.18001953125,-2.0249176025390625,-0.73614501953125,-0.1585693359375
1772537125000067600,4.190067626953125,-2.052978515625,-0.6262969970703125,-0.186004638671875
1772537125010116600,4.20011669921875,-2.05621337890625,-0.545654296875,-0.2102813720703125
1772537125020164600,4.21016455078125,-2.0341949462890625,-0.498291015625,-0.2136688232421875
1772537125030212400,4.22021240234375,-1.97705078125,-0.5081634521484375,-0.1938323974609375
1772537125040261600,4.23026171875,-1.9600067138671875,-0.5615081787109375,-0.1652984619140625
1772537125050309400,4.240309326171875,-1.9627532958984375,-0.617584228515625,-0.0980377197265625
1772537125060358000,4.25035791015625,-1.971893310546875,-0.6496734619140625,-0.0339202880859375
1772537125070407000,4.260406982421875,-1.9390869140625,-0.6337432861328125,-0.008331298828125
1772537125080455000,4.270454833984375,-1.8515777587890625,-0.5796661376953125,0.0040283203125
1772537125090503700,4.280503662109375,-1.7398529052734375,-0.51251220703125,0.01934814453125
1772537125100552000,4.290552001953125,-1.6184844970703125,-0.432098388671875,0.0549163818359375
1772537125110599700,4.300599609375,-1.498748779296875,-0.3553466796875,0.090606689453125
1772537125120649000,4.31064892578125,-1.36737060546875,-0.2921142578125,0.11273193359375
1772537125130696700,4.32069677734375,-1.2287750244140625,-0.2480316162109375,0.123321533203125
1772537125140745000,4.330744873046875,-1.0934600830078125,-0.214111328125,0.1109771728515625
1772537125150793700,4.340793701171875,-0.9497222900390625,-0.187286376953125,0.064727783203125
1772537125160841700,4.350841796875,-0.8290557861328125,-0.161712646484375,0.0004730224609375
1772537125170889700,4.3608896484375,-0.7393798828125,-0.1213531494140625,-0.049530029296875
1772537125180938800,4.370938720703125,-0.6645050048828125,-0.065887451171875,-0.07244873046875
1772537125190986800,4.38098681640625,-0.6077117919921875,-0.0049896240234375,-0.076080322265625
1772537125201034800,4.39103466796875,-0.544830322265625,0.04803466796875,-0.072662353515625
1772537125211083800,4.401083740234375,-0.469818115234375,0.0866851806640625,-0.0832977294921875
1772537125221131800,4.4111318359375,-0.385009765625,0.113677978515625,-0.0760498046875
1772537125231179800,4.4211796875,-0.3152008056640625,0.1324615478515625,-0.053955078125
1772537125241228800,4.431228759765625,-0.2607574462890625,0.12994384765625,-0.030029296875
1772537125251276800,4.44127685546875,-0.18817138671875,0.13116455078125,-0.0057373046875
1772537125261324800,4.45132470703125,-0.1151275634765625,0.1255035400390625,0.0146484375
1772537125271373800,4.461373779296875,-0.0447998046875,0.096435546875,0.028656005859375
1772537125281421800,4.471421875,0.0286407470703125,0.03515625,0.0275421142578125
1772537125291469800,4.4814697265625,0.0850830078125,-0.0265960693359375,0.0286712646484375
1772537125301518800,4.491518798828125,0.115264892578125,-0.0638275146484375,0.0388336181640625
1772537125311566800,4.50156689453125,0.14105224609375,-0.0911407470703125,0.04522705078125
1772537125321614800,4.51161474609375,0.1406097412109375,-0.114776611328125,0.05487060546875
1772537125331664000,4.521663818359375,0.106689453125,-0.126739501953125,0.0570831298828125
1772537125341712000,4.5317119140625,0.0468292236328125,-0.140655517578125,0.0521240234375
1772537125351760000,4.541759765625,-0.050079345703125,-0.181915283203125,0.0778656005859375
1772537125361809000,4.551808837890625,-0.2010955810546875,-0.2406158447265625,0.14251708984375
1772537125371857000,4.56185693359375,-0.3815155029296875,-0.3166656494140625,0.209228515625
1772537125381905000,4.57190478515625,-0.582366943359375,-0.3889923095703125,0.2510528564453125
1772537125391953700,4.58195361328125,-0.7388458251953125,-0.3975067138671875,0.2015228271484375
1772537125402002000,4.592001953125,-0.857269287109375,-0.367584228515625,0.100372314453125
1772537125412049700,4.602049560546875,-0.940216064453125,-0.3526153564453125,0.0220794677734375
1772537125422099000,4.612098876953125,-1.0040740966796875,-0.3173370361328125,-0.0553131103515625
1772537125432146700,4.622146728515625,-1.079010009765625,-0.2716064453125,-0.10577392578125
1772537125442196000,4.632196044921875,-1.3195648193359375,-0.1671905517578125,-0.06671142578125
1772537125452243700,4.64224365234375,-1.5336761474609375,-0.13922119140625,0.0688323974609375
1772537125462291700,4.652291748046875,-1.5854644775390625,-0.3518218994140625,0.133880615234375
1772537125472340700,4.6623408203125,-1.6530609130859375,-0.510772705078125,0.1497650146484375
1772537125482388700,4.672388671875,-1.7792510986328125,-0.6478424072265625,0.102508544921875
1772537125492437000,4.68243701171875,-1.945587158203125,-0.75408935546875,0.0381622314453125
1772537125502485800,4.69248583984375,-2.01702880859375,-0.8007354736328125,0.024078369140625
1772537125512534000,4.702533935546875,-2.017578125,-0.7977294921875,0.0008544921875
1772537125522581800,4.712581787109375,-2.018035888671875,-0.7686309814453125,-0.0405120849609375
1772537125532631000,4.722631103515625,-2.041473388671875,-0.696502685546875,-0.0237579345703125
1772537125542678800,4.7326787109375,-2.040374755859375,-0.6309814453125,0.010650634765625
1772537125552726800,4.742726806640625,-2.0088958740234375,-0.603851318359375,0.022247314453125
1772537125562775800,4.75277587890625,-1.999786376953125,-0.5915985107421875,0.0283050537109375
1772537125572823800,4.76282373046875,-2.0107879638671875,-0.5657806396484375,0.025360107421875
1772537125582871800,4.772871826171875,-1.9602813720703125,-0.518096923828125,0.006744384765625
1772537125592920800,4.7829208984375,-1.8837890625,-0.468994140625,-0.0140380859375
1772537125602968600,4.792968505859375,-1.7899322509765625,-0.4168548583984375,-0.0069427490234375
1772537125613016800,4.803016845703125,-1.656951904296875,-0.3567047119140625,0.013275146484375
1772537125623065600,4.813065673828125,-1.5026092529296875,-0.3114166259765625,0.0206146240234375
1772537125633113900,4.82311376953125,-1.3338470458984375,-0.26373291015625,0.0089874267578125
1772537125643161900,4.833161865234375,-1.188018798828125,-0.236785888671875,-0.011474609375
1772537125653211000,4.8432109375,-1.05914306640625,-0.1993408203125,-0.0381927490234375
1772537125663259000,4.8532587890625,-0.9501190185546875,-0.1480560302734375,-0.0898895263671875
1772537125673306600,4.863306640625,-0.84808349609375,-0.1121978759765625,-0.133575439453125
1772537125683356000,4.87335595703125,-0.727142333984375,-0.088775634765625,-0.139892578125
1772537125693403600,4.883403564453125,-0.6059417724609375,-0.0527191162109375,-0.1328887939453125
1772537125703452000,4.893451904296875,-0.4727935791015625,0.0062255859375,-0.10516357421875
1772537125713500700,4.903500732421875,-0.3474273681640625,0.059600830078125,-0.0712738037109375
1772537125723549000,4.913548828125,-0.2235107421875,0.109466552734375,-0.0318450927734375
1772537125733597000,4.923596923828125,-0.10150146484375,0.1430206298828125,0.012054443359375
1772537125743646000,4.93364599609375,-0.0044097900390625,0.1425628662109375,0.0501251220703125
1772537125753693700,4.943693603515625,0.073455810546875,0.1239776611328125,0.08447265625
1772537125763741700,4.95374169921875,0.1290130615234375,0.1002044677734375,0.1326904296875
1772537125773790700,4.963790771484375,0.1727752685546875,0.0836334228515625,0.1762542724609375
1772537125783838700,4.973838623046875,0.1927032470703125,0.079620361328125,0.202789306640625
1772537125793887000,4.983886962890625,0.2033843994140625,0.0738067626953125,0.2076873779296875
1772537125803935700,4.993935791015625,0.200653076171875,0.06744384765625,0.1786041259765625
1772537125813984000,5.00398388671875,0.194000244140625,0.055206298828125,0.12188720703125
1772537125824032800,5.01403271484375,0.210205078125,0.0217437744140625,0.0608978271484375
1772537125834080800,5.024080810546875,0.167694091796875,-0.0212249755859375,0.0094757080078125
1772537125844128800,5.034128662109375,0.0715179443359375,-0.089080810546875,-0.0195770263671875
1772537125854177800,5.044177734375,-0.0387115478515625,-0.18316650390625,-0.023223876953125
1772537125864225800,5.054225830078125,-0.1371002197265625,-0.2858734130859375,0.0008087158203125
1772537125874273800,5.064273681640625,-0.2620086669921875,-0.36395263671875,0.052337646484375
1772537125884322800,5.07432275390625,-0.4249420166015625,-0.4164581298828125,0.127685546875
1772537125894370800,5.084370849609375,-0.635528564453125,-0.443511962890625,0.180694580078125
1772537125904418800,5.094418701171875,-0.8435211181640625,-0.44744873046875,0.172882080078125
1772537125914467800,5.1044677734375,-0.97119140625,-0.4360198974609375,0.152740478515625
1772537125924515800,5.114515869140625,-1.0365447998046875,-0.3946990966796875,0.10308837890625
1772537125934563800,5.124563720703125,-1.149169921875,-0.3019561767578125,0.0824737548828125
1772537125944612900,5.13461279296875,-1.2761688232421875,-0.2577972412109375,0.043243408203125
1772537125954660900,5.144660888671875,-1.41455078125,-0.3018951416015625,0.0760040283203125
1772537125964708900,5.154708984375,-1.5590667724609375,-0.395233154296875,0.1976165771484375
1772537125974758000,5.1647578125,-1.7303924560546875,-0.4868316650390625,0.263916015625
1772537125984806000,5.174805908203125,-1.9019012451171875,-0.6036376953125,0.20587158203125
1772537125994853600,5.184853515625,-2.01812744140625,-0.751708984375,0.1195220947265625
1772537126004903000,5.19490283203125,-2.086669921875,-0.8182373046875,0.069488525390625
1772537126014950700,5.20495068359375,-2.116455078125,-0.78216552734375,0.01177978515625
1772537126024999000,5.2149990234375,-2.1352081298828125,-0.71441650390625,-0.0558929443359375
1772537126035047700,5.225047607421875,-2.165679931640625,-0.6609344482421875,-0.0769805908203125
1772537126045096000,5.235095947265625,-2.1515960693359375,-0.6301116943359375,-0.0507354736328125
1772537126055144000,5.24514404296875,-2.086639404296875,-0.631195068359375,-0.0110931396484375
1772537126065192200,5.255192138671875,-2.023712158203125,-0.659423828125,0.0293731689453125
1772537126075240200,5.265240234375,-1.9839630126953125,-0.668609619140625,0.0801849365234375
1772537126085288200,5.2752880859375,-1.937896728515625,-0.646514892578125,0.1083221435546875
1772537126095337200,5.285337158203125,-1.876800537109375,-0.6002349853515625,0.1042022705078125
1772537126105385200,5.29538525390625,-1.7952728271484375,-0.5374298095703125,0.091064453125
1772537126115433200,5.30543310546875,-1.69427490234375,-0.4775238037109375,0.0708160400390625
1772537126125482000,5.31548193359375,-1.58868408203125,-0.4037322998046875,0.0250244140625
1772537126135530200,5.3255302734375,-1.4752349853515625,-0.3394927978515625,-0.01068115234375
1772537126145578200,5.335578125,-1.342315673828125,-0.2873687744140625,-0.0419158935546875
1772537126155627300,5.345627197265625,-1.2107086181640625,-0.2328338623046875,-0.0522613525390625
1772537126165675300,5.35567529296875,-1.0688018798828125,-0.1878814697265625,-0.045318603515625
1772537126175723000,5.365722900390625,-0.9390869140625,-0.144561767578125,-0.029998779296875
1772537126185772300,5.375772216796875,-0.812744140625,-0.099822998046875,-0.0184783935546875
1772537126195820000,5.385820068359375,-0.6967315673828125,-0.04681396484375,-0.006195068359375
1772537126205868300,5.395868408203125,-0.575225830078125,-0.0019073486328125,0.00439453125
1772537126215917000,5.4059169921875,-0.4468841552734375,0.0310516357421875,-0.0034027099609375
1772537126225965300,5.41596533203125,-0.325408935546875,0.067138671875,-0.01824951171875
1772537126236013000,5.426012939453125,-0.2207794189453125,0.100616455078125,-0.029571533203125
1772537126246062300,5.436062255859375,-0.1396942138671875,0.13323974609375,-0.015106201171875
1772537126256110000,5.446110107421875,-0.057708740234375,0.14501953125,0.0201263427734375
1772537126266158000,5.456157958984375,0.0367584228515625,0.134979248046875,0.0513458251953125
1772537126276207000,5.46620703125,0.09503173828125,0.13287353515625,0.0790863037109375
1772537126286255000,5.476255126953125,0.1378021240234375,0.121978759765625,0.1127166748046875
1772537126296304000,5.48630419921875,0.1355438232421875,0.09564208984375,0.157562255859375
1772537126306352000,5.49635205078125,0.1322021484375,0.0672607421875,0.1797943115234375
1772537126316400400,5.506400390625,0.153778076171875,0.0423583984375,0.1581268310546875
1772537126326449200,5.51644921875,0.1482086181640625,0.0233917236328125,0.117340087890625
1772537126336497200,5.5264970703125,0.150482177734375,-0.018096923828125,0.0867919921875
1772537126346545200,5.536545166015625,0.1683349609375,-0.0741119384765625,0.04443359375
1772537126356594200,5.54659423828125,0.161376953125,-0.13031005859375,0.018463134765625
1772537126366642200,5.55664208984375,0.1031646728515625,-0.1988372802734375,0.0313720703125
1772537126376690200,5.566690185546875,-0.033416748046875,-0.269500732421875,0.1078338623046875
1772537126386739200,5.5767392578125,-0.208404541015625,-0.3473968505859375,0.22760009765625
1772537126396787200,5.586787109375,-0.3730010986328125,-0.43572998046875,0.322021484375
1772537126406835200,5.596835205078125,-0.521942138671875,-0.5122833251953125,0.36798095703125
1772537126416884200,5.60688427734375,-0.67462158203125,-0.5310211181640625,0.331695556640625
1772537126426932200,5.61693212890625,-0.8335418701171875,-0.4883575439453125,0.2241363525390625
1772537126436980200,5.626980224609375,-0.9618682861328125,-0.4530181884765625,0.07098388671875
1772537126447029000,5.637029052734375,-1.2559051513671875,-0.240142822265625,0.161346435546875
1772537126457077200,5.6470771484375,-1.4578857421875,-0.09197998046875,0.1544342041015625
1772537126467125200,5.657125244140625,-1.548736572265625,-0.13043212890625,0.220367431640625
1772537126477174300,5.66717431640625,-1.6143341064453125,-0.26666259765625,0.4099578857421875
1772537126487222300,5.67722216796875,-1.762664794921875,-0.38189697265625,0.442840576171875
1772537126497270000,5.68727001953125,-1.9444122314453125,-0.470489501953125,0.3448944091796875
1772537126507319300,5.6973193359375,-2.1404266357421875,-0.5764312744140625,0.24578857421875
1772537126517367000,5.707366943359375,-2.2446746826171875,-0.6387786865234375,0.116302490234375
1772537126527415300,5.717415283203125,-2.326385498046875,-0.631317138671875,-0.0212860107421875
1772537126537464000,5.727464111328125,-2.3699188232421875,-0.5890655517578125,-0.126678466796875
1772537126547512300,5.73751220703125,-2.350494384765625,-0.5574493408203125,-0.1552581787109375
1772537126557560300,5.747560302734375,-2.2960052490234375,-0.5477447509765625,-0.0951690673828125
1772537126567609000,5.757609130859375,-2.2010650634765625,-0.561370849609375,0.00653076171875
1772537126577657300,5.7676572265625,-2.10736083984375,-0.5478515625,0.1055450439453125
1772537126587705000,5.777705078125,-2.042877197265625,-0.48626708984375,0.1978759765625
1772537126597754400,5.78775439453125,-1.9626922607421875,-0.3940887451171875,0.268463134765625
1772537126607802000,5.797802001953125,-1.87103271484375,-0.3024139404296875,0.3120574951171875
1772537126617850400,5.807850341796875,-1.7517547607421875,-0.2354736328125,0.3145599365234375
1772537126627899100,5.817899169921875,-1.6161041259765625,-0.1898040771484375,0.280426025390625
1772537126637947100,5.827947021484375,-1.4719390869140625,-0.153228759765625,0.23394775390625
1772537126647995100,5.8379951171875,-1.31103515625,-0.1085205078125,0.2081146240234375
1772537126658044200,5.848044189453125,-1.1593017578125,-0.04925537109375,0.207489013671875
1772537126668092200,5.858092041015625,-1.01171875,-0.0002899169921875,0.2262725830078125
1772537126678140200,5.86814013671875,-0.859588623046875,0.0241851806640625,0.2278289794921875
1772537126688189200,5.878189208984375,-0.7088775634765625,0.039581298828125,0.210540771484375
1772537126698237200,5.8882373046875,-0.591400146484375,0.033355712890625,0.1672821044921875
1772537126708286200,5.8982861328125,-0.5201263427734375,-0.0176239013671875,0.096160888671875
1772537126718334200,5.908334228515625,-0.443359375,-0.061279296875,-0.01336669921875
1772537126728382200,5.91838232421875,-0.37237548828125,-0.062042236328125,-0.1006317138671875
1772537126738431200,5.92843115234375,-0.3173370361328125,-0.0721435546875,-0.13006591796875
1772537126748479200,5.938479248046875,-0.2514190673828125,-0.069091796875,-0.1323089599609375
1772537126758527200,5.94852734375,-0.1563568115234375,-0.0370635986328125,-0.0946044921875
1772537126768576300,5.958576171875,-0.0927276611328125,-0.0084381103515625,-0.0303955078125
1772537126778624300,5.968624267578125,-0.0590362548828125,0.008148193359375,0.0330352783203125
1772537126788672300,5.97867236328125,-0.010223388671875,0.02874755859375,0.072998046875
1772537126798721000,5.988720947265625,0.0438385009765625,0.050994873046875,0.07037353515625
1772537126808769300,5.998769287109375,0.09039306640625,0.0590362548828125,0.0480499267578125
1772537126818817000,6.008817138671875,0.122833251953125,0.0500640869140625,0.05706787109375
1772537126828866300,6.0188662109375,0.1290283203125,0.0323028564453125,0.0733184814453125
1772537126838914000,6.0289140625,0.1207733154296875,0.0125885009765625,0.0900726318359375
1772537126848962000,6.038962158203125,0.0447540283203125,-0.0007476806640625,0.1033477783203125
1772537126859011000,6.049010986328125,-0.051300048828125,-0.0177154541015625,0.092041015625
1772537126869059000,6.05905908203125,-0.138946533203125,-0.042449951171875,0.0743560791015625
1772537126879107300,6.069107421875,-0.197601318359375,-0.0728607177734375,0.0502166748046875
1772537126889156000,6.079156005859375,-0.2568359375,-0.113861083984375,0.0261688232421875
1772537126899204400,6.089204345703125,-0.3846893310546875,-0.15399169921875,0.0351715087890625
1772537126909252000,6.099252197265625,-0.55352783203125,-0.1979522705078125,0.0360260009765625
1772537126919301400,6.10930126953125,-0.7306976318359375,-0.269378662109375,0.0508270263671875
1772537126929349000,6.11934912109375,-0.8988037109375,-0.3408050537109375,0.04461669921875
1772537126939397000,6.129397216796875,-1.0128631591796875,-0.397216796875,0.0442657470703125
1772537126949446100,6.139446044921875,-1.0843658447265625,-0.4224090576171875,0.0877685546875
1772537126959494100,6.149494140625,-1.152099609375,-0.4013824462890625,0.102874755859375
1772537126969542100,6.159542236328125,-1.279449462890625,-0.34173583984375,0.1351165771484375
1772537126979591200,6.169591064453125,-1.430816650390625,-0.28717041015625,0.1896820068359375
1772537126989639200,6.17963916015625,-1.5482940673828125,-0.3518829345703125,0.2430419921875
1772537126999687200,6.189687255859375,-1.6932220458984375,-0.4920501708984375,0.2882843017578125
1772537127009736200,6.199736083984375,-1.8388824462890625,-0.5895233154296875,0.2671661376953125
1772537127019784200,6.2097841796875,-1.9664459228515625,-0.6641693115234375,0.226531982421875
1772537127029832200,6.219832275390625,-2.0994873046875,-0.6875,0.1946258544921875
1772537127039881200,6.229881103515625,-2.2362213134765625,-0.627166748046875,0.1501312255859375
1772537127049929200,6.23992919921875,-2.289215087890625,-0.5673675537109375,0.0947265625
1772537127059978000,6.24997802734375,-2.27655029296875,-0.4946746826171875,0.094879150390625
1772537127070027000,6.260027099609375,-2.2707672119140625,-0.4244537353515625,0.14117431640625
1772537127080075000,6.270074951171875,-2.2190704345703125,-0.3799591064453125,0.178314208984375
1772537127090124000,6.2801240234375,-2.127349853515625,-0.32794189453125,0.2058258056640625
1772537127100172000,6.290172119140625,-2.0359649658203125,-0.2575836181640625,0.2509613037109375
1772537127110220000,6.300219970703125,-1.9737701416015625,-0.1901702880859375,0.2011566162109375
1772537127120269000,6.31026904296875,-1.847564697265625,-0.171295166015625,0.1742401123046875
1772537127130317000,6.320317138671875,-1.6645965576171875,-0.1643218994140625,0.1949615478515625
1772537127140365000,6.330364990234375,-1.4735565185546875,-0.1656341552734375,0.2293243408203125
1772537127150414000,6.3404140625,-1.2772674560546875,-0.148040771484375,0.235809326171875
1772537127160462000,6.350462158203125,-1.1132659912109375,-0.07427978515625,0.216033935546875
1772537127170510000,6.360510009765625,-1.006988525390625,0.0217437744140625,0.1796112060546875
1772537127180559000,6.37055908203125,-0.9326324462890625,0.0738525390625,0.1016845703125
1772537127190607000,6.380607177734375,-0.9123077392578125,0.00244140625,-0.0157623291015625
1772537127200655000,6.390655029296875,-0.839324951171875,-0.100067138671875,-0.1387176513671875
1772537127210704100,6.4007041015625,-0.6999664306640625,-0.1199798583984375,-0.1616973876953125
1772537127220752100,6.410752197265625,-0.5767364501953125,-0.1486663818359375,-0.1567535400390625
1772537127230800100,6.420800048828125,-0.4255218505859375,-0.1415863037109375,-0.2100982666015625
1772537127240849000,6.430848876953125,-0.2646026611328125,-0.1223297119140625,-0.221923828125
1772537127250897200,6.440897216796875,-0.145111083984375,-0.08660888671875,-0.1866912841796875
1772537127260945200,6.450945068359375,-0.05487060546875,-0.038818359375,-0.126190185546875
1772537127270994000,6.460993896484375,-0.0078582763671875,-0.0053863525390625,-0.033935546875
1772537127281042200,6.471042236328125,0.032318115234375,0.0090484619140625,0.06982421875
1772537127291090000,6.48108984375,0.0703125,0.017730712890625,0.1326446533203125
1772537127301139200,6.49113916015625,0.10284423828125,0.018218994140625,0.1529693603515625
1772537127311187000,6.50118701171875,0.109954833984375,0.0233612060546875,0.152435302734375
1772537127321235200,6.511235107421875,0.09161376953125,0.0382080078125,0.1331329345703125
1772537127331284000,6.521283935546875,0.0574951171875,0.0480499267578125,0.1062164306640625
1772537127341332000,6.53133203125,0.02294921875,0.03863525390625,0.055877685546875
1772537127351380200,6.541380126953125,-0.006866455078125,0.0194091796875,0.00445556640625
1772537127361429000,6.551428955078125,-0.0683746337890625,-0.02423095703125,0.0253143310546875
1772537127371477200,6.561477294921875,-0.1910552978515625,-0.10675048828125,0.0966949462890625
1772537127381525000,6.57152490234375,-0.299224853515625,-0.2049102783203125,0.1722412109375
1772537127391574300,6.58157421875,-0.4014739990234375,-0.271148681640625,0.182037353515625
1772537127401622000,6.5916220703125,-0.4948883056640625,-0.28253173828125,0.1294097900390625
1772537127411670000,6.601669921875,-0.548797607421875,-0.2942657470703125,0.0503082275390625
1772537127421719000,6.611718994140625,-0.6346893310546875,-0.31719970703125,-0.0210418701171875
1772537127431767000,6.62176708984375,-0.781890869140625,-0.3304290771484375,-0.0686492919921875
1772537127441815000,6.63181494140625,-0.9513397216796875,-0.3042144775390625,-0.0836944580078125
1772537127451864000,6.641864013671875,-1.1682281494140625,-0.249237060546875,-0.0943450927734375
1772537127461912000,6.651912109375,-1.281646728515625,-0.2021484375,-0.1005096435546875
1772537127471960000,6.6619599609375,-1.315704345703125,-0.2103424072265625,-0.034576416015625
1772537127482009000,6.672009033203125,-1.390380859375,-0.3242340087890625,0.0876922607421875
1772537127492057000,6.68205712890625,-1.5085296630859375,-0.463043212890625,0.1309051513671875
1772537127502105900,6.69210595703125,-1.6647796630859375,-0.5237579345703125,0.1116790771484375
1772537127512154000,6.702154052734375,-1.8269500732421875,-0.528839111328125,0.0289459228515625
1772537127522202000,6.7122021484375,-1.926300048828125,-0.5340118408203125,-0.0234222412109375
1772537127532251100,6.722251220703125,-1.986083984375,-0.5142669677734375,-0.060516357421875
1772537127542299100,6.732299072265625,-1.9886474609375,-0.4645233154296875,-0.100921630859375
1772537127552347000,6.742346923828125,-1.9624176025390625,-0.38360595703125,-0.1152191162109375
1772537127562396200,6.752396240234375,-1.95703125,-0.3126678466796875,-0.0987396240234375
1772537127572444000,6.76244384765625,-1.9521942138671875,-0.2918701171875,-0.05450439453125
1772537127582492200,6.7724921875,-1.918426513671875,-0.305755615234375,0.0149078369140625
1772537127592541000,6.782541015625,-1.88885498046875,-0.32403564453125,0.0767669677734375
1772537127602589200,6.792589111328125,-1.8549652099609375,-0.34051513671875,0.1220703125
1772537127612637000,6.802636962890625,-1.8228912353515625,-0.3419189453125,0.1552886962890625
1772537127622686200,6.812686279296875,-1.8072357177734375,-0.329010009765625,0.171539306640625
1772537127632734000,6.82273388671875,-1.7540283203125,-0.3162841796875,0.1586761474609375
1772537127642782000,6.832781982421875,-1.670654296875,-0.3028717041015625,0.108489990234375
1772537127652831000,6.8428310546875,-1.54815673828125,-0.294281005859375,0.01287841796875
1772537127662879000,6.85287890625,-1.4429473876953125,-0.2578125,-0.0755157470703125
1772537127672927200,6.86292724609375,-1.3431396484375,-0.1796722412109375,-0.10723876953125
1772537127682976000,6.87297607421875,-1.217254638671875,-0.112823486328125,-0.0847625732421875
1772537127693024300,6.883024169921875,-1.09808349609375,-0.0661773681640625,-0.0721893310546875
1772537127703072000,6.893072021484375,-0.9934234619140625,-0.0390777587890625,-0.0711669921875
1772537127713121300,6.903121337890625,-0.913787841796875,-0.021209716796875,-0.048553466796875
1772537127723169000,6.9131689453125,-0.8316192626953125,0.005218505859375,-0.0497589111328125
1772537127733217000,6.923217041015625,-0.747528076171875,0.026824951171875,-0.0585784912109375
1772537127743266000,6.93326611328125,-0.66748046875,0.049957275390625,-0.0576171875
1772537127753314000,6.94331396484375,-0.58245849609375,0.074310302734375,-0.0617218017578125
1772537127763362000,6.953362060546875,-0.4789276123046875,0.080047607421875,-0.068267822265625
1772537127773411000,6.9634111328125,-0.3682403564453125,0.076995849609375,-0.068450927734375
1772537127783459000,6.973458984375,-0.2524261474609375,0.0642242431640625,-0.0420989990234375
1772537127793507000,6.983507080078125,-0.1558685302734375,0.0598602294921875,-0.001251220703125
1772537127803555800,6.993555908203125,-0.0576629638671875,0.0744476318359375,0.0555267333984375
1772537127813604000,7.00360400390625,0.0142822265625,0.0839080810546875,0.104400634765625
1772537127823652000,7.013652099609375,0.07940673828125,0.0584564208984375,0.1297454833984375
1772537127833701000,7.023701171875,0.1226348876953125,0.02099609375,0.1265411376953125
1772537127843749000,7.0337490234375,0.094879150390625,-0.0191192626953125,0.1085357666015625
1772537127853796900,7.043796875,0.1564788818359375,0.002532958984375,0.130462646484375
1772537127863846100,7.05384619140625,0.1217498779296875,0.0098419189453125,0.06463623046875
1772537127873894000,7.063893798828125,0.0774078369140625,-0.0431365966796875,0.0644683837890625
1772537127883942100,7.073942138671875,0.0211944580078125,-0.091888427734375,0.02252197265625
1772537127893991000,7.083990966796875,-0.062103271484375,-0.136260986328125,-0.0008087158203125
1772537127904039200,7.0940390625,-0.199462890625,-0.2027435302734375,-0.007904052734375
1772537127914088000,7.104087890625,-0.3581390380859375,-0.252227783203125,0.01580810546875
1772537127924136200,7.11413623046875,-0.46209716796875,-0.289398193359375,0.0307464599609375
1772537127934184200,7.12418408203125,-0.5575714111328125,-0.33734130859375,-0.0090484619140625
1772537127944233200,7.134233154296875,-0.6866455078125,-0.3729400634765625,-0.0480499267578125
1772537127954281200,7.14428125,-0.8166351318359375,-0.3770294189453125,-0.070281982421875
1772537127964329000,7.154328857421875,-0.94140625,-0.3779449462890625,-0.0526580810546875
1772537127974378000,7.1643779296875,-1.119415283203125,-0.3822021484375,-0.012237548828125
1772537127984426000,7.174426025390625,-1.3310394287109375,-0.3604583740234375,0.0468902587890625
1772537127994474200,7.18447412109375,-1.4868011474609375,-0.353607177734375,0.1805267333984375
1772537128004523000,7.19452294921875,-1.622100830078125,-0.462066650390625,0.2765350341796875
1772537128014571000,7.204571044921875,-1.764801025390625,-0.5660400390625,0.2430572509765625
1772537128024619000,7.214618896484375,-1.9147796630859375,-0.5330352783203125,0.1255035400390625
1772537128034668000,7.22466796875,-2.0557708740234375,-0.526031494140625,0.0078277587890625
1772537128044716000,7.234716064453125,-2.1476287841796875,-0.5303497314453125,-0.0897216796875
1772537128054764000,7.244763916015625,-2.1877899169921875,-0.4981231689453125,-0.1221160888671875
1772537128064812800,7.254812744140625,-2.1427459716796875,-0.4779510498046875,-0.1270294189453125
1772537128074860800,7.26486083984375,-2.0681915283203125,-0.46075439453125,-0.1132049560546875
1772537128084908800,7.27490869140625,-1.963592529296875,-0.456268310546875,-0.0622100830078125
1772537128094957800,7.284957763671875,-1.9005889892578125,-0.4839630126953125,0.0178985595703125
1772537128105005800,7.295005859375,-1.872344970703125,-0.51885986328125,0.105010986328125
1772537128115053800,7.3050537109375,-1.78704833984375,-0.5578155517578125,0.157135009765625
1772537128125102800,7.315102783203125,-1.7278900146484375,-0.5900421142578125,0.163482666015625
1772537128135150800,7.32515087890625,-1.6837310791015625,-0.6007537841796875,0.1669921875
1772537128145198800,7.33519873046875,-1.5996856689453125,-0.56866455078125,0.1650543212890625
1772537128155247900,7.345247802734375,-1.519805908203125,-0.50347900390625,0.1585235595703125
1772537128165295900,7.3552958984375,-1.430206298828125,-0.432159423828125,0.1475830078125
1772537128175343900,7.36534375,-1.3443756103515625,-0.3560028076171875,0.1201934814453125
1772537128185393000,7.375392822265625,-1.2765655517578125,-0.2712554931640625,0.0876007080078125
1772537128195441000,7.38544091796875,-1.166107177734375,-0.2216644287109375,0.053314208984375
1772537128205489000,7.395489013671875,-1.0437774658203125,-0.203765869140625,-0.0053558349609375
1772537128215537700,7.40553759765625,-0.9570465087890625,-0.1912078857421875,-0.0607452392578125
1772537128225585700,7.415585693359375,-0.8571014404296875,-0.142852783203125,-0.102081298828125
1772537128235634000,7.425634033203125,-0.7325592041015625,-0.0679931640625,-0.111358642578125
1772537128245682700,7.4356826171875,-0.6327972412109375,-0.0231170654296875,-0.107025146484375
1772537128255731000,7.44573095703125,-0.544342041015625,-0.015533447265625,-0.08026123046875
1772537128265778700,7.45577880859375,-0.49176025390625,-0.020477294921875,-0.0356903076171875
1772537128275828000,7.465827880859375,-0.4402923583984375,-0.029144287109375,0.0120697021484375
1772537128285875700,7.475875732421875,-0.3706207275390625,-0.0269927978515625,0.0565185546875
1772537128295925000,7.485925048828125,-0.2971954345703125,-0.0119476318359375,0.092193603515625
1772537128305972700,7.49597265625,-0.2198486328125,-0.005615234375,0.10003662109375
1772537128316020700,7.506020751953125,-0.1191558837890625,-0.0085601806640625,0.080291748046875
1772537128326069800,7.51606982421875,-0.01348876953125,-0.0066986083984375,0.058380126953125
1772537128336117800,7.52611767578125,0.0619354248046875,0.0017852783203125,0.0468597412109375
1772537128346166000,7.536166015625,0.1032257080078125,0.01263427734375,0.03741455078125
1772537128356214800,7.54621484375,0.1448516845703125,0.0242156982421875,0.045074462890625
1772537128366263000,7.556262939453125,0.165557861328125,0.0263824462890625,0.0483856201171875
1772537128376310800,7.566310791015625,0.13897705078125,0.0212554931640625,0.046539306640625
1772537128386359800,7.57635986328125,0.106781005859375,0.005218505859375,0.0481719970703125
1772537128396407800,7.58640771484375,0.0613555908203125,-0.03106689453125,0.020782470703125
1772537128406455800,7.596455810546875,-0.0272216796875,-0.055877685546875,-0.0201873779296875
1772537128416504800,7.6065048828125,-0.093017578125,-0.0882415771484375,-0.0196380615234375
1772537128426552800,7.616552734375,-0.187408447265625,-0.1586151123046875,0.081268310546875
1772537128436600800,7.626600830078125,-0.3609619140625,-0.2538299560546875,0.193634033203125
1772537128446649900,7.63664990234375,-0.5828857421875,-0.351226806640625,0.329132080078125
1772537128456697600,7.646697509765625,-0.8687591552734375,-0.384033203125,0.37139892578125
1772537128466745900,7.656745849609375,-1.051239013671875,-0.3560028076171875,0.323455810546875
1772537128476794600,7.666794677734375,-1.079986572265625,-0.3630218505859375,0.18768310546875
1772537128486843000,7.6768427734375,-1.1347198486328125,-0.39117431640625,0.036285400390625
1772537128496891000,7.686890869140625,-1.41064453125,-0.187225341796875,0.03765869140625
1772537128506940000,7.69693994140625,-1.4271697998046875,-0.282745361328125,-0.0782318115234375
1772537128516988000,7.70698779296875,-1.6162567138671875,-0.3032684326171875,0.0842132568359375
1772537128527035600,7.71703564453125,-1.6874847412109375,-0.3644561767578125,0.347442626953125
1772537128537085000,7.7270849609375,-1.8320159912109375,-0.528106689453125,0.4961395263671875
1772537128547132700,7.737132568359375,-2.0072784423828125,-0.6191253662109375,0.53759765625
1772537128557181000,7.747180908203125,-2.0684967041015625,-0.6720428466796875,0.4998016357421875
1772537128567229700,7.757229736328125,-2.115234375,-0.6931915283203125,0.368682861328125
1772537128577278000,7.76727783203125,-2.1237335205078125,-0.672760009765625,0.24212646484375
1772537128587325700,7.77732568359375,-2.136474609375,-0.6176910400390625,0.1329193115234375
1772537128597375000,7.787375,-2.1820526123046875,-0.57147216796875,0.1054534912109375
1772537128607422700,7.797422607421875,-2.2055511474609375,-0.5235443115234375,0.162017822265625
1772537128617470700,7.807470703125,-2.129241943359375,-0.48541259765625,0.2064666748046875
1772537128627519700,7.817519775390625,-2.032470703125,-0.4715118408203125,0.24224853515625
1772537128637567700,7.827567626953125,-1.960418701171875,-0.43328857421875,0.2845916748046875
1772537128647616000,7.837615966796875,-1.880340576171875,-0.330596923828125,0.3174285888671875
1772537128657664800,7.847664794921875,-1.795623779296875,-0.2080535888671875,0.3282012939453125
1772537128667713000,7.857713134765625,-1.65216064453125,-0.1407928466796875,0.33367919921875
1772537128677760800,7.8677607421875,-1.4931640625,-0.0854339599609375,0.30108642578125
1772537128687809800,7.877809814453125,-1.309906005859375,-0.0696563720703125,0.2410125732421875
1772537128697857800,7.88785791015625,-1.1011199951171875,-0.07086181640625,0.1382293701171875
1772537128707905800,7.89790576171875,-0.870452880859375,-0.083770751953125,0.060638427734375
1772537128717954800,7.907954833984375,-0.6988372802734375,-0.1354827880859375,0.0125732421875
1772537128728002800,7.9180029296875,-0.591033935546875,-0.23895263671875,-0.0612640380859375
1772537128738050800,7.92805078125,-0.4951019287109375,-0.3389129638671875,-0.0919647216796875
1772537128748099800,7.938099853515625,-0.3955078125,-0.356719970703125,-0.0898284912109375
1772537128758147800,7.94814794921875,-0.3154754638671875,-0.318450927734375,-0.0732269287109375
1772537128768195800,7.95819580078125,-0.247100830078125,-0.2700653076171875,-0.032958984375
1772537128778244600,7.96824462890625,-0.184356689453125,-0.2134246826171875,-0.0010986328125
1772537128788292900,7.97829296875,-0.157073974609375,-0.14251708984375,0.0153961181640625
1772537128798340900,7.9883408203125,-0.1247100830078125,-0.0665283203125,0.037689208984375
1772537128808390000,7.998389892578125,-0.0803985595703125,0.009002685546875,0.0468597412109375
1772537128818438000,8.00843798828125,-0.0491180419921875,0.064056396484375,0.046783447265625
1772537128828485600,8.018485595703124,-0.03985595703125,0.09381103515625,0.0530853271484375
1772537128838535000,8.028534912109375,-0.04205322265625,0.105224609375,0.0753021240234375
1772537128848582700,8.038582763671876,-0.0044403076171875,0.101226806640625,0.07855224609375
1772537128858631000,8.048630859375,0.0282440185546875,0.0959014892578125,0.072052001953125
1772537128868679700,8.0586796875,0.0544586181640625,0.076080322265625,0.06072998046875
1772537128878728000,8.06872802734375,0.0780487060546875,0.0525054931640625,0.05853271484375
1772537128888776000,8.07877587890625,0.066436767578125,0.0419464111328125,0.0462646484375
1772537128898824700,8.08882470703125,0.05767822265625,0.0200958251953125,0.0303497314453125
1772537128908873000,8.098873046875,-0.0142669677734375,-0.010528564453125,0.0276641845703125
1772537128918921700,8.108921630859374,-0.1067352294921875,-0.073211669921875,0.0724334716796875
1772537128928970000,8.118969970703125,-0.222625732421875,-0.140350341796875,0.134368896484375
1772537128939017700,8.129017822265626,-0.367828369140625,-0.212738037109375,0.2162628173828125
1772537128949066800,8.139066650390625,-0.535064697265625,-0.33709716796875,0.2697906494140625
1772537128959114800,8.14911474609375,-0.7145843505859375,-0.42852783203125,0.264923095703125
1772537128969162800,8.159162841796874,-0.8776092529296875,-0.4366302490234375,0.2219390869140625
1772537128979211800,8.169211669921875,-0.97576904296875,-0.416717529296875,0.122833251953125
1772537128989259800,8.179259765625,-1.0890350341796875,-0.3760528564453125,-0.0371551513671875
1772537128999307800,8.189307861328125,-1.2495880126953125,-0.3994293212890625,-0.16094970703125
1772537129009356800,8.199356689453126,-1.4356536865234375,-0.4308319091796875,-0.1649017333984375
1772537129019404800,8.20940478515625,-1.5921630859375,-0.366241455078125,-0.0533294677734375
1772537129029452800,8.219452880859375,-1.6695404052734375,-0.4113616943359375,0.189300537109375
1772537129039501800,8.229501708984374,-1.745391845703125,-0.5173492431640625,0.370269775390625
1772537129049549800,8.2395498046875,-1.92742919921875,-0.5928802490234375,0.436279296875
1772537129059597800,8.249597900390626,-2.134002685546875,-0.66302490234375,0.438201904296875
1772537129069646800,8.259646728515625,-2.2449188232421875,-0.6649627685546875,0.3913726806640625
1772537129079695000,8.269695068359376,-2.250946044921875,-0.5846405029296875,0.3033294677734375
1772537129089742800,8.279742919921874,-2.1990509033203125,-0.5409698486328125,0.16412353515625
1772537129099792100,8.289792236328125,-2.15740966796875,-0.4985504150390625,0.0890960693359375
1772537129109840000,8.29983984375,-2.0966949462890625,-0.497711181640625,0.0653533935546875
1772537129119888000,8.309887939453125,-2.0165557861328125,-0.5573577880859375,0.053863525390625
1772537129129937000,8.31993701171875,-1.9416961669921875,-0.5997772216796875,0.0881805419921875
1772537129139985000,8.32998486328125,-1.85345458984375,-0.60479736328125,0.1596832275390625
1772537129150033000,8.340032958984375,-1.7942657470703125,-0.548553466796875,0.257965087890625
1772537129160082000,8.35008203125,-1.741302490234375,-0.432098388671875,0.3582611083984375
1772537129170130000,8.3601298828125,-1.6484527587890625,-0.3413238525390625,0.373626708984375
1772537129180178000,8.370177978515626,-1.5654754638671875,-0.2764434814453125,0.3063507080078125
1772537129190227000,8.38022705078125,-1.4757537841796875,-0.2279205322265625,0.214996337890625
1772537129200275000,8.39027490234375,-1.381256103515625,-0.177734375,0.1137847900390625
1772537129210323000,8.400322998046875,-1.3013153076171875,-0.124542236328125,0.01702880859375
1772537129220372000,8.4103720703125,-1.205810546875,-0.1075286865234375,-0.0532379150390625
1772537129230420000,8.420419921875,-1.09033203125,-0.13116455078125,-0.120025634765625
1772537129240468000,8.430468017578125,-0.986114501953125,-0.1655120849609375,-0.13458251953125
1772537129250517000,8.44051708984375,-0.86785888671875,-0.1522216796875,-0.111236572265625
1772537129260565000,8.45056494140625,-0.7733917236328125,-0.1146697998046875,-0.066680908203125
1772537129270613000,8.460613037109376,-0.650054931640625,-0.064697265625,0.0107269287109375
1772537129280661800,8.470661865234375,-0.5186004638671875,-0.0101165771484375,0.080108642578125
1772537129290710000,8.4807099609375,-0.4507293701171875,0.0439453125,0.11102294921875
1772537129300757800,8.4907578125,-0.349029541015625,0.0964508056640625,0.118743896484375
1772537129310807000,8.50080712890625,-0.2178497314453125,0.1275787353515625,0.1054534912109375
1772537129320854800,8.510854736328126,-0.1467132568359375,0.139862060546875,0.1049041748046875
1772537129330903000,8.520903076171875,-0.1202850341796875,0.1330108642578125,0.1043243408203125
1772537129340951800,8.530951904296876,-0.0835113525390625,0.0959320068359375,0.0899810791015625
1772537129350999800,8.540999755859374,0.018096923828125,0.034759521484375,0.0714263916015625
1772537129361048000,8.551048095703125,0.0956573486328125,-0.01702880859375,0.044891357421875
1772537129371096800,8.561096923828124,0.144287109375,-0.0499114990234375,0.0190887451171875
1772537129381145000,8.57114501953125,0.168670654296875,-0.05126953125,0.018585205078125
1772537129391192800,8.58119287109375,0.183624267578125,-0.0394287109375,0.0177459716796875
1772537129401242000,8.5912421875,0.1743316650390625,-0.030975341796875,0.01763916015625
1772537129411289900,8.601289794921875,0.14605712890625,-0.0260467529296875,0.0319366455078125
1772537129421337900,8.611337890625,0.094482421875,-0.0156707763671875,0.0411376953125
1772537129431387000,8.621386962890625,0.033355712890625,-0.011077880859375,0.0366973876953125
1772537129441435000,8.631434814453126,-0.04791259765625,-0.004150390625,-0.0032196044921875
1772537129451483100,8.641483154296875,-0.149932861328125,0.0031280517578125,-0.0441741943359375
1772537129461532000,8.651531982421876,-0.2339935302734375,-0.02447509765625,-0.038970947265625
1772537129471580000,8.661579833984375,-0.3466644287109375,-0.1015472412109375,0.00909423828125
1772537129481628000,8.6716279296875,-0.5264892578125,-0.2119903564453125,0.107452392578125
1772537129491677000,8.681677001953124,-0.706756591796875,-0.351043701171875,0.2726593017578125
1772537129501725000,8.691724853515625,-0.9145050048828125,-0.5117034912109375,0.5128326416015625
1772537129511774000,8.70177392578125,-1.1392059326171875,-0.7730865478515625,0.8716888427734375
1772537129521822000,8.711822021484375,-1.2889404296875,-0.5300445556640625,0.48260498046875
1772537129531870000,8.721869873046876,-1.1601104736328125,-0.083221435546875,-0.2393798828125
1772537129541919000,8.7319189453125,-1.3483123779296875,-0.0198822021484375,-0.5102691650390625
1772537129551967000,8.741967041015625,-1.299560546875,-0.12518310546875,-0.4239501953125
1772537129562014700,8.7520146484375,-1.1966094970703125,-0.08392333984375,0.04266357421875
1772537129572064000,8.76206396484375,-1.424530029296875,-0.1616363525390625,0.482818603515625
1772537129582111700,8.77211181640625,-1.5886383056640625,-0.331024169921875,0.652587890625
1772537129592160000,8.782159912109375,-1.672882080078125,-0.3516387939453125,0.6808624267578125
1772537129602208800,8.792208740234376,-1.7951812744140625,-0.200469970703125,0.6344146728515625
1772537129612257000,8.802257080078125,-1.8406524658203125,-0.1565704345703125,0.466156005859375
1772537129622305000,8.812304931640625,-1.8375701904296875,-0.2186279296875,0.27593994140625
1772537129632354000,8.82235400390625,-1.8155059814453125,-0.2480621337890625,0.1675262451171875
1772537129642402000,8.832402099609375,-1.7845001220703125,-0.30413818359375,0.0924530029296875
1772537129652449800,8.84244970703125,-1.828277587890625,-0.325775146484375,-0.0340118408203125
1772537129662499000,8.8524990234375,-1.7567291259765625,-0.2865753173828125,-0.1277008056640625
1772537129672546800,8.862546875,-1.6786041259765625,-0.3496246337890625,-0.181793212890625
1772537129682595000,8.872594970703124,-1.6618194580078125,-0.404998779296875,-0.1302032470703125
1772537129692643800,8.882643798828125,-1.5913238525390625,-0.3647308349609375,-0.0731201171875
1772537129702692000,8.892692138671874,-1.535003662109375,-0.283538818359375,-0.0044403076171875
1772537129712739800,8.90273974609375,-1.4541473388671875,-0.2038421630859375,0.0221099853515625
1772537129722789000,8.9127890625,-1.3869476318359375,-0.1946258544921875,0.034942626953125
1772537129732836900,8.9228369140625,-1.3617401123046875,-0.188751220703125,0.0246734619140625
1772537129742884900,8.932884765625,-1.3652801513671875,-0.1824951171875,0.0078277587890625
1772537129752934000,8.942933837890624,-1.2993011474609375,-0.157501220703125,-0.00482177734375
1772537129762982000,8.95298193359375,-1.2244720458984375,-0.1316986083984375,-0.015533447265625
1772537129773030100,8.963030029296876,-1.1672821044921875,-0.1120147705078125,-0.015869140625
