time,seconds_elapsed,z,y,x
1772536763590087000,0.0850869140625,-0.2543059289455414,-0.1408427506685257,-0.01581715978682041
1772536763600136000,0.095135986328125,-0.21280458569526672,-0.08116824179887772,-0.03200891241431236
1772536763610185000,0.10518505859375,-0.17897965013980865,0.00841536559164524,-0.0193193256855011
1772536763620233000,0.11523291015625,-0.16093620657920837,0.03970138356089592,-0.010171633213758469
1772536763630282000,0.125281982421875,-0.15056388080120087,0.004410319030284882,-0.014525824226439
1772536763640331000,0.1353310546875,-0.15754695236682892,-0.08200952410697937,-0.03532963991165161
1772536763650379000,0.14537890625,-0.18127769231796265,-0.17683012783527374,-0.06569614261388779
1772536763660428000,0.155427978515625,-0.17630477249622345,-0.2742035388946533,-0.08456037938594818
1772536763670476800,0.165476806640625,-0.15036442875862122,-0.3518299460411072,-0.0816647931933403
1772536763680524800,0.17552490234375,-0.12850838899612427,-0.37145426869392395,-0.051902107894420624
1772536763690573800,0.18557373046875,-0.0964696854352951,-0.3253900706768036,0.007552767172455788
1772536763700623000,0.195623046875,-0.038213297724723816,-0.243323415517807,0.08291010558605194
1772536763710670800,0.2056708984375,0.0055643487721681595,-0.16518637537956238,0.1626865416765213
1772536763720720100,0.21572021484375,0.054516978561878204,-0.106736920773983,0.21312442421913147
1772536763730769000,0.225768798828125,0.11248815804719925,-0.07307549566030502,0.21934598684310913
1772536763740817000,0.23581689453125,0.17123988270759583,-0.028977280482649803,0.20426130294799805
1772536763750866000,0.245865966796875,0.21485060453414917,0.005208595655858517,0.15873238444328308
1772536763760915000,0.2559150390625,0.25467976927757263,0.05092228576540947,0.11634152382612228
1772536763770963000,0.265962890625,0.27959144115448,0.1093129888176918,0.10826636850833893
1772536763781012000,0.276011962890625,0.2993297278881073,0.13668549060821533,0.1407284289598465
1772536763791061000,0.28606103515625,0.3219173848628998,0.11912144720554352,0.20935334265232086
1772536763801108700,0.296108642578125,0.3544686734676361,0.08489157259464264,0.28884923458099365
1772536763811158000,0.306157958984375,0.39983633160591125,0.06340909004211426,0.364105761051178
1772536763821207000,0.31620703125,0.4407326281070709,0.050653617829084396,0.4040941894054413
1772536763831255000,0.326255126953125,0.4715823829174042,0.053793106228113174,0.4052416682243347
1772536763841303800,0.3363037109375,0.4978483319282532,0.07617218047380447,0.37501904368400574
1772536763851352000,0.34635205078125,0.5415664911270142,0.10652679204940796,0.31693723797798157
1772536763861400800,0.35640087890625,0.5770557522773743,0.07615476846694946,0.2365894317626953
1772536763871449900,0.366449951171875,0.5803166627883911,-0.009839562699198723,0.14613723754882812
1772536763881497900,0.376497802734375,0.5648322105407715,-0.10884923487901688,0.06483493000268936
1772536763891547000,0.386546875,0.5549677610397339,-0.1913236826658249,-0.0019361863378435373
1772536763901596000,0.396595947265625,0.5209383964538574,-0.26300162076950073,-0.05521618574857712
1772536763911644000,0.406643798828125,0.46571114659309387,-0.3335230350494385,-0.09628012031316757
1772536763921693000,0.41669287109375,0.405333548784256,-0.39556270837783813,-0.12849131226539612
1772536763931742000,0.426741943359375,0.34916675090789795,-0.40975379943847656,-0.1401822865009308
1772536763941790000,0.4367900390625,0.2991826832294464,-0.3962651491165161,-0.1339542120695114
1772536763951839000,0.4468388671875,0.2975504398345947,-0.3179049491882324,-0.1095847338438034
1772536763961887700,0.4568876953125,0.3108699917793274,-0.1785620003938675,-0.0553385466337204
1772536763971936000,0.46693603515625,0.32322782278060913,-0.05955450236797333,0.0011251121759414673
1772536763981984800,0.47698486328125,0.34299832582473755,-0.002335154917091131,0.05240987241268158
1772536763992034000,0.487033935546875,0.3653040826320648,0.022354332730174065,0.09939267486333847
1772536764002081800,0.497081787109375,0.3721417486667633,0.052261631935834885,0.15511372685432434
1772536764012131000,0.507131103515625,0.3706905245780945,0.09233623743057251,0.21300408244132996
1772536764022179800,0.517179931640625,0.37529271841049194,0.1430063545703888,0.2722165286540985
1772536764032228000,0.52722802734375,0.3849545419216156,0.18734632432460785,0.3128984272480011
1772536764042276900,0.53727685546875,0.37648409605026245,0.21812953054904938,0.3289269208908081
1772536764052326000,0.547325927734375,0.35066598653793335,0.21736423671245575,0.31832683086395264
1772536764062374000,0.557373779296875,0.3152789771556854,0.16404402256011963,0.2820100784301758
1772536764072423000,0.5674228515625,0.28595054149627686,0.08371961116790771,0.22477900981903076
1772536764082472000,0.577471923828125,0.2693777084350586,0.016027648001909256,0.17484579980373383
1772536764092520000,0.58752001953125,0.24859091639518738,0.0027058543637394905,0.13756459951400757
1772536764102569000,0.59756884765625,0.221329465508461,0.028405889868736267,0.10429453104734421
1772536764112618000,0.607617919921875,0.190590500831604,0.03810510039329529,0.06250044703483582
1772536764122666000,0.617666015625,0.16584068536758423,0.02433815598487854,0.01630551740527153
1772536764132715000,0.627715087890625,0.16120892763137817,0.014672277495265007,-0.026906859129667282
1772536764142763800,0.637763671875,0.16893021762371063,0.03371307998895645,-0.05922192335128784
1772536764152812000,0.64781201171875,0.16789864003658295,0.03118468075990677,-0.08915741741657257
1772536764162860800,0.65786083984375,0.1603405922651291,-0.014000373892486095,-0.12173347175121307
1772536764172910000,0.66791015625,0.1506272405385971,-0.0827750414609909,-0.16289196908473969
1772536764182957800,0.677957763671875,0.13713139295578003,-0.11990243196487427,-0.2024790644645691
1772536764193007000,0.688007080078125,0.11958393454551697,-0.11003347486257553,-0.23776695132255554
1772536764203054800,0.698054931640625,0.10512030124664307,-0.05766481161117554,-0.2591121792793274
1772536764213104000,0.708104248046875,0.10452864319086075,0.023369338363409042,-0.28060150146484375
1772536764223153000,0.71815283203125,0.11276020854711533,0.10612759739160538,-0.3150465488433838
1772536764233201200,0.728201171875,0.1341535598039627,0.1780928671360016,-0.34056147933006287
1772536764243250000,0.73825,0.16797010600566864,0.24333417415618896,-0.34525397419929504
1772536764253299000,0.748298828125,0.19507968425750732,0.2798638641834259,-0.330319881439209
1772536764263347000,0.758346923828125,0.2228868305683136,0.29754912853240967,-0.2991718351840973
1772536764273396000,0.76839599609375,0.24209094047546387,0.30925673246383667,-0.26018327474594116
1772536764283445000,0.778445068359375,0.2430635243654251,0.2849487364292145,-0.22971168160438538
1772536764293493000,0.788492919921875,0.2322615534067154,0.2457466870546341,-0.21040649712085724
1772536764303542000,0.7985419921875,0.21608099341392517,0.20011821389198303,-0.2069728821516037
1772536764313591000,0.808591064453125,0.1939467489719391,0.15608040988445282,-0.20786771178245544
1772536764323639000,0.81863916015625,0.17523804306983948,0.12078553438186646,-0.21150346100330353
1772536764333688000,0.82868798828125,0.15777184069156647,0.080695241689682,-0.21012727916240692
1772536764343736800,0.83873681640625,0.1499735713005066,0.042873553931713104,-0.2016456425189972
1772536764353785000,0.84878515625,0.16070784628391266,0.02627699449658394,-0.17647375166416168
1772536764363833900,0.858833740234375,0.17737418413162231,0.034068070352077484,-0.13517610728740692
1772536764373883100,0.868883056640625,0.19039084017276764,0.04029811546206474,-0.10058655589818954
1772536764383931000,0.878930908203125,0.19040840864181519,0.02667498029768467,-0.07591690123081207
1772536764393980000,0.88897998046875,0.172190323472023,0.005300885997712612,-0.06506379693746567
1772536764404029000,0.89902880859375,0.1297539323568344,-0.024013325572013855,-0.06799513846635818
1772536764414077000,0.909076904296875,0.07648524641990662,-0.06112181767821312,-0.06651872396469116
1772536764424126000,0.9191259765625,0.023811649531126022,-0.10259336233139038,-0.04849470779299736
1772536764434175000,0.929175048828125,-0.027077164500951767,-0.11709364503622055,0.0029746857471764088
1772536764444223000,0.939222900390625,-0.0673936977982521,-0.11396416276693344,0.08184739202260971
1772536764454272000,0.94927197265625,-0.09064141660928726,-0.1140960231423378,0.18204084038734436
1772536764464317700,0.959317626953125,-0.10794636607170105,-0.11845642328262329,0.27145886421203613
1772536764474366000,0.969365966796875,-0.12452463805675507,-0.11788332462310791,0.3412768244743347
1772536764484414700,0.979414794921875,-0.13672298192977905,-0.0940040871500969,0.3684610426425934
1772536764494464000,0.989464111328125,-0.15722757577896118,-0.05071348696947098,0.35932493209838867
1772536764504511700,0.99951171875,-0.1857079565525055,-0.002957414835691452,0.3279139995574951
1772536764514561000,1.00956103515625,-0.2278330773115158,0.041325852274894714,0.27966734766960144
1772536764524608800,1.01960888671875,-0.28141987323760986,0.062449246644973755,0.22969737648963928
1772536764534658000,1.029657958984375,-0.32899948954582214,0.07818390429019928,0.19244466722011566
1772536764544706800,1.039706787109375,-0.35709822177886963,0.11490090936422348,0.16959474980831146
1772536764554755000,1.049755126953125,-0.3713643252849579,0.18594318628311157,0.17536643147468567
1772536764564803800,1.059803955078125,-0.36607447266578674,0.24063119292259216,0.20427584648132324
1772536764574852900,1.069852783203125,-0.35639244318008423,0.2724500000476837,0.24359042942523956
1772536764584900900,1.07990087890625,-0.3452971875667572,0.2847388982772827,0.28783461451530457
1772536764594950000,1.089949951171875,-0.3117642104625702,0.3484671413898468,0.32642126083374023
1772536764604999000,1.0999990234375,-0.27373504638671875,0.3968285620212555,0.3320722281932831
1772536764615047000,1.110046875,-0.2568522095680237,0.3799624443054199,0.2935236692428589
1772536764625096000,1.120095947265625,-0.26373594999313354,0.26426780223846436,0.2084181159734726
1772536764635145000,1.13014501953125,-0.29217174649238586,0.10516197234392166,0.10060559213161469
1772536764645193000,1.14019287109375,-0.3224470913410187,-0.0412498377263546,0.028349237516522408
1772536764655242000,1.150241943359375,-0.35681164264678955,-0.20976018905639648,-0.011888949200510979
1772536764665290800,1.160290771484375,-0.40318208932876587,-0.35521671175956726,-0.010611429810523987
1772536764675339000,1.170339111328125,-0.44918835163116455,-0.4045974314212799,0.0058907316997647285
1772536764685387800,1.1803876953125,-0.49129027128219604,-0.37540093064308167,-0.0020707882940769196
1772536764695437000,1.19043701171875,-0.5142729878425598,-0.2945595383644104,-0.048810720443725586
1772536764705484800,1.20048486328125,-0.5279938578605652,-0.17885024845600128,-0.1151423379778862
1772536764715534000,1.2105341796875,-0.5364024639129639,-0.08278419077396393,-0.17734688520431519
1772536764725582800,1.220582763671875,-0.544525682926178,0.018200745806097984,-0.21250221133232117
1772536764735631000,1.230631103515625,-0.517123818397522,0.11252713203430176,-0.2159460186958313
1772536764745680000,1.240679931640625,-0.4839153289794922,0.17178912460803986,-0.18347810208797455
1772536764755729000,1.25072900390625,-0.44929444789886475,0.1764114797115326,-0.12535952031612396
1772536764765777000,1.26077685546875,-0.40391018986701965,0.14521655440330505,-0.04398370161652565
1772536764775826000,1.270825927734375,-0.3472370505332947,0.10309284925460815,0.05223844572901726
1772536764785875000,1.280875,-0.29531288146972656,0.04907355457544327,0.14789199829101562
1772536764795923000,1.2909228515625,-0.2648102641105652,-0.036650169640779495,0.20877505838871002
1772536764805972000,1.300971923828125,-0.23617810010910034,-0.12523142993450165,0.22925050556659698
1772536764816021000,1.31102099609375,-0.22664771974086761,-0.13389556109905243,0.21708936989307404
1772536764826069000,1.321069091796875,-0.23419778048992157,-0.07253953069448471,0.1853029429912567
1772536764836118000,1.331117919921875,-0.2536562979221344,-0.0287493783980608,0.11622484773397446
1772536764846166000,1.341166015625,-0.27652034163475037,-0.020381193608045578,0.011425996199250221
1772536764856215000,1.351215087890625,-0.2966150939464569,-0.000966452993452549,-0.10348214209079742
1772536764866263800,1.361263916015625,-0.3137328326702118,0.06482906639575958,-0.19783741235733032
1772536764876311800,1.371311767578125,-0.32804054021835327,0.14722274243831635,-0.261513888835907
1772536764886360800,1.38136083984375,-0.3299116790294647,0.19578148424625397,-0.29715418815612793
1772536764896410000,1.39141015625,-0.33347976207733154,0.17446061968803406,-0.3153154253959656
1772536764906457900,1.401457763671875,-0.3164922595024109,0.09131886065006256,-0.30222734808921814
1772536764916507000,1.4115068359375,-0.2677418291568756,0.06255461275577545,-0.23626506328582764
1772536764926556000,1.421555908203125,-0.22326195240020752,0.11653155833482742,-0.12249456346035004
1772536764936604000,1.43160400390625,-0.19427387416362762,0.1575392633676529,-0.017579790204763412
1772536764946653000,1.44165283203125,-0.16406165063381195,0.1110985279083252,0.054547399282455444
1772536764956702000,1.451701904296875,-0.15572994947433472,0.004276738502085209,0.09435074031352997
1772536764966750000,1.46175,-0.15873825550079346,-0.09114565700292587,0.09795746207237244
1772536764976799000,1.471799072265625,-0.16794618964195251,-0.14980043470859528,0.08378515392541885
1772536764986848000,1.481847900390625,-0.1764528453350067,-0.14031346142292023,0.07654934376478195
1772536764996895700,1.491895751953125,-0.1848735809326172,-0.09931670129299164,0.07477042078971863
1772536765006944800,1.50194482421875,-0.20206081867218018,-0.08400086313486099,0.07257118076086044
1772536765016994000,1.511994140625,-0.2141808122396469,-0.09606621414422989,0.059571340680122375
1772536765027041800,1.522041748046875,-0.23116645216941833,-0.11611848324537277,0.038030095398426056
1772536765037091000,1.532091064453125,-0.23607972264289856,-0.12699644267559052,0.011655746027827263
1772536765047139800,1.542139892578125,-0.23960360884666443,-0.12465471774339676,-0.010939843952655792
1772536765057187800,1.552187744140625,-0.22716237604618073,-0.09515002369880676,-0.01227694284170866
1772536765067236900,1.56223681640625,-0.21471449732780457,-0.0545290969312191,-0.0029891685117036104
1772536765077284900,1.572284912109375,-0.19292759895324707,-0.009831863455474377,0.0013147762510925531
1772536765087334000,1.582333984375,-0.16608239710330963,0.026843592524528503,-0.006289347540587187
1772536765097382700,1.592382568359375,-0.13892385363578796,0.05618009716272354,-0.02667618915438652
1772536765107431000,1.602430908203125,-0.11551360785961151,0.07056329399347305,-0.04777827486395836
1772536765117479700,1.612479736328125,-0.08107341825962067,0.0837567076086998,-0.05573273077607155
1772536765127529000,1.622529052734375,-0.045313287526369095,0.10602925717830658,-0.03942060098052025
1772536765137576700,1.63257666015625,0.006140338256955147,0.13896790146827698,-0.0013985008699819446
1772536765147626000,1.6426259765625,0.07062318921089172,0.13321414589881897,0.043645139783620834
1772536765157674800,1.6526748046875,0.1462344527244568,0.09287890791893005,0.09782098978757858
1772536765167723000,1.662722900390625,0.2136683464050293,0.025363508611917496,0.13550230860710144
1772536765177771800,1.672771728515625,0.28877437114715576,-0.033221352845430374,0.1844223141670227
1772536765187820800,1.68282080078125,0.35402339696884155,-0.11497347056865692,0.22447358071804047
1772536765197868800,1.692868896484375,0.40056636929512024,-0.18993477523326874,0.2564243674278259
1772536765207917800,1.702917724609375,0.42114463448524475,-0.23578961193561554,0.27702710032463074
1772536765217966800,1.712966796875,0.4214320480823517,-0.25524404644966125,0.28052911162376404
1772536765228014800,1.723014892578125,0.41862985491752625,-0.22299930453300476,0.2740381956100464
1772536765238063900,1.73306396484375,0.4158191680908203,-0.1129676029086113,0.2722663879394531
1772536765248113000,1.74311279296875,0.42263391613960266,0.024782804772257805,0.25725308060646057
1772536765258161000,1.753160888671875,0.44586023688316345,0.15539903938770294,0.23072470724582672
1772536765268210000,1.7632099609375,0.48283690214157104,0.238724023103714,0.19328679144382477
1772536765278258700,1.7732587890625,0.5142068862915039,0.22628064453601837,0.14357778429985046
1772536765288307000,1.783306884765625,0.5109511613845825,0.13236479461193085,0.09462516009807587
1772536765298355700,1.793355712890625,0.48051127791404724,0.022513041272759438,0.06649304926395416
1772536765308404000,1.803404052734375,0.4406091272830963,-0.04329819604754448,0.06021197885274887
1772536765318452700,1.81345263671875,0.401852548122406,-0.06760401278734207,0.0678451731801033
1772536765328502000,1.823501953125,0.36108672618865967,-0.09137804806232452,0.0703650563955307
1772536765338549800,1.8335498046875,0.321328341960907,-0.134407177567482,0.06527237594127655
1772536765348599000,1.84359912109375,0.29300615191459656,-0.1699361503124237,0.06394372135400772
1772536765358647800,1.853647705078125,0.28223153948783875,-0.1551382839679718,0.07786013931035995
1772536765368696000,1.863696044921875,0.28665024042129517,-0.07057678699493408,0.09241777658462524
1772536765378744800,1.873744873046875,0.30192872881889343,0.05285516753792763,0.1060454398393631
1772536765388793900,1.8837939453125,0.3198491334915161,0.16485492885112762,0.09639894217252731
1772536765398841900,1.893841796875,0.3412231504917145,0.24052166938781738,0.07363579422235489
1772536765408891000,1.903890869140625,0.3501410186290741,0.2769260108470917,0.05426822230219841
1772536765418940000,1.91393994140625,0.345988392829895,0.27010929584503174,0.06348451226949692
1772536765428988000,1.92398779296875,0.3380463123321533,0.22942578792572021,0.10980992764234543
1772536765439037000,1.934036865234375,0.32635733485221863,0.18836668133735657,0.1805761158466339
1772536765449086000,1.9440859375,0.3111799955368042,0.14416246116161346,0.24564485251903534
1772536765459134200,1.95413427734375,0.297244668006897,0.10940045863389969,0.283785343170166
1772536765469183000,1.964182861328125,0.2649591565132141,0.07415458559989929,0.2975112795829773
1772536765479232000,1.97423193359375,0.22712697088718414,0.07810696959495544,0.2928973138332367
1772536765489280000,1.984280029296875,0.19975578784942627,0.1177087053656578,0.27654311060905457
1772536765499329000,1.9943291015625,0.17283745110034943,0.16243307292461395,0.23542183637619019
1772536765509377000,2.004376953125,0.14628280699253082,0.16077232360839844,0.17272064089775085
1772536765519426000,2.014426025390625,0.14944471418857574,0.13070905208587646,0.11071939766407013
1772536765529475000,2.02447509765625,0.13875824213027954,0.17316490411758423,0.062454137951135635
1772536765539523000,2.034523193359375,0.12755730748176575,0.18836075067520142,0.003485736669972539
1772536765549572000,2.044572021484375,0.13888800144195557,0.14978939294815063,-0.0520012266933918
1772536765559621000,2.05462109375,0.14227566123008728,0.07590597867965698,-0.0840412974357605
1772536765569669000,2.064669189453125,0.11397264152765274,-0.0556163564324379,-0.11435365676879883
1772536765579718100,2.07471826171875,0.09957514703273773,-0.1794450879096985,-0.13093556463718414
1772536765589767000,2.084766845703125,0.07067453116178513,-0.24773439764976501,-0.12685294449329376
1772536765599815200,2.094815185546875,0.027201587334275246,-0.29604482650756836,-0.13113978505134583
1772536765609864000,2.104864013671875,-0.014315761625766754,-0.33202654123306274,-0.16308307647705078
1772536765619913200,2.114913330078125,-0.044779494404792786,-0.33987680077552795,-0.2097054421901703
1772536765629961000,2.1249609375,-0.06840306520462036,-0.32402700185775757,-0.24792179465293884
1772536765640010200,2.13501025390625,-0.08394390344619751,-0.26600104570388794,-0.27471914887428284
1772536765650059000,2.14505908203125,-0.08368424326181412,-0.18790917098522186,-0.29144755005836487
1772536765660107000,2.15510693359375,-0.06606782227754593,-0.09061450511217117,-0.30443328619003296
1772536765670156000,2.165156005859375,-0.034341052174568176,0.020540785044431686,-0.31056761741638184
1772536765680205000,2.175205078125,0.00028197839856147766,0.14440271258354187,-0.31251710653305054
1772536765690253000,2.185253173828125,0.03448468819260597,0.24201714992523193,-0.30837324261665344
1772536765700302000,2.195302001953125,0.05803588405251503,0.27721652388572693,-0.32159677147865295
1772536765710351000,2.20535107421875,0.06868293136358261,0.26384344696998596,-0.3386133015155792
1772536765720399000,2.215399169921875,0.042861633002758026,0.2334602177143097,-0.3546474874019623
1772536765730448100,2.2254482421875,0.00658245338127017,0.20916393399238586,-0.35216304659843445
1772536765740496000,2.235495849609375,-0.031812891364097595,0.1541876494884491,-0.3368765413761139
1772536765750545200,2.245545166015625,-0.05512487515807152,0.06644102931022644,-0.2904616594314575
1772536765760594200,2.25559423828125,-0.06828074902296066,-0.020299404859542847,-0.22516223788261414
1772536765770642000,2.265641845703125,-0.06394725292921066,-0.07090239226818085,-0.13708670437335968
1772536765780691000,2.27569091796875,-0.07003607600927353,-0.07844630628824234,-0.05257551744580269
1772536765790740000,2.285739990234375,-0.07683725655078888,-0.06637739390134811,0.02035541459918022
1772536765800788000,2.2957880859375,-0.07595115900039673,-0.05001136660575867,0.06879523396492004
1772536765810837000,2.3058369140625,-0.08232516795396805,-0.03871104121208191,0.0905252993106842
1772536765820886000,2.315885986328125,-0.0941118448972702,-0.05287778005003929,0.1095750480890274
1772536765830934000,2.32593408203125,-0.0988067239522934,-0.08639579266309738,0.11273062229156494
1772536765840983000,2.335983154296875,-0.10138648003339767,-0.0981256365776062,0.12568534910678864
1772536765851032000,2.346031982421875,-0.11039675772190094,-0.07381950318813324,0.1522354632616043
1772536765861079800,2.356079833984375,-0.13034194707870483,-0.056215085089206696,0.18178950250148773
1772536765871129000,2.366129150390625,-0.15097051858901978,-0.04059191793203354,0.2011789232492447
1772536765881178000,2.37617822265625,-0.17244789004325867,-0.012316515669226646,0.20050418376922607
1772536765891226000,2.38622607421875,-0.19203783571720123,0.020306408405303955,0.19282016158103943
1772536765901275000,2.39627490234375,-0.21318256855010986,0.014191878028213978,0.17014506459236145
1772536765911324000,2.406323974609375,-0.2357717603445053,-0.04419713094830513,0.1277448683977127
1772536765921372000,2.416371826171875,-0.2491348832845688,-0.07728727906942368,0.09787310659885406
1772536765931421000,2.4264208984375,-0.26779088377952576,-0.04992862790822983,0.09716444462537766
1772536765941469000,2.436468994140625,-0.2901044189929962,-0.008039704523980618,0.10534228384494781
1772536765951518000,2.44651806640625,-0.3046729862689972,0.0025708619505167007,0.10317926853895187
1772536765961567000,2.45656689453125,-0.3069063127040863,0.00746462307870388,0.11085415631532669
1772536765971615000,2.466614990234375,-0.3010881245136261,0.011144846677780151,0.12441390007734299
1772536765981664000,2.4766640625,-0.29328039288520813,0.007252437062561512,0.15174683928489685
1772536765991713000,2.486713134765625,-0.2725173234939575,-0.002048918977379799,0.18389838933944702
1772536766001761000,2.496760986328125,-0.24892370402812958,0.00008527049794793129,0.22374503314495087
1772536766011810000,2.50681005859375,-0.21816499531269073,0.019329804927110672,0.2688925266265869
1772536766021858800,2.51685888671875,-0.188804492354393,0.006326944101601839,0.29268792271614075
1772536766031907000,2.526906982421875,-0.18325233459472656,-0.06761199235916138,0.29034966230392456
1772536766041955800,2.536955810546875,-0.19686205685138702,-0.17975002527236938,0.2559567987918854
1772536766052005000,2.547005126953125,-0.2299845963716507,-0.28063535690307617,0.20803001523017883
1772536766062052900,2.557052978515625,-0.27780574560165405,-0.3286531865596771,0.15210787951946259
1772536766072102100,2.56710205078125,-0.33140212297439575,-0.31886446475982666,0.08577174693346024
1772536766082151000,2.57715087890625,-0.37734004855155945,-0.259513795375824,0.01671304926276207
1772536766092199200,2.58719921875,-0.4205775260925293,-0.17959178984165192,-0.05761444568634033
1772536766102248000,2.597248046875,-0.4548136293888092,-0.11270225793123245,-0.14260603487491608
1772536766112296200,2.607296142578125,-0.4745921194553375,-0.0629807785153389,-0.2186185121536255
1772536766122345000,2.617344970703125,-0.4845992922782898,-0.022403156384825706,-0.2797049582004547
1772536766132394000,2.62739404296875,-0.48601263761520386,0.004972275346517563,-0.3141593635082245
1772536766142442000,2.63744189453125,-0.4751856327056885,0.02281150594353676,-0.3135981559753418
1772536766152491000,2.647490966796875,-0.4542044401168823,0.024364396929740906,-0.28438353538513184
1772536766162540000,2.6575400390625,-0.41176554560661316,0.0025266073644161224,-0.2217179238796234
1772536766172588000,2.667588134765625,-0.3588991165161133,-0.02859456092119217,-0.12863165140151978
1772536766182637000,2.677636962890625,-0.3054829239845276,-0.037649430334568024,-0.025624703615903854
1772536766192686000,2.68768603515625,-0.2514796257019043,-0.025077445432543755,0.07135883718729019
1772536766202734000,2.697734130859375,-0.1933620572090149,-0.029222343116998672,0.13252346217632294
1772536766212783000,2.707783203125,-0.14692585170269012,-0.037842996418476105,0.15466977655887604
1772536766222831900,2.717831787109375,-0.10679267346858978,-0.045108892023563385,0.15335208177566528
1772536766232880000,2.727880126953125,-0.07819858193397522,-0.06466075778007507,0.1355120986700058
1772536766242929000,2.737928955078125,-0.06567388772964478,-0.08608009666204453,0.09762053191661835
1772536766252978200,2.747978271484375,-0.058901991695165634,-0.1249404102563858,0.06349744647741318
1772536766263026000,2.75802587890625,-0.10112661868333817,-0.15820665657520294,0.011761927977204323
1772536766273075200,2.7680751953125,-0.15739041566848755,-0.18361720442771912,-0.04175056517124176
1772536766283124000,2.7781240234375,-0.19550137221813202,-0.17946696281433105,-0.0984671488404274
1772536766293172200,2.788172119140625,-0.23003032803535461,-0.14620621502399445,-0.15542444586753845
1772536766303221000,2.798220947265625,-0.25419631600379944,-0.08385944366455078,-0.20418573915958405
1772536766313269200,2.808269287109375,-0.2533811330795288,0.0075285290367901325,-0.23047113418579102
1772536766323318000,2.818318115234375,-0.2182879000902176,0.0856076329946518,-0.23274551331996918
1772536766333367000,2.828366943359375,-0.16969852149486542,0.1346907615661621,-0.20662762224674225
1772536766343415000,2.8384150390625,-0.1178397685289383,0.1537552773952484,-0.15396974980831146
1772536766353464000,2.848464111328125,-0.08022022247314453,0.13109470903873444,-0.09344488382339478
1772536766363513000,2.85851318359375,-0.05803043022751808,0.06999391317367554,-0.045800015330314636
1772536766373560800,2.868560791015625,-0.07738335430622101,-0.012670611962676048,-0.0027841064147651196
1772536766383610000,2.878610107421875,-0.1145615428686142,-0.07340703159570694,0.028190510347485542
1772536766393659100,2.8886591796875,-0.15958014130592346,-0.11761337518692017,0.05140848085284233
1772536766403707100,2.89870703125,-0.19227910041809082,-0.14797526597976685,0.051713719964027405
1772536766413756200,2.908756103515625,-0.2170979082584381,-0.1518334001302719,0.03759550303220749
1772536766423805000,2.918804931640625,-0.22486180067062378,-0.1285788118839264,0.010305367410182953
1772536766433853000,2.92885302734375,-0.21320301294326782,-0.08644014596939087,-0.02725718915462494
1772536766443902000,2.93890185546875,-0.193803071975708,-0.043700024485588074,-0.06711740791797638
1772536766453950000,2.948949951171875,-0.16812939941883087,0.005820925347507,-0.09636663645505905
1772536766463998500,2.95899853515625,-0.14917215704917908,0.04396628588438034,-0.11761881411075592
1772536766474047700,2.9690478515625,-0.14793804287910461,0.05402051657438278,-0.12398137152194977
1772536766484095500,2.979095458984375,-0.14703665673732758,0.04759088158607483,-0.11912509799003601
1772536766494144800,2.989144775390625,-0.14006343483924866,0.041795577853918076,-0.09260587394237518
1772536766504193500,2.999193603515625,-0.1652783900499344,0.0517684631049633,-0.051909953355789185
1772536766514241800,3.00924169921875,-0.17427055537700653,0.05618824437260628,-0.007128634490072727
1772536766524290600,3.01929052734375,-0.16460947692394257,0.05897960439324379,0.038588862866163254
1772536766534339600,3.029339599609375,-0.14212600886821747,0.04963164031505585,0.06534776836633682
1772536766544387600,3.0393876953125,-0.10991393029689789,0.04478006064891815,0.07674256712198257
1772536766554436600,3.0494365234375,-0.07136760652065277,0.038363706320524216,0.08382630348205566
1772536766564485600,3.059485595703125,-0.034447383135557175,0.042730607092380524,0.09947272390127182
1772536766574533600,3.06953369140625,0.0012925039045512676,0.04711736738681793,0.12363690882921219
1772536766584582700,3.079582763671875,0.04242861270904541,0.03926631063222885,0.15039151906967163
1772536766594631700,3.089631591796875,0.09007016569375992,0.021404754370450974,0.189645454287529
1772536766604679700,3.0996796875,0.1226956769824028,-0.007642563432455063,0.2255265712738037
1772536766614728700,3.109728759765625,0.14242756366729736,-0.07182527333498001,0.24962498247623444
1772536766624776700,3.119776611328125,0.16277015209197998,-0.12372638285160065,0.26433295011520386
1772536766634825700,3.12982568359375,0.15222802758216858,-0.1516730636358261,0.2714119255542755
1772536766644874500,3.13987451171875,0.13514205813407898,-0.14212539792060852,0.2701263129711151
1772536766654922800,3.1499228515625,0.1236201673746109,-0.11973381042480469,0.25809577107429504
1772536766664971500,3.159971435546875,0.12034020572900772,-0.0629640594124794,0.23082898557186127
1772536766675020800,3.170020751953125,0.1186208724975586,0.024341285228729248,0.19971714913845062
1772536766685068500,3.180068603515625,0.1386355310678482,0.09881248325109482,0.1707301288843155
1772536766695117800,3.190117919921875,0.16276057064533234,0.12222485989332199,0.13360299170017242
1772536766705166600,3.20016650390625,0.16970597207546234,0.08428686857223511,0.09749090671539307
1772536766715214800,3.21021484375,0.16388483345508575,0.0098477927967906,0.07031574845314026
1772536766725263600,3.220263671875,0.14367730915546417,-0.08067299425601959,0.050182782113552094
1772536766735312600,3.230312744140625,0.11084799468517303,-0.1624797135591507,0.04288652166724205
1772536766745360600,3.240360595703125,0.05578707158565521,-0.20956189930438995,0.027410775423049927
1772536766755409700,3.25040966796875,0.004436531104147434,-0.2166088968515396,0.01446301769465208
1772536766765458700,3.260458740234375,-0.03652127832174301,-0.18604744970798492,-0.00011345138773322105
1772536766775506700,3.270506591796875,-0.04839977249503136,-0.12381789833307266,-0.017498034983873367
1772536766785555700,3.2805556640625,-0.025083454325795174,0.0052819824777543545,-0.007126429118216038
1772536766795603700,3.290603759765625,0.003986281808465719,0.13414542376995087,0.01953953690826893
1772536766805652700,3.30065283203125,0.05161704123020172,0.19455678761005402,0.046551674604415894
1772536766815701800,3.31070166015625,0.09204329550266266,0.1838516741991043,0.06339962780475616
1772536766825749800,3.320749755859375,0.11491977423429489,0.11851724237203598,0.0702352374792099
1772536766835798800,3.330798828125,0.12176995724439621,0.04101765155792236,0.07259853184223175
1772536766845847600,3.34084765625,0.12058442085981369,-0.010802589356899261,0.07474751025438309
1772536766855895800,3.350895751953125,0.12546946108341217,-0.009697910398244858,0.08569923043251038
1772536766865944600,3.360944580078125,0.14397597312927246,0.02582722343504429,0.1051604375243187
1772536766875993900,3.370993896484375,0.15822733938694,0.06036735326051712,0.12413598597049713
1772536766886041600,3.38104150390625,0.1652327924966812,0.08275308459997177,0.13543152809143066
1772536766896090600,3.391090576171875,0.159813791513443,0.09347151219844818,0.1256563812494278
1772536766906139600,3.4011396484375,0.14723491668701172,0.08684522658586502,0.09082246571779251
1772536766916187600,3.411187744140625,0.14648497104644775,0.07299252599477768,0.04513167589902878
1772536766926236700,3.421236572265625,0.15619854629039764,0.07300379127264023,-0.006994867697358131
1772536766936284400,3.431284423828125,0.15732532739639282,0.06132130324840546,-0.047324713319540024
1772536766946333700,3.441333740234375,0.148988738656044,0.012237563729286194,-0.07887925207614899
1772536766956382700,3.4513828125,0.14943534135818481,-0.06743169575929642,-0.09704068303108215
1772536766966430700,3.4614306640625,0.15033912658691406,-0.15386061370372772,-0.10298299789428711
1772536766976479500,3.4714794921875,0.1587672382593155,-0.22667835652828217,-0.09366565942764282
1772536766986528500,3.481528564453125,0.15550939738750458,-0.27714812755584717,-0.08841703087091446
1772536766996576500,3.491576416015625,0.14492680132389069,-0.3047078549861908,-0.09528984874486923
1772536767006625500,3.50162548828125,0.13091064989566803,-0.3059966564178467,-0.11219067871570587
1772536767016674800,3.5116748046875,0.11155719310045242,-0.26873716711997986,-0.14792977273464203
1772536767026722600,3.52172265625,0.08521095663309097,-0.19806186854839325,-0.19265078008174896
1772536767036771600,3.531771484375,0.06506440788507462,-0.1113477572798729,-0.24806930124759674
1772536767046820600,3.541820556640625,0.05160728096961975,-0.020562971010804176,-0.3026078939437866
1772536767056868600,3.55186865234375,0.04890763387084007,0.07687703520059586,-0.33592137694358826
1772536767066917600,3.561917724609375,0.05179627984762192,0.14288777112960815,-0.34786778688430786
1772536767076965600,3.571965576171875,0.06257675588130951,0.1749463826417923,-0.33567771315574646
1772536767087014700,3.5820146484375,0.06907117366790771,0.1841866672039032,-0.3033999800682068
1772536767097063400,3.5920634765625,0.067816823720932,0.17112040519714355,-0.2681218981742859
1772536767107111700,3.602111572265625,0.0569465234875679,0.1269722282886505,-0.2381545901298523
1772536767117160400,3.612160400390625,0.04492128640413284,0.06968176364898682,-0.22159184515476227
1772536767127209700,3.622209716796875,0.019845252856612206,0.02050155960023403,-0.20826923847198486
1772536767137257500,3.632257568359375,-0.004849441349506378,-0.01795128919184208,-0.20826737582683563
1772536767147306800,3.642306640625,-0.029167596250772476,-0.04767315462231636,-0.2097749561071396
1772536767157355500,3.65235546875,-0.05976465344429016,-0.07912828773260117,-0.2209455817937851
1772536767167403800,3.66240380859375,-0.09793008118867874,-0.10702366381883621,-0.2358849197626114
1772536767177452500,3.67245263671875,-0.13481779396533966,-0.10933902114629745,-0.24172496795654297
1772536767187501600,3.68250146484375,-0.16866342723369598,-0.0976606234908104,-0.24737277626991272
1772536767197549600,3.692549560546875,-0.19924423098564148,-0.07298776507377625,-0.24763377010822296
1772536767207598600,3.7025986328125,-0.2297840416431427,-0.04758180305361748,-0.23279258608818054
1772536767217646600,3.712646484375,-0.25405558943748474,-0.03482579067349434,-0.20936422049999237
1772536767227695600,3.722695556640625,-0.2754668891429901,-0.05815000832080841,-0.172472283244133
1772536767237744600,3.73274462890625,-0.3029040992259979,-0.08850924670696259,-0.13479147851467133
1772536767247792600,3.742792724609375,-0.3408130705356598,-0.12334295362234116,-0.10417524725198746
1772536767257841700,3.752841552734375,-0.3813548982143402,-0.15330645442008972,-0.08102145791053772
1772536767267890700,3.762890625,-0.4138981103897095,-0.17093129456043243,-0.06726212799549103
1772536767277938700,3.772938720703125,-0.4568498432636261,-0.18313923478126526,-0.05410371348261833
1772536767287987700,3.78298779296875,-0.4926455616950989,-0.19180859625339508,-0.04717336595058441
1772536767298036500,3.793036376953125,-0.5261638164520264,-0.18573366105556488,-0.0336274653673172
1772536767308084700,3.803084716796875,-0.5633732676506042,-0.1707896739244461,-0.02746388502418995
1772536767318133500,3.813133544921875,-0.6013038158416748,-0.1548229604959488,-0.027083586901426315
1772536767328182800,3.823182861328125,-0.6446390151977539,-0.14188909530639648,-0.022346163168549538
1772536767338230500,3.83323046875,-0.6731321811676025,-0.11515042930841446,-0.011966759338974953
1772536767348279800,3.84327978515625,-0.6915954947471619,-0.07625712454319,0.010969712398946285
1772536767358327600,3.85332763671875,-0.7006081938743591,-0.05024203658103943,0.039269525557756424
1772536767368376800,3.863376953125,-0.6946192383766174,-0.002822526264935732,0.09204040467739105
1772536767378425600,3.873425537109375,-0.6926847100257874,0.06967031210660934,0.15233038365840912
1772536767388473900,3.883473876953125,-0.6841644048690796,0.16128957271575928,0.2078462541103363
1772536767398522600,3.893522705078125,-0.6667811274528503,0.25966885685920715,0.2619294822216034
1772536767408571600,3.903571533203125,-0.6430101990699768,0.3964656591415405,0.31831154227256775
1772536767418619600,3.91361962890625,-0.6033730506896973,0.5126281976699829,0.3406546711921692
1772536767428668700,3.923668701171875,-0.5923211574554443,0.47891995310783386,0.30142539739608765
1772536767438717700,3.9337177734375,-0.619387149810791,0.31722187995910645,0.21264412999153137
1772536767448765700,3.943765625,-0.6694425940513611,0.10295220464468002,0.10415253788232803
1772536767458814700,3.953814697265625,-0.731699526309967,-0.07930708676576614,0.009083548560738564
1772536767468863700,3.96386376953125,-0.8368563652038574,-0.2629042863845825,-0.08557683974504471
1772536767478911700,3.973911865234375,-0.9420446157455444,-0.42156025767326355,-0.17373652756214142
1772536767488960800,3.983960693359375,-1.0235719680786133,-0.47385209798812866,-0.2418011724948883
1772536767499008800,3.9940087890625,-1.0544449090957642,-0.40245434641838074,-0.2833552658557892
1772536767509057800,4.004057861328125,-1.0282100439071655,-0.21447937190532684,-0.29652225971221924
1772536767519106600,4.0141064453125,-0.9697098135948181,0.0005104378797113895,-0.29776009917259216
1772536767529154800,4.02415478515625,-0.9100803136825562,0.14839109778404236,-0.2944392263889313
1772536767539203600,4.03420361328125,-0.8552415370941162,0.2038642168045044,-0.2818813621997833
1772536767549252900,4.0442529296875,-0.8040095567703247,0.18177492916584015,-0.24853087961673737
1772536767559300600,4.054300537109375,-0.7601704597473145,0.10821335762739182,-0.18818950653076172
1772536767569350000,4.064349853515625,-0.7153786420822144,0.010796391405165195,-0.07719355076551437
1772536767579398700,4.074398681640625,-0.6510528922080994,-0.06463231891393661,0.06661394983530045
1772536767589446700,4.08444677734375,-0.5805060863494873,-0.11831817030906677,0.21426062285900116
1772536767599495700,4.09449560546875,-0.525831937789917,-0.1608738899230957,0.3330935537815094
1772536767609543700,4.104543701171875,-0.4912504255771637,-0.19914594292640686,0.39394569396972656
1772536767619592700,4.1145927734375,-0.47788456082344055,-0.21793507039546967,0.38898903131484985
1772536767629641700,4.124641845703125,-0.49703502655029297,-0.22421050071716309,0.31607118248939514
1772536767639689700,4.134689697265625,-0.5275005102157593,-0.22339904308319092,0.19964337348937988
1772536767649738800,4.14473876953125,-0.5736533999443054,-0.24853162467479706,0.06330596655607224
1772536767659787800,4.154787841796875,-0.6487372517585754,-0.2644253671169281,-0.08084162324666977
1772536767669835800,4.164835693359375,-0.7092308402061462,-0.2982541620731354,-0.21000352501869202
1772536767679884800,4.174884765625,-0.7572367191314697,-0.3276519775390625,-0.3166021704673767
1772536767689933800,4.184933837890625,-0.7912507057189941,-0.3566560745239258,-0.3764886260032654
1772536767699981600,4.194981689453125,-0.7965440154075623,-0.3831758499145508,-0.38062795996665955
1772536767710030800,4.20503076171875,-0.7617478370666504,-0.38927939534187317,-0.3322451114654541
1772536767720079600,4.21507958984375,-0.7178464531898499,-0.3801133334636688,-0.2451847493648529
1772536767730127600,4.225127685546875,-0.6688716411590576,-0.36739668250083923,-0.13267940282821655
1772536767740176600,4.2351767578125,-0.6306885480880737,-0.3649417757987976,-0.03319196403026581
1772536767750224600,4.245224609375,-0.61571204662323,-0.3698498606681824,0.04501720145344734
1772536767760273700,4.255273681640625,-0.6163999438285828,-0.37010231614112854,0.09839227050542831
1772536767770322700,4.26532275390625,-0.627634584903717,-0.349680095911026,0.11939506977796555
1772536767780370700,4.27537060546875,-0.6472482681274414,-0.32742565870285034,0.1279643177986145
1772536767790419500,4.28541943359375,-0.6715494990348816,-0.3206873834133148,0.10995332151651382
1772536767800468700,4.29546875,-0.6961442828178406,-0.3050852417945862,0.08856281638145447
1772536767810516500,4.3055166015625,-0.7261791825294495,-0.29058149456977844,0.06947848200798035
1772536767820565800,4.315565673828125,-0.7466458678245544,-0.28019222617149353,0.04497500881552696
1772536767830614800,4.32561474609375,-0.7480069398880005,-0.2588854730129242,0.025101549923419952
1772536767840662800,4.335662841796875,-0.7393173575401306,-0.2295597940683365,0.010389449074864388
1772536767850711600,4.345711669921875,-0.7326602339744568,-0.21298328042030334,0.004810390993952751
1772536767860759800,4.355759765625,-0.7224560976028442,-0.2199370563030243,0.0032263428438454866
1772536767870808600,4.36580859375,-0.7235472202301025,-0.2342260628938675,0.008074285462498665
1772536767880857600,4.375857666015625,-0.7303228378295898,-0.24564436078071594,0.018113870173692703
1772536767890905600,4.385905517578125,-0.7340587973594666,-0.25957587361335754,0.024704165756702423
1772536767900954600,4.39595458984375,-0.7220407724380493,-0.24596711993217468,0.03618292137980461
1772536767911003600,4.406003662109375,-0.7010358572006226,-0.20491810142993927,0.04742339998483658
1772536767921051600,4.4160517578125,-0.6769888401031494,-0.17777304351329803,0.049217574298381805
1772536767931100700,4.4261005859375,-0.6398706436157227,-0.17030784487724304,0.05147041752934456
1772536767941149700,4.436149658203125,-0.6039299368858337,-0.18166249990463257,0.05226137861609459
1772536767951197700,4.44619775390625,-0.570449709892273,-0.19852490723133087,0.06423251330852509
1772536767961246700,4.456246826171875,-0.5346859097480774,-0.21863284707069397,0.08630479127168655
1772536767971295500,4.46629541015625,-0.49753838777542114,-0.21170136332511902,0.12108678370714188
1772536767981343700,4.47634375,-0.46703478693962097,-0.18992896378040314,0.15796223282814026
1772536767991392500,4.486392578125,-0.4411793351173401,-0.18355344235897064,0.1817401945590973
1772536768001440800,4.496440673828125,-0.4072093963623047,-0.19615551829338074,0.19995860755443573
1772536768011489500,4.506489501953125,-0.36887016892433167,-0.1787075400352478,0.2246708869934082
1772536768021538800,4.516538818359375,-0.33959776163101196,-0.1468539983034134,0.2498425543308258
1772536768031586600,4.526586669921875,-0.2997708022594452,-0.1358022838830948,0.2717443108558655
1772536768041635800,4.5366357421875,-0.26397019624710083,-0.12317916750907898,0.29763609170913696
1772536768051684600,4.5466845703125,-0.2319067269563675,-0.10881932824850082,0.3390844762325287
1772536768061732900,4.55673291015625,-0.2075348049402237,-0.0943724736571312,0.37746569514274597
1772536768071781600,4.56678173828125,-0.17833749949932098,-0.07271985709667206,0.41741743683815
1772536768081830700,4.57683056640625,-0.15245236456394196,-0.016262967139482498,0.466063529253006
1772536768091878700,4.586878662109375,-0.13815973699092865,0.041606128215789795,0.5129561424255371
1772536768101927700,4.596927734375,-0.11629224568605423,0.08770624548196793,0.5559672117233276
1772536768111975700,4.6069755859375,-0.08339758962392807,0.15191476047039032,0.5843799710273743
1772536768122024700,4.617024658203125,-0.05571536719799042,0.21336187422275543,0.5981008410453796
1772536768132073700,4.62707373046875,-0.030205827206373215,0.26039811968803406,0.5925849080085754
1772536768142121700,4.637121826171875,-0.02038196101784706,0.25640764832496643,0.5615878105163574
1772536768152170800,4.647170654296875,-0.03067425638437271,0.20426946878433228,0.5026341676712036
1772536768162219800,4.6572197265625,-0.06537018716335297,0.12697042524814606,0.43481114506721497
1772536768172267800,4.667267822265625,-0.09089910984039307,0.07973819971084595,0.38000068068504333
1772536768182316800,4.67731689453125,-0.12081892788410187,0.03029235079884529,0.32984963059425354
1772536768192365600,4.687365478515625,-0.1689588576555252,-0.06719428300857544,0.2602219879627228
1772536768202413800,4.697413818359375,-0.22705970704555511,-0.20705285668373108,0.17672976851463318
1772536768212462600,4.707462646484375,-0.2866722047328949,-0.36510851979255676,0.08872298151254654
1772536768222510600,4.717510498046875,-0.35285627841949463,-0.48866134881973267,0.0332365557551384
1772536768232559600,4.7275595703125,-0.41871020197868347,-0.5500499606132507,0.011301846243441105
1772536768242609000,4.73760888671875,-0.47111696004867554,-0.5459433794021606,0.02478117123246193
1772536768252656600,4.74765673828125,-0.5133970975875854,-0.5117777585983276,0.06085866689682007
1772536768262706000,4.757705810546875,-0.5301283597946167,-0.44558167457580566,0.11951212584972382
1772536768272754700,4.767754638671875,-0.5215039849281311,-0.3360418379306793,0.17168782651424408
1772536768282802700,4.777802734375,-0.4556826651096344,-0.12697143852710724,0.22837774455547333
1772536768292851700,4.787851806640625,-0.39196649193763733,0.12154199928045273,0.26558661460876465
1772536768302900700,4.797900634765625,-0.32680878043174744,0.312879741191864,0.2618214190006256
1772536768312948700,4.80794873046875,-0.2696015238761902,0.4275229275226593,0.2303662747144699
1772536768322997800,4.817997802734375,-0.24149689078330994,0.4375460147857666,0.1846107691526413
1772536768333045800,4.828045654296875,-0.24367481470108032,0.3488177955150604,0.1342664659023285
1772536768343094500,4.838094482421875,-0.282401978969574,0.1781637817621231,0.09533637017011642
1772536768353143800,4.848143798828125,-0.33799484372138977,-0.008813608437776566,0.06408710777759552
1772536768363191600,4.858191650390625,-0.40213707089424133,-0.16374486684799194,0.038963109254837036
1772536768373240800,4.86824072265625,-0.454563170671463,-0.25978025794029236,0.029928337782621384
1772536768383289600,4.87828955078125,-0.4927324056625366,-0.3032347857952118,0.011395932175219059
1772536768393337600,4.888337646484375,-0.515481173992157,-0.30441492795944214,-0.019853144884109497
1772536768403386600,4.89838671875,-0.5237811803817749,-0.2722548544406891,-0.05619410425424576
1772536768413435600,4.908435546875,-0.5142789483070374,-0.2280188798904419,-0.10421645641326904
1772536768423483600,4.918483642578125,-0.48863962292671204,-0.19018042087554932,-0.14951735734939575
1772536768433532700,4.92853271484375,-0.4527962803840637,-0.15057972073554993,-0.17193523049354553
1772536768443580700,4.93858056640625,-0.4259617328643799,-0.10904638469219208,-0.17607884109020233
1772536768453629700,4.948629638671875,-0.4188407063484192,-0.10663776099681854,-0.16854576766490936
1772536768463679000,4.958678955078125,-0.423933744430542,-0.1367999166250229,-0.1568494290113449
1772536768473727000,4.96872705078125,-0.4361943304538727,-0.18133766949176788,-0.1336328536272049
1772536768483776000,4.97877587890625,-0.4538763761520386,-0.2085929960012436,-0.11242024600505829
1772536768493825000,4.988824951171875,-0.46497610211372375,-0.22267769277095795,-0.11395616829395294
1772536768503873000,4.998873046875,-0.47524765133857727,-0.23655542731285095,-0.1378908008337021
1772536768513922000,5.008922119140625,-0.4845612347126007,-0.22929398715496063,-0.16920815408229828
1772536768523971000,5.01897119140625,-0.49071046710014343,-0.18675239384174347,-0.18933100998401642
1772536768534019000,5.02901904296875,-0.49317649006843567,-0.15999171137809753,-0.19735871255397797
1772536768544068000,5.039068115234375,-0.4821355640888214,-0.1660946160554886,-0.1935914158821106
1772536768554116000,5.0491162109375,-0.47779381275177,-0.17232908308506012,-0.17381636798381805
1772536768564165000,5.0591650390625,-0.4841223955154419,-0.19032086431980133,-0.14538763463497162
1772536768574214000,5.0692138671875,-0.504569411277771,-0.24080656468868256,-0.12746767699718475
1772536768584262100,5.07926220703125,-0.5249636769294739,-0.3191514313220978,-0.12801681458950043
1772536768594311000,5.089310791015625,-0.560286283493042,-0.39180508255958557,-0.13064154982566833
1772536768604360200,5.099360107421875,-0.600187361240387,-0.4335530698299408,-0.1267024725675583
1772536768614408000,5.109407958984375,-0.6383812427520752,-0.45365461707115173,-0.12854436039924622
1772536768624457200,5.119457275390625,-0.6572896838188171,-0.4452899098396301,-0.12816140055656433
1772536768634505000,5.1295048828125,-0.6589629650115967,-0.4056568145751953,-0.1270432472229004
1772536768644554200,5.13955419921875,-0.6615728139877319,-0.3509499132633209,-0.12184661626815796
1772536768654603000,5.14960302734375,-0.6577495336532593,-0.29700326919555664,-0.12744075059890747
1772536768664651300,5.1596513671875,-0.6386855244636536,-0.20334522426128387,-0.12278527021408081
1772536768674700000,5.169699951171875,-0.636509120464325,-0.0770634189248085,-0.10418415814638138
1772536768684749000,5.1797490234375,-0.6384862661361694,0.020628783851861954,-0.07629234343767166
1772536768694797000,5.189797119140625,-0.6359410881996155,0.050534751266241074,-0.040443260222673416
1772536768704846000,5.19984619140625,-0.6271470189094543,0.015363446436822414,-0.004165146965533495
1772536768714895000,5.20989501953125,-0.6260287165641785,-0.06506326794624329,0.038258932530879974
1772536768724943000,5.219943115234375,-0.6408066153526306,-0.171164408326149,0.08413854241371155
1772536768734992100,5.2299921875,-0.6673553586006165,-0.28796955943107605,0.11137770116329193
1772536768745040100,5.2400400390625,-0.7154943943023682,-0.39194256067276,0.13538022339344025
1772536768755089200,5.250089111328125,-0.7667989134788513,-0.45952242612838745,0.14897266030311584
1772536768765138200,5.26013818359375,-0.8192394375801086,-0.5051825642585754,0.16942360997200012
1772536768775186200,5.270186279296875,-0.8628721833229065,-0.5522617697715759,0.20183801651000977
1772536768785235200,5.280235107421875,-0.8935049176216125,-0.6138534545898438,0.25046226382255554
1772536768795284000,5.290283935546875,-0.9044017195701599,-0.6721739172935486,0.2974655330181122
1772536768805332200,5.300332275390625,-0.90058434009552,-0.6783942580223083,0.3308485150337219
1772536768815381000,5.310381103515625,-0.8949975967407227,-0.6336597204208374,0.34211280941963196
1772536768825430300,5.32043017578125,-0.9078894257545471,-0.5734235048294067,0.3083287179470062
1772536768835478000,5.33047802734375,-0.9189004302024841,-0.523386538028717,0.21158449351787567
1772536768845527300,5.34052734375,-0.9300359487533569,-0.4388284981250763,0.10522209852933884
1772536768855575000,5.350574951171875,-0.9644603729248047,-0.3357240557670593,0.015337718650698662
1772536768865624000,5.3606240234375,-1.0123502016067505,-0.2727386951446533,-0.05843077972531319
1772536768875673000,5.370673095703125,-1.0442485809326172,-0.24861203134059906,-0.10585156083106995
1772536768885721000,5.38072119140625,-1.0637905597686768,-0.2221553921699524,-0.12175276130437851
1772536768895770000,5.39077001953125,-1.0732768774032593,-0.16317398846149445,-0.11795976758003235
1772536768905818000,5.400818115234375,-1.055579662322998,-0.1349431574344635,-0.11301960796117783
1772536768915867100,5.4108671875,-1.0178691148757935,-0.1222134679555893,-0.08533765375614166
1772536768925916000,5.420916015625,-0.9986256957054138,-0.07900235056877136,-0.026065271347761154
1772536768935964200,5.430964111328125,-0.9706148505210876,-0.013589764013886452,0.06012797728180885
1772536768946013000,5.441012939453125,-0.924119770526886,0.017676545307040215,0.16640807688236237
1772536768956062000,5.45106201171875,-0.8884302973747253,-0.056558944284915924,0.2459874451160431
1772536768966110000,5.46110986328125,-0.8904111981391907,-0.2344309538602829,0.24701142311096191
1772536768976159000,5.471158935546875,-0.9214339852333069,-0.4456068277359009,0.17160800099372864
1772536768986208000,5.4812080078125,-0.9669194221496582,-0.6364409327507019,0.047174472361803055
1772536768996256000,5.491256103515625,-1.0295233726501465,-0.7659401297569275,-0.06893375515937805
1772536769006305000,5.501304931640625,-1.1069539785385132,-0.7947790026664734,-0.1493297815322876
1772536769016353000,5.51135302734375,-1.164480209350586,-0.723379909992218,-0.20123404264450073
1772536769026402000,5.521402099609375,-1.166131854057312,-0.5555219054222107,-0.22218354046344757
1772536769036451000,5.531451171875,-1.1066186428070068,-0.30248042941093445,-0.20926308631896973
1772536769046499000,5.5414990234375,-1.0175079107284546,-0.0626492127776146,-0.18341045081615448
1772536769056548000,5.551548095703125,-0.9144920706748962,0.12045539170503616,-0.1546918749809265
1772536769066596900,5.561596923828125,-0.8379945755004883,0.2179342806339264,-0.11999727785587311
1772536769076645000,5.57164501953125,-0.7859804034233093,0.21299146115779877,-0.09687864780426025
1772536769086694000,5.58169384765625,-0.7721782922744751,0.14752349257469177,-0.06000318378210068
1772536769096743200,5.5917431640625,-0.7811486124992371,0.050425708293914795,-0.020323418080806732
1772536769106791000,5.601791015625,-0.7864632606506348,-0.08925789594650269,0.0380120612680912
1772536769116840200,5.611840087890625,-0.7855218648910522,-0.2350388616323471,0.11333070695400238
1772536769126888000,5.621887939453125,-0.7825921177864075,-0.35168424248695374,0.20482227206230164
1772536769136937200,5.631937255859375,-0.759767472743988,-0.43190568685531616,0.2882626950740814
1772536769146986000,5.641986083984375,-0.7288127541542053,-0.47787317633628845,0.3437139689922333
1772536769157034200,5.6520341796875,-0.7019657492637634,-0.4697522819042206,0.3701990246772766
1772536769167083000,5.6620830078125,-0.7003092169761658,-0.430340439081192,0.338907927274704
1772536769177132000,5.672132080078125,-0.7128650546073914,-0.3770367503166199,0.2616805136203766
1772536769187180000,5.682179931640625,-0.7393738627433777,-0.31254592537879944,0.14540448784828186
1772536769197229000,5.69222900390625,-0.7682486772537231,-0.24419307708740234,0.006108492612838745
1772536769207277000,5.702277099609375,-0.8000950217247009,-0.19787351787090302,-0.13463051617145538
1772536769217326000,5.712326171875,-0.8282662630081177,-0.18073491752147675,-0.2574825882911682
1772536769227375000,5.722375,-0.8659055233001709,-0.18709242343902588,-0.35463419556617737
1772536769237423000,5.732423095703125,-0.9103174805641174,-0.21521705389022827,-0.4290855824947357
1772536769247472000,5.74247216796875,-0.9479367733001709,-0.2624133229255676,-0.46747133135795593
1772536769257521200,5.752521240234375,-0.9696879982948303,-0.31158652901649475,-0.45939719676971436
1772536769267569200,5.762569091796875,-0.9708811044692993,-0.3668260872364044,-0.4158571660518646
1772536769277618200,5.7726181640625,-0.9610238075256348,-0.38418814539909363,-0.3479088544845581
1772536769287667000,5.7826669921875,-0.9228255152702332,-0.34428146481513977,-0.2717464566230774
1772536769297715000,5.79271484375,-0.8626787066459656,-0.285066157579422,-0.19175444543361664
1772536769307764000,5.802763916015625,-0.8211400508880615,-0.19011859595775604,-0.11804347485303879
1772536769317812000,5.81281201171875,-0.7746028304100037,-0.10963509231805801,-0.06972189992666245
1772536769327861000,5.822861083984375,-0.738189160823822,-0.07406111806631088,-0.039083294570446014
1772536769337910300,5.83291015625,-0.7280628681182861,-0.11192923784255981,-0.033020686358213425
1772536769347958000,5.8429580078125,-0.7265952229499817,-0.18599148094654083,-0.02533772960305214
1772536769358007000,5.853007080078125,-0.7366558909416199,-0.25611814856529236,-0.0063995374366641045
1772536769368056000,5.86305615234375,-0.7543387413024902,-0.31354257464408875,0.015038110315799713
1772536769378104000,5.87310400390625,-0.7718122005462646,-0.34754112362861633,0.03384261578321457
1772536769388153000,5.883153076171875,-0.7857080698013306,-0.3573343753814697,0.039786260575056076
1772536769398201000,5.893201171875,-0.7855227589607239,-0.3493937849998474,0.02889670804142952
1772536769408250000,5.90325,-0.7741329669952393,-0.32200607657432556,0.01231400202959776
1772536769418299000,5.913298828125,-0.739001452922821,-0.27147701382637024,-0.0009346171282231808
1772536769428347100,5.92334716796875,-0.7038972973823547,-0.2207600623369217,-0.0036108277272433043
1772536769438396000,5.93339599609375,-0.6606727838516235,-0.14966793358325958,0.013971477746963501
1772536769448445200,5.943445068359375,-0.6171620488166809,-0.07773061841726303,0.03350815922021866
1772536769458493000,5.953492919921875,-0.5863527059555054,-0.028590241447091103,0.036558542400598526
1772536769468541400,5.96354150390625,-0.5415660738945007,0.013696229085326195,0.041424669325351715
1772536769478590500,5.973590576171875,-0.5085081458091736,0.04674648493528366,0.04740411415696144
1772536769488638500,5.983638427734375,-0.4733387529850006,0.03689758479595184,0.05273842439055443
1772536769498687500,5.9936875,-0.4245852828025818,-0.0030358824878931046,0.07056441158056259
1772536769508736300,6.003736328125,-0.3684876561164856,-0.06005868688225746,0.10043255984783173
1772536769518784300,6.0137841796875,-0.30331915616989136,-0.12391158193349838,0.15027426183223724
1772536769528833300,6.023833251953125,-0.23487083613872528,-0.14228500425815582,0.2110704928636551
1772536769538881300,6.03388134765625,-0.16974404454231262,-0.11433630436658859,0.2609389126300812
1772536769548930300,6.043930419921875,-0.07905888557434082,-0.1126135066151619,0.3242526650428772
1772536769558979600,6.0539794921875,-0.017763759940862656,-0.11017809063196182,0.3881679177284241
1772536769569027300,6.06402734375,0.034948453307151794,-0.1255812793970108,0.4400784969329834
1772536769579076400,6.074076416015625,0.09638933837413788,-0.14043328166007996,0.49623143672943115
1772536769589125400,6.08412548828125,0.12116685509681702,-0.15818484127521515,0.5379858613014221
1772536769599173400,6.09417333984375,0.12878519296646118,-0.16961164772510529,0.5565313100814819
1772536769609222400,6.104222412109375,0.12678195536136627,-0.14977402985095978,0.5555083751678467
1772536769619270400,6.1142705078125,0.12208375334739685,-0.09147284179925919,0.542305052280426
1772536769629319400,6.1243193359375,0.1355106234550476,-0.015389526262879372,0.5208786129951477
1772536769639368200,6.1343681640625,0.16809812188148499,0.027768000960350037,0.5037733316421509
1772536769649416400,6.14441650390625,0.20072822272777557,0.021156705915927887,0.4836392402648926
1772536769659465200,6.15446533203125,0.22025783360004425,-0.025839097797870636,0.456627756357193
1772536769669514500,6.164514404296875,0.22570586204528809,-0.0845455527305603,0.4178670346736908
1772536769679562200,6.174562255859375,0.2047925740480423,-0.14072512090206146,0.3699563443660736
1772536769689611500,6.184611572265625,0.16112738847732544,-0.2058684378862381,0.3110805153846741
1772536769699659300,6.1946591796875,0.09866108000278473,-0.27240484952926636,0.23223453760147095
1772536769709708500,6.20470849609375,0.0369148924946785,-0.3177715241909027,0.15453602373600006
1772536769719757300,6.21475732421875,-0.009808037430047989,-0.3175536096096039,0.09021063148975372
1772536769729805600,6.2248056640625,-0.04097021743655205,-0.25631183385849,0.04648152366280556
1772536769739854300,6.234854248046875,-0.05811323598027229,-0.15446655452251434,0.026740381494164467
1772536769749903400,6.2449033203125,-0.047851014882326126,-0.04655527323484421,0.013186756521463394
1772536769759951400,6.254951416015625,-0.022529108449816704,0.04823853448033333,0.01278005726635456
1772536769770000400,6.26500048828125,0.011730060912668705,0.11403379589319229,0.02715127356350422
1772536769780049400,6.27504931640625,0.04222169890999794,0.1216704472899437,0.05101688206195831
1772536769790097400,6.285097412109375,0.06349849700927734,0.05822249501943588,0.08302541077136993
1772536769800146400,6.295146484375,0.06934864073991776,-0.02229563519358635,0.12200230360031128
1772536769810194400,6.3051943359375,0.06131095439195633,-0.07528828084468842,0.16143706440925598
1772536769820243500,6.315243408203125,0.059587787836790085,-0.08277610689401627,0.18637615442276
1772536769830292500,6.32529248046875,0.062052275985479355,-0.03607917204499245,0.1965281367301941
1772536769840340500,6.335340576171875,0.06886731833219528,0.034633733332157135,0.18017691373825073
1772536769850389500,6.345389404296875,0.06701642274856567,0.0936022475361824,0.13900470733642578
1772536769860438300,6.355438232421875,0.0707009956240654,0.11893311887979507,0.05936209112405777
1772536769870486500,6.365486572265625,0.07370610535144806,0.14038489758968353,-0.025938160717487335
1772536769880535300,6.375535400390625,0.06884385645389557,0.1808793842792511,-0.09133888781070709
1772536769890583600,6.38558349609375,0.057804256677627563,0.20093005895614624,-0.1393602043390274
1772536769900632300,6.39563232421875,0.03405355289578438,0.12805183231830597,-0.18698133528232574
1772536769910681600,6.405681640625,0.0024183960631489754,-0.03025684878230095,-0.22788508236408234
1772536769920729300,6.415729248046875,-0.03956746682524681,-0.19257210195064545,-0.2482037991285324
1772536769930778600,6.425778564453125,-0.08856163918972015,-0.3191571831703186,-0.25058627128601074
1772536769940827400,6.435827392578125,-0.11463896930217743,-0.37590447068214417,-0.24286769330501556
1772536769950875400,6.44587548828125,-0.129873588681221,-0.3787439465522766,-0.24077045917510986
1772536769960924400,6.45592431640625,-0.12269316613674164,-0.3226761519908905,-0.2555459439754486
1772536769970972400,6.465972412109375,-0.10274742543697357,-0.22333621978759766,-0.2884567677974701
1772536769981021400,6.476021484375,-0.060561224818229675,-0.12235128879547119,-0.3267709016799927
1772536769991070500,6.486070556640625,-0.024811221286654472,-0.01867043972015381,-0.36252889037132263
1772536770001118500,6.496118408203125,-0.002614370547235012,0.04687592014670372,-0.39359477162361145
1772536770011167200,6.506167236328125,0.02565614879131317,0.09140050411224365,-0.40713322162628174
1772536770021216500,6.516216552734375,0.0468205064535141,0.15507350862026215,-0.3786483705043793
1772536770031264300,6.52626416015625,0.0447046235203743,0.209946870803833,-0.3279780149459839
1772536770041313500,6.5363134765625,0.042981307953596115,0.19213032722473145,-0.2799041271209717
1772536770051361300,6.546361328125,0.029873494058847427,0.11499161273241043,-0.24273890256881714
1772536770061410300,6.556410400390625,0.011146221309900284,0.015009311027824879,-0.21388709545135498
1772536770071459300,6.566459228515625,-0.012718365527689457,-0.06834283471107483,-0.18665973842144012
1772536770081507300,6.57650732421875,-0.03531353920698166,-0.11667242646217346,-0.1603718250989914
1772536770091556400,6.586556396484375,-0.054246217012405396,-0.13589327037334442,-0.1396809220314026
1772536770101605400,6.59660546875,-0.0622267983853817,-0.1332762986421585,-0.12095103412866592
1772536770111653400,6.6066533203125,-0.0610203854739666,-0.11976262181997299,-0.10356618463993073
1772536770121702400,6.616702392578125,-0.05244165658950806,-0.10544134676456451,-0.08946543186903
1772536770131751400,6.62675146484375,-0.04241618886590004,-0.09418442845344543,-0.07151652872562408
1772536770141799400,6.63679931640625,-0.04223256558179855,-0.08477042615413666,-0.04554329067468643
1772536770151848200,6.64684814453125,-0.05851646512746811,-0.09949637204408646,-0.01785413734614849
1772536770161896400,6.656896484375,-0.08915117383003235,-0.1471630483865738,0.0189120564609766
1772536770171945200,6.6669453125,-0.12470943480730057,-0.2052207589149475,0.05538058653473854
1772536770181994500,6.676994384765625,-0.15297146141529083,-0.2501189112663269,0.09768395125865936
1772536770192042200,6.687042236328125,-0.17612232267856598,-0.2591789960861206,0.13187681138515472
1772536770202091500,6.697091552734375,-0.194582998752594,-0.24582426249980927,0.15838298201560974
1772536770212139300,6.70713916015625,-0.21634528040885925,-0.21969732642173767,0.16858448088169098
1772536770222188500,6.7171884765625,-0.2497606873512268,-0.19511213898658752,0.1583784520626068
1772536770232237300,6.7272373046875,-0.2825348675251007,-0.1779395341873169,0.14708451926708221
1772536770242285600,6.73728564453125,-0.31553733348846436,-0.18394047021865845,0.12212792038917542
1772536770252334300,6.747334228515625,-0.3426118493080139,-0.20069655776023865,0.11095569282770157
1772536770262383400,6.75738330078125,-0.38336119055747986,-0.19357863068580627,0.11474072933197021
1772536770272431400,6.767431396484375,-0.431386262178421,-0.17922231554985046,0.1319921612739563
1772536770282480400,6.77748046875,-0.46890708804130554,-0.15484203398227692,0.14615119993686676
1772536770292529400,6.787529296875,-0.4971965253353119,-0.1272471696138382,0.15631301701068878
1772536770302577400,6.797577392578125,-0.49256381392478943,-0.051628097891807556,0.17993824183940887
1772536770312626400,6.80762646484375,-0.4858286678791046,0.03835398703813553,0.21155235171318054
1772536770322674400,6.81767431640625,-0.4615037441253662,0.10588613897562027,0.25143975019454956
1772536770332723500,6.827723388671875,-0.4302288889884949,0.10101468116044998,0.2804785966873169
1772536770342772500,6.8377724609375,-0.4090736508369446,0.04697781056165695,0.2984873950481415
1772536770352820500,6.847820556640625,-0.40194305777549744,-0.030482890084385872,0.30820605158805847
1772536770362869500,6.857869384765625,-0.4187912046909332,-0.1318245232105255,0.29215243458747864
1772536770372918300,6.867918212890625,-0.4573410153388977,-0.2204183042049408,0.26144298911094666
1772536770382966300,6.87796630859375,-0.4989078640937805,-0.2714071273803711,0.22780489921569824
1772536770393015300,6.888015380859375,-0.521888017654419,-0.266372948884964,0.1827671080827713
1772536770403063300,6.898063232421875,-0.5269225239753723,-0.2181631177663803,0.12431555986404419
1772536770413112300,6.9081123046875,-0.5241240859031677,-0.1445552110671997,0.04531528800725937
1772536770423161600,6.91816162109375,-0.5146350264549255,-0.054479897022247314,-0.04366309940814972
1772536770433209300,6.928209228515625,-0.49118772149086,0.0484563373029232,-0.12681764364242554
1772536770443258400,6.93825830078125,-0.4621267318725586,0.13200566172599792,-0.1850757598876953
1772536770453307400,6.948307373046875,-0.4312542974948883,0.17713771760463715,-0.21074357628822327
1772536770463355400,6.95835546875,-0.3968416154384613,0.19052453339099884,-0.1856243759393692
1772536770473404200,6.968404052734375,-0.3760780394077301,0.16133788228034973,-0.12179825454950333
1772536770483452200,6.9784521484375,-0.3554438352584839,0.08785627037286758,-0.024923115968704224
1772536770493501200,6.988501220703125,-0.3302072286605835,-0.010069492273032665,0.08518394827842712
1772536770503550000,6.998550048828125,-0.2970889210700989,-0.0898069366812706,0.1964513510465622
1772536770513598200,7.00859814453125,-0.2611655592918396,-0.13185584545135498,0.29270437359809875
1772536770523647000,7.01864697265625,-0.22740890085697174,-0.1261376440525055,0.36185112595558167
1772536770533696300,7.0286962890625,-0.19189511239528656,-0.08621340245008469,0.39077651500701904
1772536770543744000,7.038743896484375,-0.1591949164867401,-0.04950035735964775,0.3868747353553772
1772536770553793300,7.048793212890625,-0.13378304243087769,-0.021414659917354584,0.35363316535949707
1772536770563841000,7.058841064453125,-0.12469169497489929,0.005656986963003874,0.30015671253204346
1772536770573890300,7.068890380859375,-0.13646180927753448,0.0010510501451790333,0.2247154861688614
1772536770583939000,7.07893896484375,-0.16812075674533844,-0.022944582626223564,0.14039607346057892
1772536770593987300,7.0889873046875,-0.21889472007751465,-0.057730261236429214,0.05742635577917099
1772536770604036000,7.0990361328125,-0.27770718932151794,-0.09856915473937988,-0.027308126911520958
1772536770614085000,7.109085205078125,-0.33747145533561707,-0.1405743956565857,-0.1112043634057045
1772536770624133000,7.119133056640625,-0.3809349536895752,-0.15763644874095917,-0.18880878388881683
1772536770634182100,7.12918212890625,-0.39824017882347107,-0.13685819506645203,-0.2479674518108368
1772536770644230100,7.139230224609375,-0.3991408050060272,-0.09176765382289886,-0.2950170338153839
1772536770654279200,7.149279052734375,-0.3770142197608948,-0.038583263754844666,-0.31955885887145996
1772536770664328200,7.159328125,-0.3406396210193634,0.026750510558485985,-0.3135986626148224
1772536770674376200,7.169376220703125,-0.3018970191478729,0.06616183370351791,-0.2856586277484894
1772536770684425200,7.17942529296875,-0.2625216245651245,0.06315118819475174,-0.24677056074142456
1772536770694474200,7.18947412109375,-0.2302238941192627,0.037490569055080414,-0.2000267654657364
1772536770704522200,7.199522216796875,-0.20455384254455566,-0.011138935573399067,-0.14804096519947052
1772536770714571300,7.2095712890625,-0.19666209816932678,-0.06863019615411758,-0.09775463491678238
1772536770724619300,7.219619384765625,-0.20303328335285187,-0.12543229758739471,-0.06020786985754967
1772536770734668300,7.229668212890625,-0.2105734944343567,-0.16450487077236176,-0.032813794910907745
1772536770744717000,7.239717041015625,-0.21803902089595795,-0.16676367819309235,-0.022937918081879616
1772536770754765000,7.24976513671875,-0.22846104204654694,-0.14678917825222015,-0.02482370287179947
1772536770764814000,7.25981396484375,-0.2415483593940735,-0.12869252264499664,-0.04130546748638153
1772536770774863400,7.26986328125,-0.2531629204750061,-0.11825000494718552,-0.06323793530464172
1772536770784911000,7.2799111328125,-0.26614630222320557,-0.1035662367939949,-0.0876651331782341
1772536770794960400,7.28996044921875,-0.2621329128742218,-0.0704125463962555,-0.09894228726625443
1772536770805008100,7.300008056640625,-0.2553504407405853,-0.04092159867286682,-0.10850422084331512
1772536770815057200,7.31005712890625,-0.24739745259284973,-0.03031502664089203,-0.11897017806768417
1772536770825106200,7.320106201171875,-0.24433107674121857,-0.02246278151869774,-0.13758791983127594
1772536770835154200,7.330154296875,-0.24124179780483246,-0.014659186825156212,-0.15346328914165497
1772536770845203200,7.340203125,-0.22947001457214355,-0.0026532872579991817,-0.16939499974250793
1772536770855251200,7.350251220703125,-0.2049708068370819,0.017578214406967163,-0.18223676085472107
1772536770865300200,7.36030029296875,-0.17066115140914917,0.048441920429468155,-0.1856822520494461
1772536770875349000,7.370348876953125,-0.13188579678535461,0.08555493503808975,-0.18130028247833252
1772536770885397200,7.380397216796875,-0.09174827486276627,0.11364458501338959,-0.16545742750167847
1772536770895446000,7.390446044921875,-0.0602225735783577,0.10898645222187042,-0.15564501285552979
1772536770905495000,7.4004951171875,-0.02058430388569832,0.07117705792188644,-0.13445501029491425
1772536770915543000,7.41054296875,0.01881743036210537,0.03757169470191002,-0.0983009934425354
1772536770925592000,7.420592041015625,0.05001842975616455,0.029225245118141174,-0.053740836679935455
1772536770935640000,7.43064013671875,0.08091828972101212,0.007191848009824753,-0.012616836465895176
1772536770945689000,7.440689208984375,0.12453306466341019,-0.027693597599864006,0.017222357913851738
1772536770955738000,7.450738037109375,0.1628543585538864,-0.05267111957073212,0.04667133092880249
1772536770965786000,7.4607861328125,0.19184322655200958,-0.056898925453424454,0.07544199377298355
1772536770975835100,7.470835205078125,0.20763523876667023,-0.07534477114677429,0.08356809616088867
1772536770985884200,7.48088427734375,0.22620554268360138,-0.10270480066537857,0.06921765953302383
1772536770995932200,7.49093212890625,0.24560773372650146,-0.07573097199201584,0.07626491785049438
1772536771005981200,7.500981201171875,0.23316901922225952,-0.034681133925914764,0.09605768322944641
1772536771016029200,7.511029296875,0.20071707665920258,-0.096959687769413,0.09388427436351776
1772536771026078200,7.521078125,0.22027960419654846,-0.14133748412132263,0.10843578726053238
1772536771036127000,7.531126953125,0.22666533291339874,-0.10576749593019485,0.14383451640605927
1772536771046175200,7.54117529296875,0.23277385532855988,-0.04158826917409897,0.18748262524604797
1772536771056224000,7.55122412109375,0.2566043436527252,0.04615836217999458,0.2524254024028778
1772536771066273300,7.561273193359375,0.26044735312461853,0.1159711629152298,0.29307103157043457
1772536771076321000,7.571321044921875,0.28717324137687683,0.16956648230552673,0.3164677023887634
1772536771086370300,7.581370361328125,0.3264751434326172,0.2204105406999588,0.32879579067230225
1772536771096418000,7.59141796875,0.36582547426223755,0.299349308013916,0.3306259214878082
1772536771106467300,7.60146728515625,0.40982934832572937,0.3930407464504242,0.3134801387786865
1772536771116516000,7.61151611328125,0.4523560404777527,0.4291095435619354,0.27494579553604126
1772536771126564400,7.621564453125,0.47063300013542175,0.3692087233066559,0.21675336360931396
1772536771136613000,7.631613037109375,0.4661668837070465,0.25511571764945984,0.14424321055412292
1772536771146661000,7.6416611328125,0.4699051082134247,0.14466825127601624,0.07869363576173782
1772536771156710100,7.651710205078125,0.4906764328479767,0.06265381723642349,0.02746639773249626
1772536771166759200,7.66175927734375,0.4918900728225708,-0.02400359883904457,-0.0318477489054203
1772536771176807200,7.67180712890625,0.45798832178115845,-0.10786547511816025,-0.0934932678937912
1772536771186856000,7.68185595703125,0.40518811345100403,-0.1430751532316208,-0.150032177567482
1772536771196905200,7.6919052734375,0.34961700439453125,-0.10633524507284164,-0.1801495999097824
1772536771206953000,7.701952880859375,0.29858049750328064,-0.009436416439712048,-0.195166677236557
1772536771217002200,7.712002197265625,0.2644001543521881,0.10733547806739807,-0.19812917709350586
1772536771227051300,7.72205126953125,0.25344234704971313,0.20156368613243103,-0.19501039385795593
1772536771237099300,7.732099365234375,0.2580253779888153,0.261271208524704,-0.1877378225326538
1772536771247148000,7.74214794921875,0.2737729549407959,0.2758658230304718,-0.1721423864364624
1772536771257196300,7.7521962890625,0.2737572491168976,0.23080883920192719,-0.15739327669143677
1772536771267245000,7.7622451171875,0.2677813768386841,0.15170907974243164,-0.12731599807739258
1772536771277294000,7.772294189453125,0.2676463723182678,0.0851990282535553,-0.07837986946105957
1772536771287342000,7.782342041015625,0.27061015367507935,0.03847694396972656,-0.020544422790408134
1772536771297391000,7.79239111328125,0.27999407052993774,0.02804614044725895,0.025663819164037704
1772536771307439000,7.802439208984375,0.30382031202316284,0.05242625251412392,0.05268585681915283
1772536771317488000,7.812488037109375,0.3327837884426117,0.0919925719499588,0.05081311985850334
1772536771327537200,7.822537109375,0.3515562117099762,0.14135223627090454,0.026072734966874123
1772536771337585200,7.832585205078125,0.36586084961891174,0.16504637897014618,0.001363394083455205
1772536771347634200,7.84263427734375,0.37562835216522217,0.1628369837999344,-0.025804657489061356
1772536771357682200,7.85268212890625,0.3787359893321991,0.14712406694889069,-0.0416661761701107
1772536771367731200,7.862731201171875,0.37918293476104736,0.10575361549854279,-0.03810374066233635
1772536771377780200,7.8727802734375,0.3777674734592438,0.04170778766274452,-0.025254521518945694
1772536771387828200,7.882828125,0.37520912289619446,-0.03661532700061798,-0.004888604860752821
1772536771397877200,7.892877197265625,0.3764602839946747,-0.10000894963741302,0.021141665056347847
1772536771407926000,7.902926025390625,0.3786976933479309,-0.1304595172405243,0.03986874222755432
1772536771417974300,7.912974365234375,0.36917901039123535,-0.13493548333644867,0.04971418157219887
1772536771428023000,7.92302294921875,0.3581922650337219,-0.1312885284423828,0.030280647799372673
1772536771438071300,7.9330712890625,0.35014232993125916,-0.11637350171804428,-0.011109934188425541
1772536771448120000,7.9431201171875,0.3309424817562103,-0.0743083730340004,-0.06187061965465546
1772536771458169300,7.95316943359375,0.32140541076660156,0.011033953167498112,-0.11477325111627579
1772536771468218000,7.963218017578125,0.314799964427948,0.12227865308523178,-0.15894345939159393
1772536771478267100,7.97326708984375,0.310610830783844,0.22035115957260132,-0.19564288854599
1772536771488316200,7.983316162109375,0.29985734820365906,0.26270920038223267,-0.21632298827171326
1772536771498364200,7.9933642578125,0.2839822471141815,0.2533324956893921,-0.21936218440532684
1772536771508413200,8.0034130859375,0.27590835094451904,0.20831213891506195,-0.20491579174995422
1772536771518461200,8.013461181640626,0.26883071660995483,0.1554153561592102,-0.1751547008752823
1772536771528510200,8.02351025390625,0.24816487729549408,0.10093554854393005,-0.1444939821958542
1772536771538559200,8.033559326171876,0.23193050920963287,0.049790337681770325,-0.11671827733516693
1772536771548607200,8.043607177734375,0.20751027762889862,0.013141578994691372,-0.10199407488107681
1772536771558656300,8.05365625,0.18105895817279816,0.004090292379260063,-0.09840226918458939
1772536771568705000,8.063705078125,0.17346346378326416,0.02210139110684395,-0.10081955045461655
1772536771578753300,8.073753173828125,0.16419219970703125,0.05978965014219284,-0.11017177253961563
1772536771588802000,8.083802001953124,0.1506674885749817,0.08419118821620941,-0.11856859922409058
1772536771598850300,8.093850341796875,0.12971612811088562,0.07266849279403687,-0.13692337274551392
1772536771608899000,8.103899169921876,0.09900590777397156,0.04007039964199066,-0.1472100168466568
1772536771618948000,8.113947998046875,0.06243111938238144,0.008126047439873219,-0.13402578234672546
1772536771628996000,8.12399609375,0.03650529682636261,-0.015627652406692505,-0.0923728421330452
1772536771639045000,8.134045166015625,0.018487147986888885,-0.021224018186330795,-0.026850823312997818
1772536771649093000,8.144093017578125,0.004137502517551184,-0.028539516031742096,0.04790624976158142
1772536771659142100,8.15414208984375,-0.009024105966091156,-0.04930338263511658,0.10969025641679764
1772536771669191200,8.164191162109375,-0.0333610363304615,-0.09295464307069778,0.14476388692855835
1772536771679239000,8.174239013671874,-0.06527502834796906,-0.1388305276632309,0.160196915268898
1772536771689288200,8.1842880859375,-0.09862861782312393,-0.17389169335365295,0.16113094985485077
1772536771699337200,8.194337158203124,-0.13655441999435425,-0.19215352833271027,0.16166411340236664
1772536771709385200,8.20438525390625,-0.17099061608314514,-0.2152690589427948,0.15658272802829742
1772536771719434200,8.214434326171874,-0.20890258252620697,-0.2475428432226181,0.16205444931983948
1772536771729482200,8.224482177734375,-0.23888984322547913,-0.2751343250274658,0.17193183302879333
1772536771739531000,8.234531005859376,-0.26387134194374084,-0.278484582901001,0.17660699784755707
1772536771749580000,8.244580078125,-0.28857213258743286,-0.29113709926605225,0.16121675074100494
1772536771759628000,8.2546279296875,-0.30974507331848145,-0.30531150102615356,0.14012664556503296
1772536771769677000,8.264677001953125,-0.33812907338142395,-0.30600807070732117,0.122274249792099
1772536771779726300,8.274726318359376,-0.3717575967311859,-0.2857411503791809,0.11680544912815094
1772536771789774000,8.284774169921874,-0.41334182024002075,-0.2851361036300659,0.11483973264694214
1772536771799823000,8.294822998046875,-0.4547121822834015,-0.29008400440216064,0.11545838415622711
1772536771809871000,8.30487109375,-0.4822029173374176,-0.2617068886756897,0.13892172276973724
1772536771819920100,8.314920166015625,-0.48978734016418457,-0.17994438111782074,0.16745908558368683
1772536771829969200,8.32496923828125,-0.4904598593711853,-0.1097629964351654,0.1656048744916916
1772536771840017200,8.33501708984375,-0.5119825005531311,-0.13761860132217407,0.12481217831373215
1772536771850066200,8.345066162109376,-0.5425835847854614,-0.21502108871936798,0.059146493673324585
1772536771860114200,8.3551142578125,-0.5746868848800659,-0.26210924983024597,-0.002164269331842661
1772536771870163200,8.3651630859375,-0.6144771575927734,-0.2596903145313263,-0.0665275827050209
1772536771880212000,8.3752119140625,-0.6790750622749329,-0.2584170699119568,-0.14694759249687195
1772536771890260200,8.38526025390625,-0.7204738855361938,-0.18770046532154083,-0.21105192601680756
1772536771900309000,8.39530908203125,-0.763436496257782,-0.03420891612768173,-0.26533249020576477
1772536771910358300,8.405358154296875,-0.7714033722877502,0.145160511136055,-0.29881757497787476
1772536771920406000,8.415406005859374,-0.7389106750488281,0.3102027177810669,-0.30975544452667236
1772536771930455300,8.425455322265625,-0.6712546944618225,0.4474215805530548,-0.28669536113739014
1772536771940503000,8.4355029296875,-0.5825203061103821,0.5277864933013916,-0.22154882550239563
1772536771950552300,8.44555224609375,-0.5021525621414185,0.521644651889801,-0.14228789508342743
1772536771960601000,8.45560107421875,-0.4347687065601349,0.4379896819591522,-0.04133891314268112
1772536771970649300,8.4656494140625,-0.3855368494987488,0.2963349521160126,0.0706719309091568
1772536771980698000,8.475697998046876,-0.35860005021095276,0.13965852558612823,0.1780681610107422
1772536771990747100,8.4857470703125,-0.3413514196872711,-0.0049737561494112015,0.26114046573638916
1772536772000795100,8.495795166015625,-0.31312909722328186,-0.12516088783740997,0.3175717890262604
1772536772010844200,8.50584423828125,-0.2758985757827759,-0.18841153383255005,0.3459455370903015
1772536772020892200,8.51589208984375,-0.23123814165592194,-0.18857185542583466,0.3360889256000519
1772536772030941200,8.525941162109374,-0.18508915603160858,-0.13981091976165771,0.29690825939178467
1772536772040990200,8.535990234375,-0.15386545658111572,-0.07982534170150757,0.2329913228750229
1772536772051038200,8.5460380859375,-0.1321277618408203,-0.03337050974369049,0.15272338688373566
1772536772061087200,8.556087158203125,-0.12686589360237122,-0.034302350133657455,0.06343692541122437
1772536772071135000,8.566135009765626,-0.14217278361320496,-0.06727290153503418,-0.02500247396528721
1772536772081184300,8.576184326171875,-0.16948004066944122,-0.13139435648918152,-0.09717094153165817
1772536772091233300,8.5862333984375,-0.20539803802967072,-0.1938159465789795,-0.15823672711849213
1772536772101281300,8.59628125,-0.2332128882408142,-0.21948589384555817,-0.1872449517250061
1772536772111330000,8.606330078125,-0.2374255657196045,-0.1842956393957138,-0.1791565865278244
1772536772121379000,8.616379150390625,-0.22137121856212616,-0.0997525230050087,-0.1597924679517746
1772536772131427000,8.626427001953125,-0.18201568722724915,0.0012611756101250648,-0.13529346883296967
1772536772141476000,8.63647607421875,-0.13129206001758575,0.050149090588092804,-0.12255344539880753
1772536772151524000,8.646524169921875,-0.08379878103733063,0.038092587143182755,-0.10978534817695618
1772536772161573000,8.656572998046874,-0.04319356381893158,-0.006428539287298918,-0.08796234428882599
1772536772171622100,8.6666220703125,-0.021415743976831436,-0.05671411752700806,-0.05773492157459259
1772536772181670100,8.676670166015626,-0.0186013150960207,-0.09755422919988632,-0.028220973908901215
1772536772191719200,8.68671923828125,-0.033173926174640656,-0.12551534175872803,-0.002622525906190276
1772536772201768200,8.696768310546876,-0.05733359605073929,-0.13256311416625977,0.01022403035312891
1772536772211816200,8.706816162109375,-0.0807851105928421,-0.10571146756410599,0.012545319274067879
1772536772221865200,8.716865234375,-0.09762986749410629,-0.05032464489340782,-0.008226271718740463
1772536772231913200,8.726913330078125,-0.11152728646993637,0.013940485194325447,-0.035770926624536514
1772536772241962200,8.736962158203125,-0.11619340628385544,0.0564567893743515,-0.06464730948209763
1772536772252011000,8.747010986328124,-0.12266074120998383,0.06742753088474274,-0.09095364063978195
1772536772262059300,8.757059326171875,-0.11471574008464813,0.06039625406265259,-0.10396211594343185
1772536772272108000,8.76710791015625,-0.1040550023317337,0.06407927721738815,-0.10329465568065643
1772536772282156300,8.77715625,-0.08632473647594452,0.0674673542380333,-0.09110350906848907
1772536772292205000,8.787205078125,-0.061665743589401245,0.07276532799005508,-0.07287051528692245
1772536772302254000,8.797254150390625,-0.04207020252943039,0.07963495701551437,-0.04627884924411774
1772536772312302000,8.807302001953126,-0.023685317486524582,0.07581104338169098,-0.02900303341448307
1772536772322351000,8.81735107421875,-0.005752387456595898,0.06587105989456177,-0.015299472026526928
1772536772332400000,8.827400146484376,0.012559738010168076,0.06104842573404312,-0.006476918701082468
1772536772342448000,8.8374482421875,0.03413906693458557,0.06795399636030197,-0.0045575788244605064
1772536772352497200,8.8474970703125,0.07139339298009872,0.09355594962835312,0.007525374181568623
1772536772362545200,8.857545166015624,0.11000975966453552,0.14621864259243011,0.02040894888341427
1772536772372594200,8.86759423828125,0.155198872089386,0.1751212328672409,0.030049175024032593
1772536772382643200,8.877643310546874,0.19570767879486084,0.16762149333953857,0.04236123338341713
1772536772392691200,8.887691162109375,0.22918513417243958,0.13116119801998138,0.05862542614340782
1772536772402740200,8.897740234375,0.25810572504997253,0.09161325544118881,0.08212436735630035
1772536772412789000,8.9077890625,0.2821696400642395,0.04520021751523018,0.11741839349269867
1772536772422837200,8.917837158203126,0.2981416881084442,-0.0054634930565953255,0.15608909726142883
1772536772432886000,8.927885986328125,0.3034004271030426,-0.03595897927880287,0.19470609724521637
1772536772442934000,8.93793408203125,0.31657081842422485,-0.040374770760536194,0.22725312411785126
1772536772452983000,8.947983154296875,0.32799434661865234,-0.005603758152574301,0.2540067136287689
1772536772463032300,8.9580322265625,0.3458537757396698,0.0639691948890686,0.26001375913619995
1772536772473079600,8.96807958984375,0.3603833317756653,0.13754402101039886,0.23665697872638702
1772536772483128600,8.978128662109375,0.36858585476875305,0.20386259257793427,0.1896287500858307
1772536772493176600,8.988176513671876,0.3631787896156311,0.2628861963748932,0.12300921976566315
1772536772503225600,8.9982255859375,0.36180832982063293,0.327944278717041,0.07511572539806366
1772536772513274400,9.0082744140625,0.36934325098991394,0.3855166733264923,0.06819085031747818
1772536772523322600,9.018322509765625,0.36136043071746826,0.3869720995426178,0.07526075094938278
1772536772533371400,9.028371337890626,0.37528228759765625,0.334441214799881,0.09255048632621765
1772536772543420700,9.038420654296875,0.3822097182273865,0.2723597288131714,0.13359645009040833
1772536772553468400,9.048468505859375,0.34108084440231323,0.1541965752840042,0.14868779480457306
1772536772563517700,9.058517578125,0.3152039647102356,0.018794279545545578,0.14041787385940552
1772536772573565400,9.0685654296875,0.2913655638694763,-0.05401785671710968,0.12901607155799866
1772536772583614500,9.078614501953124,0.2660415768623352,-0.10099814832210541,0.12084071338176727
1772536772593663500,9.08866357421875,0.23347781598567963,-0.13696563243865967,0.09031114727258682
1772536772603711500,9.09871142578125,0.19190028309822083,-0.13928177952766418,0.044656842947006226
1772536772613760500,9.108760498046875,0.16825366020202637,-0.08420294523239136,0.0017195658292621374
1772536772623808500,9.11880859375,0.15508246421813965,0.00911315344274044,-0.007094431668519974
1772536772633857500,9.128857421875,0.15398184955120087,0.13304325938224792,0.015621990896761417
1772536772643906600,9.138906494140626,0.18179963529109955,0.27869629859924316,0.06391841918230057
1772536772653954600,9.14895458984375,0.22751761972904205,0.4038216769695282,0.1189667209982872
