time,seconds_elapsed,z,y,x
1772572688376125400,0.09212548828125,9.342177391052246,1.43389892578125,-0.04187439754605293
1772572688393967000,0.109967041015625,9.396614074707031,1.5044872760772705,-0.02632104977965355
1772572688411803100,0.12780322265625,9.31466007232666,1.4841482639312744,-0.02153540402650833
1772572688429639000,0.145638916015625,9.300901412963867,1.5308083295822144,-0.03529413416981697
1772572688447475200,0.16347509765625,9.29312515258789,1.672582983970642,0.09690931439399719
1772572688465311200,0.181311279296875,9.357132911682129,1.8263218402862549,0.22552353143692017
1772572688483147300,0.199147216796875,9.384650230407715,1.9070796966552734,0.23030917346477509
1772572688500983000,0.216983154296875,9.479166984558105,1.7563318014144897,0.15314064919948578
1772572688518819000,0.234819091796875,9.65683364868164,1.801795482635498,0.14775680005550385
1772572688536655400,0.2526552734375,9.619147300720215,1.8167506456375122,0.129810631275177
1772572688554491400,0.270491455078125,9.524630546569824,1.784447431564331,-0.014356935396790504
1772572688572319700,0.28831982421875,9.460622787475586,1.700698733329773,-0.049651071429252625
1772572688590151000,0.30615087890625,9.687342643737793,1.8161523342132568,0.08434699475765228
1772572688607999500,0.32399951171875,9.763314247131348,1.8143577575683594,0.08015955984592438
1772572688625822700,0.34182275390625,9.596415519714355,1.7180466651916504,0.010767702013254166
1772572688643670500,0.35967041015625,9.559925079345703,1.7437695264816284,0.06041877344250679
1772572688661506000,0.377506103515625,9.605986595153809,1.673181176185608,0.0975075215101242
1772572688679343000,0.395343017578125,9.407382011413574,1.6187444925308228,0.014356935396790504
1772572688697179400,0.413179443359375,9.220742225646973,1.5960127115249634,-0.053240302950143814
1772572688715015400,0.431015380859375,9.41336441040039,1.709073543548584,0.10289137065410614
1772572688732851500,0.4488515625,9.678369522094727,1.6767704486846924,0.16929219663143158
1772572688750687200,0.466687255859375,9.791430473327637,1.5936198234558105,0.1010967567563057
1772572688768523000,0.48452294921875,9.491728782653809,1.5726827383041382,0.014955141581594944
1772572688786359300,0.502359375,9.262616157531738,1.7437695264816284,0.06819544732570648
1772572688804192800,0.52019287109375,9.231510162353516,1.9016958475112915,0.16271193325519562
1772572688822032600,0.53803271484375,9.116056442260742,1.908874273300171,0.1339980661869049
1772572688839868200,0.5558681640625,8.965906143188477,1.7850457429885864,0.05383851006627083
1772572688857704200,0.5737041015625,9.118449211120605,1.709073543548584,0.0526420995593071
1772572688875538200,0.5915380859375,9.462417602539062,1.7198412418365479,0.07657032459974289
1772572688893375200,0.609375244140625,9.492327690124512,1.693520188331604,0.053240302950143814
1772572688911211000,0.6272109375,9.460622787475586,1.6983058452606201,0.054436713457107544
1772572688929047000,0.645047119140625,9.69930648803711,1.7724833488464355,0.20039889216423035
1772572688946883000,0.662883056640625,9.870991706848145,1.7940187454223633,0.22013968229293823
1772572688964718800,0.68071875,9.860821723937988,1.6755740642547607,0.13040883839130402
1772572688982555600,0.6985556640625,9.629914283752441,1.5595221519470215,0.040677983313798904
1772572689000391000,0.716390869140625,9.66640567779541,1.7018951177597046,0.09571290761232376
1772572689018214400,0.73421435546875,10.194621086120605,1.7718851566314697,0.27038896083831787
1772572689036063000,0.75206298828125,10.174880027770996,1.852044701576233,0.35473597049713135
1772572689053899500,0.7698994140625,9.904491424560547,1.8867406845092773,0.25064817070961
1772572689071735300,0.7877353515625,9.486943244934082,1.7635103464126587,0.12203395366668701
1772572689089562000,0.80556201171875,9.1986083984375,1.7425731420516968,0.03888336941599846
1772572689107407000,0.823406982421875,9.205188751220703,1.7078771591186523,0.010767702013254166
1772572689125233200,0.841233154296875,9.522835731506348,1.6205391883850098,0.03409772366285324
1772572689143079200,0.8590791015625,9.471988677978516,1.6049858331680298,0.019142581149935722
1772572689160915000,0.8769150390625,9.183652877807617,1.6265212297439575,-0.10049854964017868
1772572689178751000,0.8947509765625,9.309874534606934,1.6654045581817627,-0.05503492057323456
1772572689196587000,0.9125869140625,9.590433120727539,1.6414763927459717,0.07597211748361588
1772572689214423600,0.930423583984375,9.53061294555664,1.770688772201538,0.12921242415905
1772572689232259000,0.948259033203125,9.22433090209961,1.8789639472961426,0.22013968229293823
1772572689250094800,0.9660947265625,9.32303524017334,2.032104730606079,0.35892340540885925
1772572689267931000,0.983930908203125,9.651450157165527,1.9663020372390747,0.3409772217273712
1772572689285765600,1.001765625,9.714859962463379,1.8502501249313354,0.27038896083831787
1772572689303605000,1.01960498046875,9.635298728942871,1.8903298377990723,0.31106695532798767
1772572689321438500,1.0374384765625,9.552745819091797,1.9956140518188477,0.30628129839897156
1772572689339274800,1.055274658203125,9.448657989501953,1.9519450664520264,0.26141586899757385
1772572689357111000,1.073111083984375,9.270393371582031,1.949552297592163,0.20757736265659332
1772572689374946600,1.090946533203125,9.107681274414062,1.9621145725250244,0.19621145725250244
1772572689392782800,1.108782958984375,9.165108680725098,1.9441684484481812,0.24885354936122894
1772572689410619000,1.126618896484375,9.327820777893066,1.8939191102981567,0.24107688665390015
1772572689428454400,1.144454345703125,9.396016120910645,1.7832510471343994,0.19262222945690155
1772572689446290700,1.162290771484375,9.515657424926758,1.7216359376907349,0.1782652884721756
1772572689464126500,1.18012646484375,9.481559753417969,1.8077775239944458,0.23688943684101105
1772572689481951000,1.197950927734375,9.396614074707031,1.9334007501602173,0.24945175647735596
1772572689499786200,1.2157861328125,9.407382011413574,2.0033907890319824,0.2554338276386261
1772572689517637000,1.23363720703125,9.460023880004883,2.0201404094696045,0.2841476798057556
1772572689535470800,1.251470947265625,9.381659507751465,1.968694806098938,0.22133609652519226
1772572689553307100,1.26930712890625,9.369695663452148,1.8376877307891846,0.08434699475765228
1772572689571142400,1.287142333984375,9.373284339904785,1.8388842344284058,0.09451649338006973
1772572689588978700,1.304978759765625,9.395418167114258,1.9567307233810425,0.243469700217247
1772572689606814500,1.322814453125,9.422935485839844,2.001596212387085,0.28893333673477173
1772572689624648000,1.34064794921875,9.589835166931152,1.8442680835723877,0.2153540402650833
1772572689642486500,1.358486572265625,9.58205795288086,1.6636099815368652,0.11724831163883209
1772572689660322300,1.376322265625,9.473184585571289,1.7198412418365479,0.11485548317432404
1772572689678153700,1.39415380859375,9.490532875061035,1.7611174583435059,0.16271193325519562
1772572689695994400,1.411994384765625,9.54496955871582,1.835893154144287,0.16510476171970367
1772572689713830700,1.42983056640625,9.527621269226074,1.8179470300674438,0.18783657252788544
1772572689731666400,1.44766650390625,9.5324068069458,1.8861424922943115,0.21595224738121033
1772572689749502200,1.465502197265625,9.422337532043457,1.848455548286438,0.13459627330303192
1772572689767338200,1.483338134765625,9.382257461547852,1.8287147283554077,0.06939185410737991
1772572689785174300,1.50117431640625,9.512067794799805,1.80717933177948,0.11066804826259613
1772572689803010300,1.51901025390625,9.5533447265625,1.9094724655151367,0.19920247793197632
1772572689820846300,1.536846435546875,9.425926208496094,1.9435701370239258,0.1902294009923935
1772572689838682000,1.55468212890625,9.370293617248535,1.7240287065505981,-0.015553346835076809
1772572689856518400,1.572518310546875,9.592825889587402,1.5996019840240479,-0.010169495828449726
1772572689874354400,1.5903544921875,9.811769485473633,1.6773686408996582,0.15672987699508667
1772572689892190000,1.60818994140625,9.660423278808594,1.8388842344284058,0.2883351147174835
1772572689910026200,1.626026123046875,9.482157707214355,1.9399809837341309,0.28893333673477173
1772572689927858400,1.6438583984375,9.388239860534668,1.9639091491699219,0.2638086974620819
1772572689945698000,1.661697998046875,9.456435203552246,1.9208383560180664,0.18783657252788544
1772572689963534300,1.679534423828125,9.367302894592285,1.9052850008010864,0.1537388563156128
1772572690003664100,1.7196640625,9.30329418182373,1.9884356260299683,0.20039889216423035
1772572690021499600,1.737499755859375,9.489336013793945,1.994417667388916,0.2632105052471161
1772572690039336200,1.755336181640625,9.508479118347168,1.9465612173080444,0.22013968229293823
1772572690057172200,1.773172119140625,9.465408325195312,1.9130617380142212,0.19142581522464752
1772572690075008500,1.791008544921875,9.422935485839844,1.835893154144287,0.11964113265275955
1772572690092832800,1.808832763671875,9.437292098999023,1.831107497215271,0.11006984114646912
1772572690110679800,1.8266796875,9.537193298339844,1.841277003288269,0.11485548317432404
1772572690128511500,1.844511474609375,9.379864692687988,1.9746768474578857,0.17168502509593964
1772572690146351900,1.862351806640625,9.245866775512695,2.0554347038269043,0.20997019112110138
1772572690164183000,1.88018310546875,9.221938133239746,1.9543378353118896,0.08075776696205139
1772572690182024000,1.89802392578125,9.274580955505371,1.8059829473495483,-0.038285162299871445
1772572690199860200,1.915860107421875,9.518050193786621,1.8652052879333496,0.05802594870328903
1772572690217696500,1.933696533203125,9.55633544921875,1.8897316455841064,0.19142581522464752
1772572690235531800,1.95153173828125,9.537193298339844,1.908276081085205,0.15314064919948578
1772572690253367800,1.969367919921875,9.613762855529785,1.8323038816452026,0.14895321428775787
1772572690271203800,1.987203857421875,9.762118339538574,1.8095721006393433,0.19202402234077454
1772572690289037000,2.005037109375,9.719047546386719,1.8137595653533936,0.17288143932819366
1772572690306882800,2.0228828125,9.470791816711426,1.7455641031265259,0.019740786403417587
1772572690324708600,2.04070849609375,9.279964447021484,1.6773686408996582,-0.08554340898990631
1772572690342551000,2.058551025390625,9.489934921264648,1.6929219961166382,0.010169495828449726
1772572690360376800,2.076376953125,9.671191215515137,1.674975872039795,0.09212367236614227
1772572690378222300,2.094222412109375,9.475577354431152,1.688136339187622,0.05802594870328903
1772572690396055600,2.1120556640625,9.303893089294434,1.7395820617675781,0.03349951654672623
1772572690413891600,2.1298916015625,9.251250267028809,1.8161523342132568,0.07178468257188797
1772572690431727900,2.147727783203125,9.317651748657227,1.820937991142273,0.12442677468061447
1772572690449563400,2.1655634765625,9.585049629211426,1.8035900592803955,0.22492532432079315
1772572690467399400,2.1833994140625,9.54197883605957,1.8610178232192993,0.33020952343940735
1772572690485235500,2.2012353515625,9.398408889770508,2.008774518966675,0.30568310618400574
1772572690503072000,2.219072021484375,9.34157943725586,1.9411773681640625,0.22911277413368225
1772572690520907300,2.2369072265625,9.351150512695312,1.7880367040634155,0.14356936514377594
1772572690538743800,2.254743896484375,9.580862045288086,1.6791633367538452,0.12502498924732208
1772572690556579800,2.272579833984375,9.594620704650879,1.8035900592803955,0.19680966436862946
1772572690574415600,2.29041552734375,9.547362327575684,1.755733609199524,0.1818545162677765
1772572690592251100,2.308251220703125,9.742975234985352,1.6947166919708252,0.21595224738121033
1772572690610087700,2.326087646484375,9.738189697265625,1.6079767942428589,0.04905286431312561
1772572690627923700,2.343923828125,9.394820213317871,1.5439687967300415,-0.12382857501506805
1772572690645760000,2.361760009765625,9.18425178527832,1.638485312461853,-0.11904292553663254
1772572690663595300,2.37959521484375,9.418149948120117,1.7066807746887207,-0.03768695518374443
1772572690681431300,2.397431396484375,9.613762855529785,1.7988044023513794,0.06759724020957947
1772572690699267600,2.415267578125,9.461220741271973,1.750349760055542,0.010169495828449726
1772572690717103900,2.433103759765625,9.375677108764648,1.648654818534851,-0.07597211748361588
1772572690734939100,2.450939208984375,9.595218658447266,1.5690934658050537,-0.003589233849197626
1772572690752775400,2.468775390625,9.723833084106445,1.6462619304656982,0.07776673883199692
1772572690770611200,2.486611083984375,9.513862609863281,1.7407784461975098,0.14356936514377594
1772572690788444700,2.504444580078125,9.389435768127441,1.8167506456375122,0.16271193325519562
1772572690806286600,2.52228662109375,9.565906524658203,1.7796618938446045,0.16809579730033875
1772572690824120800,2.540120849609375,9.661619186401367,1.703689694404602,0.20159530639648438
1772572690841954000,2.5579541015625,9.475577354431152,1.8508483171463013,0.22971096634864807
1772572690859792000,2.5757919921875,9.298508644104004,1.9268203973770142,0.25782662630081177
1772572690877627000,2.593626953125,9.489336013793945,1.8699909448623657,0.2105683982372284
1772572690895463400,2.61146337890625,9.55633544921875,1.784447431564331,0.17288143932819366
1772572690913299200,2.62929931640625,9.399007797241211,1.8693926334381104,0.16749759018421173
1772572690931135500,2.647135498046875,9.28893756866455,1.978864312171936,0.19561325013637543
1772572690948971000,2.664970947265625,9.34157943725586,1.9363917112350464,0.22432711720466614
1772572690966807300,2.682807373046875,9.594620704650879,1.7940187454223633,0.14416755735874176
1772572690984643600,2.7006435546875,9.723833084106445,1.6558332443237305,0.05383851006627083
1772572691002479400,2.718479248046875,9.489934921264648,1.688136339187622,-0.004187439568340778
1772572691020311000,2.73631103515625,9.251250267028809,1.7964116334915161,-0.019142581149935722
1772572691038151200,2.754151123046875,9.293723106384277,1.8783657550811768,0.02392822690308094
1772572691055985400,2.7719853515625,9.55633544921875,1.8460626602172852,0.08195417374372482
1772572691073825300,2.7898251953125,9.642477035522461,1.7940187454223633,0.09631111472845078
1772572691091659000,2.807658935546875,9.470791816711426,1.7694923877716064,0.08195417374372482
1772572691109495300,2.825495361328125,9.298508644104004,1.7922241687774658,0.02871387079358101
1772572691127331600,2.84333154296875,9.54197883605957,1.7982062101364136,0.019740786403417587
1772572691145168000,2.86116796875,9.628120422363281,1.82273268699646,0.020338991656899452
1772572691163003100,2.879003173828125,9.41755199432373,1.8598214387893677,0.04366901144385338
1772572691180838700,2.896838623046875,9.41755199432373,1.9459630250930786,0.12442677468061447
1772572691198675200,2.91467529296875,9.546764373779297,1.8795621395111084,0.05802594870328903
1772572691216511500,2.932511474609375,9.575477600097656,1.76051926612854,0.029312077909708023
1772572691234346800,2.9503466796875,9.509077072143555,1.726421594619751,0.03888336941599846
1772572691252183300,2.968183349609375,9.4660062789917,1.726421594619751,0.024526432156562805
1772572691270019300,2.986019287109375,9.346364974975586,1.7012969255447388,-0.047258246690034866
1772572691287855600,3.003855712890625,9.418149948120117,1.6588243246078491,-0.028115665540099144
1772572691305691100,3.021691162109375,9.251250267028809,1.6869399547576904,0.02392822690308094
1772572691323527200,3.039527099609375,9.117252349853516,1.7150555849075317,0.05742774158716202
1772572691341363200,3.05736328125,9.260822296142578,1.6827524900436401,0.2153540402650833
1772572691359199500,3.075199462890625,9.42772102355957,1.7359927892684937,0.2584248483181
1772572691377034800,3.09303466796875,9.428318977355957,1.597209095954895,0.1866401731967926
1772572691394871300,3.110871337890625,9.471389770507812,1.5302101373672485,0.13459627330303192
1772572691412707000,3.12870703125,9.523433685302734,1.6217355728149414,0.2350948303937912
1772572691430531600,3.146531494140625,9.633503913879395,1.679761528968811,0.268594354391098
1772572691448379100,3.164379150390625,9.709476470947266,1.6564314365386963,0.27337998151779175
1772572691466199600,3.182199462890625,9.719047546386719,1.6660027503967285,0.24466611444950104
1772572691484039700,3.200039794921875,9.742975234985352,1.709073543548584,0.25423741340637207
1772572691501876500,3.21787646484375,9.852447509765625,1.7958134412765503,0.2877369225025177
1772572691519725800,3.235725830078125,9.766305923461914,1.8191434144973755,0.20159530639648438
1772572691537559600,3.2535595703125,9.585049629211426,1.8323038816452026,0.14895321428775787
1772572691555395300,3.271395263671875,9.709476470947266,1.8472590446472168,0.19680966436862946
1772572691573216300,3.28921630859375,9.775876998901367,1.771286964416504,0.18723836541175842
1772572691591069700,3.307069580078125,9.556933403015137,1.6360924243927002,0.06759724020957947
1772572691608903400,3.3249033203125,9.542576789855957,1.5738791227340698,0.06759724020957947
1772572691626722000,3.34272216796875,9.704689979553223,1.5792629718780518,0.10169496387243271
1772572691644576500,3.360576416015625,9.66221809387207,1.4979069232940674,0.05383851006627083
1772572691662406700,3.37840673828125,9.42353343963623,1.409970760345459,-0.037088751792907715
1772572691680250000,3.39625,9.44746208190918,1.4679967164993286,0.09152546525001526
1772572691698083000,3.4140830078125,9.53779125213623,1.5260226726531982,0.21595224738121033
1772572691715918300,3.43191845703125,9.361320495605469,1.5056836605072021,0.13938191533088684
1772572691733756000,3.449755859375,9.122636795043945,1.5571293830871582,0.07178468257188797
1772572691751591000,3.4675908203125,9.141778945922852,1.6528422832489014,0.17706887423992157
1772572691769427200,3.48542724609375,9.42772102355957,1.726421594619751,0.20099709928035736
1772572691787263500,3.503263427734375,9.518648147583008,1.7030915021896362,0.2105683982372284
1772572691805099000,3.52109912109375,9.375079154968262,1.716252088546753,0.1339980661869049
1772572691822935000,3.53893505859375,9.446864128112793,1.7120646238327026,0.11066804826259613
1772572691840771000,3.55677099609375,9.628120422363281,1.7371892929077148,0.21595224738121033
1772572691858607600,3.574607666015625,9.508479118347168,1.8323038816452026,0.22013968229293823
1772572691876443100,3.592443115234375,9.460622787475586,1.8939191102981567,0.25363919138908386
1772572691894262800,3.6102626953125,9.5802640914917,1.784447431564331,0.2063809484243393
1772572691912115000,3.628114990234375,9.69511890411377,1.6701902151107788,0.1537388563156128
1772572691929940200,3.645940185546875,9.585049629211426,1.7126628160476685,0.14416755735874176
1772572691947787000,3.663787109375,9.475577354431152,1.7359927892684937,0.1585244983434677
1772572691965611300,3.681611328125,9.57069206237793,1.7174484729766846,0.17288143932819366
1772572691983458800,3.699458740234375,9.55214786529541,1.674377679824829,0.1824527233839035
1772572692001295400,3.71729541015625,9.508479118347168,1.7796618938446045,0.19202402234077454
1772572692019131100,3.735131103515625,9.475577354431152,1.7359927892684937,0.13459627330303192
1772572692036967400,3.752967529296875,9.675976753234863,1.5792629718780518,0.08733802288770676
1772572692054803500,3.770803466796875,9.733404159545898,1.6947166919708252,0.1543370634317398
1772572692072636200,3.78863623046875,9.422935485839844,1.7928223609924316,0.11006984114646912
1772572692090479000,3.80647900390625,9.217751502990723,1.8011972904205322,0.04307080805301666
1772572692108311000,3.82431103515625,9.41336441040039,1.7306089401245117,0.053240302950143814
1772572692126147600,3.842147705078125,9.533005714416504,1.7461622953414917,0.12023933976888657
1772572692143983000,3.859983154296875,9.379864692687988,1.7928223609924316,0.10049854964017868
1772572692161818600,3.877818603515625,9.269794464111328,1.801795482635498,0.08135596662759781
1772572692179655000,3.895655029296875,9.54197883605957,1.755733609199524,0.1537388563156128
1772572692197491200,3.9134912109375,9.69511890411377,1.7084753513336182,0.129810631275177
1772572692215327500,3.931327392578125,9.489934921264648,1.6546368598937988,-0.004187439568340778
1772572692233162800,3.949162841796875,9.375079154968262,1.6588243246078491,-0.03290131315588951
1772572692250998800,3.966998779296875,9.600004196166992,1.6408780813217163,0.05383851006627083
1772572692268835000,3.9848349609375,9.771689414978027,1.6755740642547607,0.06340979784727097
1772572692286672000,4.002671875,9.623334884643555,1.6504493951797485,-0.017946170642971992
1772572692304507000,4.0205068359375,9.480362892150879,1.750349760055542,0.048454657196998596
1772572692322343200,4.03834326171875,9.68494987487793,1.852044701576233,0.14895321428775787
1772572692340179200,4.05617919921875,9.575477600097656,1.851446509361267,0.12502498924732208
1772572692358015500,4.074015380859375,9.308079719543457,1.7874385118484497,0.019142581149935722
1772572692375849700,4.091849609375,9.351150512695312,1.7497515678405762,0.07178468257188797
1772572692393693200,4.109693115234375,9.456435203552246,1.7359927892684937,0.07238288223743439
1772572692411523000,4.127523193359375,9.279964447021484,1.7682958841323853,0.09571290761232376
1772572692429359600,4.145359619140625,9.193822860717773,1.8299111127853394,0.09571290761232376
1772572692447195100,4.163195068359375,9.255437850952148,1.820937991142273,0.1052841991186142
1772572692465031400,4.181031494140625,9.527621269226074,1.8269200325012207,0.14416755735874176
1772572692482867200,4.1988671875,9.503693580627441,1.8269200325012207,0.14416755735874176
1772572692500703200,4.216703125,9.32722282409668,1.801795482635498,0.05742774158716202
1772572692518539000,4.2345390625,9.394221305847168,1.7976080179214478,0.048454657196998596
1772572692536375000,4.252375,9.479764938354492,1.8269200325012207,0.09152546525001526
1772572692554211300,4.27021142578125,9.336793899536133,1.825723648071289,0.0526420995593071
1772572692572047400,4.28804736328125,9.298508644104004,1.8161523342132568,0.019142581149935722
1772572692589879800,4.3058798828125,9.761520385742188,1.794616937637329,0.08255238085985184
1772572692607722500,4.323722412109375,9.966704368591309,1.7772690057754517,0.19740787148475647
1772572692625553400,4.341553466796875,9.699904441833496,1.7515461444854736,0.08255238085985184
1772572692643393800,4.359393798828125,9.408578872680664,1.7353945970535278,0.0005982056609354913
1772572692661226800,4.377226806640625,9.265008926391602,1.820937991142273,0.07657032459974289
1772572692679063000,4.39506298828125,9.255437850952148,1.9166508913040161,0.14356936514377594
1772572692696899000,4.412899169921875,9.375079154968262,1.8215361833572388,0.10049854964017868
1772572692714735400,4.4307353515625,9.546764373779297,1.7222341299057007,0.07238288223743439
1772572692732570600,4.448570556640625,9.608977317810059,1.7222341299057007,0.08733802288770676
1772572692750402300,4.46640234375,9.403793334960938,1.7880367040634155,0.0771685317158699
1772572692768243000,4.484242919921875,9.231510162353516,1.8065811395645142,0.02871387079358101
1772572692786079500,4.50207958984375,9.394221305847168,1.74496591091156,0.024526432156562805
1772572692803915000,4.5199150390625,9.55633544921875,1.731805443763733,0.04905286431312561
1772572692821751000,4.5377509765625,9.437292098999023,1.7742780447006226,0.08195417374372482
1772572692839587600,4.555587646484375,9.503693580627441,1.8747764825820923,0.12502498924732208
1772572692857424000,4.573423828125,9.77109146118164,1.8287147283554077,0.19202402234077454
1772572692875259100,4.591259033203125,9.766305923461914,1.77607262134552,0.13040883839130402
1772572692893095200,4.60909521484375,9.5802640914917,1.7509479522705078,0.053240302950143814
1772572692910931000,4.626930908203125,9.45583724975586,1.8652052879333496,0.09571290761232376
1772572692928767700,4.644767822265625,9.484550476074219,1.908276081085205,0.17706887423992157
1772572692946603300,4.662603271484375,9.399007797241211,1.8406788110733032,0.12442677468061447
1772572692964439000,4.68043896484375,9.336793899536133,1.797009825706482,0.03409772366285324
1772572692982272000,4.69827197265625,9.399007797241211,1.811964988708496,0.1052841991186142
1772572693000114700,4.71611474609375,9.498908042907715,1.8747764825820923,0.1866401731967926
1772572693017947000,4.73394677734375,9.403793334960938,1.7784653902053833,0.12442677468061447
1772572693035783200,4.751783203125,9.246464729309082,1.7778671979904175,0.05742774158716202
1772572693053619200,4.769619140625,9.255437850952148,1.8975083827972412,0.14775680005550385
1772572693071455500,4.78745556640625,9.585049629211426,1.8705891370773315,0.1824527233839035
1772572693089291300,4.805291259765625,9.628120422363281,1.765903115272522,0.1585244983434677
1772572693107127600,4.82312744140625,9.585049629211426,1.755733609199524,0.0771685317158699
1772572693124960300,4.840960205078125,9.399007797241211,1.7545372247695923,0.06759724020957947
1772572693142802700,4.858802734375,9.30329418182373,1.8305093050003052,0.09571290761232376
1772572693160635000,4.876634765625,9.561120986938477,1.8323038816452026,0.17288143932819366
1772572693178471400,4.894471435546875,9.618548393249512,1.7222341299057007,0.06281159073114395
1772572693196307200,4.91230712890625,9.45164966583252,1.716252088546753,-0.023330021649599075
1772572693214131500,4.93013134765625,9.308079719543457,1.7874385118484497,0.0526420995593071
1772572693231979000,4.94797900390625,9.551549911499023,1.9184455871582031,0.19142581522464752
1772572693249815600,4.965815673828125,9.661619186401367,1.832902193069458,0.11066804826259613
1772572693267634700,4.983634765625,9.546764373779297,1.7694923877716064,0.005383851006627083
1772572693285487900,5.00148779296875,9.379864692687988,1.811964988708496,0.03409772366285324
1772572693303323100,5.0193232421875,9.403194427490234,1.9028922319412231,0.11485548317432404
1772572693321159200,5.0371591796875,9.407979965209961,1.893320918083191,0.09571290761232376
1772572693338995700,5.05499560546875,9.42772102355957,1.7736797332763672,0.010169495828449726
1772572693356832000,5.07283203125,9.518050193786621,1.7407784461975098,0.029312077909708023
1772572693374667500,5.09066748046875,9.699904441833496,1.679761528968811,0.10169496387243271
1772572693392503300,5.10850341796875,9.632905960083008,1.6845471858978271,0.09212367236614227
1772572693410335500,5.12633544921875,9.604789733886719,1.5499508380889893,-0.06580262631177902
1772572693428176400,5.14417626953125,9.69093132019043,1.521835207939148,-0.06041877344250679
1772572693446010600,5.1620107421875,9.600004196166992,1.5738791227340698,0.04905286431312561
1772572693463844400,5.17984423828125,9.332008361816406,1.7497515678405762,0.11006984114646912
1772572693481674800,5.1976748046875,9.236893653869629,1.7682958841323853,0.08135596662759781
1772572693499513300,5.215513427734375,9.32722282409668,1.7832510471343994,0.1052841991186142
1772572693517349000,5.23334912109375,9.403793334960938,1.7784653902053833,0.09631111472845078
1772572693535191600,5.251191650390625,9.446864128112793,1.726421594619751,0.03409772366285324
1772572693553027300,5.26902734375,9.42772102355957,1.6875381469726562,-0.004187439568340778
1772572693570863900,5.28686376953125,9.852447509765625,1.7330018281936646,0.09212367236614227
1772572693588699100,5.30469921875,9.852447509765625,1.8005990982055664,0.18783657252788544
1772572693606535400,5.322535400390625,9.470193862915039,1.841277003288269,0.1010967567563057
1772572693624372000,5.3403720703125,9.308079719543457,1.8496519327163696,0.038285162299871445
1772572693642207700,5.358207763671875,9.647262573242188,1.82273268699646,0.10588239878416061
1772572693660043500,5.37604345703125,9.675976753234863,1.8424733877182007,0.1537388563156128
1772572693677879800,5.3938798828125,9.412766456604004,1.965105652809143,0.12442677468061447
1772572693695706000,5.4117060546875,9.226723670959473,1.9208383560180664,0.08554340898990631
1772572693713552000,5.4295517578125,9.322437286376953,1.8975083827972412,0.12442677468061447
1772572693731387100,5.44738720703125,9.55633544921875,1.8610178232192993,0.16331014037132263
1772572693749223700,5.4652236328125,9.5324068069458,1.8179470300674438,0.13938191533088684
1772572693767059700,5.483059814453125,9.346364974975586,1.7928223609924316,0.12442677468061447
1772572693784896300,5.500896240234375,9.260223388671875,1.8161523342132568,0.12921242415905
1772572693802731300,5.518731201171875,9.284152030944824,1.8305093050003052,0.12442677468061447
1772572693820567600,5.536567626953125,9.351150512695312,1.8263218402862549,0.06699903309345245
1772572693838403800,5.55440380859375,9.403793334960938,1.8741782903671265,0.1339980661869049
1772572693856240000,5.572240234375,9.589835166931152,1.8753747940063477,0.23988047242164612
1772572693874075400,5.590075439453125,9.54197883605957,1.937588095664978,0.23449662327766418
1772572693891908600,5.60790869140625,9.418149948120117,1.80717933177948,0.03888336941599846
1772572693909750800,5.625750732421875,9.575477600097656,1.7892330884933472,0.053240302950143814
1772572693927583700,5.643583740234375,9.665806770324707,1.8951154947280884,0.16331014037132263
1772572693945420500,5.661420654296875,9.44626522064209,2.042274236679077,0.2105683982372284
1772572693963252000,5.679251953125,9.198010444641113,1.9782661199569702,0.1381855010986328
1772572693981092000,5.697092041015625,9.221938133239746,1.810768485069275,0.019142581149935722
1772572693998928000,5.714927978515625,9.355937004089355,1.8263218402862549,0.09092725813388824
1772572694016763400,5.732763427734375,9.399007797241211,1.8215361833572388,0.04366901144385338
1772572694034599700,5.750599609375,9.43190860748291,1.8406788110733032,0.03888336941599846
1772572694052435700,5.768435791015625,9.537193298339844,1.7742780447006226,0.053240302950143814
1772572694070272000,5.78627197265625,9.747760772705078,1.7180466651916504,0.03469592705368996
1772572694088107500,5.804107421875,9.69511890411377,1.7228323221206665,0.0011964113218709826
1772572694105942800,5.82194287109375,9.475577354431152,1.7306089401245117,-0.023330021649599075
1772572694123780900,5.83978076171875,9.394221305847168,1.7114664316177368,-0.08554340898990631
1772572694141615900,5.857615966796875,9.527621269226074,1.6785650253295898,-0.10408778488636017
1772572694159451600,5.87545166015625,9.637691497802734,1.693520188331604,-0.07058826833963394
1772572694177288000,5.893287841796875,9.518050193786621,1.6929219961166382,-0.07058826833963394
1772572694195123700,5.911123779296875,9.317651748657227,1.710868239402771,-0.08075776696205139
1772572694212960000,5.9289599609375,9.34157943725586,1.7395820617675781,-0.004187439568340778
1772572694230795300,5.946795166015625,9.671191215515137,1.7467604875564575,0.12023933976888657
1772572694248632000,5.964632080078125,9.728618621826172,1.7228323221206665,0.11605189740657806
1772572694266467800,5.9824677734375,9.499505996704102,1.7168502807617188,0.0771685317158699
1772572694284304000,6.000303955078125,9.442078590393066,1.755135416984558,0.1339980661869049
1772572694302139100,6.01813916015625,9.489336013793945,1.8556339740753174,0.20099709928035736
1772572694319975700,6.0359755859375,9.546764373779297,1.8945173025131226,0.22013968229293823
1772572694337811700,6.053811767578125,9.403793334960938,1.8454644680023193,0.1818545162677765
1772572694355648000,6.07164794921875,9.403793334960938,1.8693926334381104,0.11485548317432404
1772572694373483300,6.089483154296875,9.56650447845459,1.7024933099746704,-0.004187439568340778
1772572694391319600,6.107319580078125,9.809974670410156,1.5990036725997925,-0.050847481936216354
1772572694409155600,6.125155517578125,9.571290969848633,1.6498512029647827,-0.06580262631177902
1772572694426992000,6.1429921875,9.379864692687988,1.7545372247695923,0
1772572694444827400,6.160827392578125,9.446864128112793,1.721037745475769,0.010169495828449726
1772572694462663700,6.17866357421875,9.509077072143555,1.6019947528839111,-0.008973085321485996
1772572694480499200,6.196499267578125,9.399605751037598,1.6205391883850098,-0.008973085321485996
1772572694498335700,6.214335693359375,9.284749984741211,1.648654818534851,-0.019142581149935722
1772572694516171300,6.232171142578125,9.136993408203125,1.719243049621582,0
1772572694534007600,6.250007568359375,9.217751502990723,1.6959130764007568,0.07178468257188797
1772572694551843300,6.26784326171875,9.313464164733887,1.734796404838562,0.06699903309345245
1772572694569680000,6.285679931640625,9.336793899536133,1.7545372247695923,0.09571290761232376
1772572694587515400,6.303515380859375,9.275178909301758,1.797009825706482,0.17168502509593964
1772572694605351400,6.321351318359375,9.437292098999023,1.7742780447006226,0.19621145725250244
1772572694623187500,6.3391875,9.704689979553223,1.6516457796096802,0.22073788940906525
1772572694641023700,6.357023681640625,9.862616539001465,1.5708880424499512,0.1782652884721756
1772572694658859500,6.374859619140625,9.89133071899414,1.5565310716629028,0.18305093050003052
1772572694676695600,6.392695556640625,9.79083251953125,1.6133606433868408,0.22073788940906525
1772572694694531800,6.41053173828125,9.66221809387207,1.6175481081008911,0.2111666053533554
1772572694712367600,6.42836767578125,9.518648147583008,1.6115660667419434,0.129810631275177
1772572694730203600,6.44620361328125,9.390034675598145,1.673181176185608,0.12921242415905
1772572694748039700,6.464039794921875,9.390034675598145,1.7066807746887207,0.17228323221206665
1772572694765863400,6.481863525390625,9.43310546875,1.6977076530456543,0.15314064919948578
1772572694783715000,6.499715087890625,9.346963882446289,1.6588243246078491,0.1339980661869049
1772572694801546800,6.517546630859375,9.303893089294434,1.6151553392410278,0.09092725813388824
1772572694819383300,6.53538330078125,9.452247619628906,1.6163517236709595,0.22492532432079315
1772572694837219300,6.55321923828125,9.709476470947266,1.689931035041809,0.37806597352027893
1772572694855055600,6.5710556640625,9.652647018432617,1.5409778356552124,0.23988047242164612
1772572694872891000,6.588890869140625,9.562317848205566,1.3920245170593262,0.09152546525001526
1772572694890727200,6.60672705078125,9.657432556152344,1.4404792785644531,0.1585244983434677
1772572694908563200,6.624563232421875,9.781859397888184,1.5128620862960815,0.2111666053533554
1772572694926399700,6.642399658203125,9.523433685302734,1.5882359743118286,0.17766708135604858
1772572694944235300,6.6602353515625,9.327820777893066,1.6109678745269775,0.15314064919948578
1772572694962071000,6.678071044921875,9.485149383544922,1.6450655460357666,0.17706887423992157
1772572694979907300,6.6959072265625,9.55214786529541,1.602592945098877,0.16809579730033875
1772572694997731000,6.71373095703125,9.571290969848633,1.6121642589569092,0.11545369029045105
1772572695015580000,6.731579833984375,9.42353343963623,1.6109678745269775,0.0771685317158699
1772572695033415000,6.749414794921875,9.43310546875,1.6689938306808472,0.13878370821475983
1772572695051238700,6.76723876953125,9.623932838439941,1.6701902151107788,0.19680966436862946
1772572695069081300,6.785081298828125,9.633503913879395,1.545763373374939,0.1010967567563057
1772572695086922800,6.8029228515625,9.43310546875,1.5158531665802002,0.03888336941599846
1772572695104759300,6.82075927734375,9.242277145385742,1.6199408769607544,0.07657032459974289
1772572695122593300,6.83859326171875,9.284749984741211,1.730010747909546,0.2147558331489563
1772572695140416800,6.856416748046875,9.30867862701416,1.673181176185608,0.18125630915164948
1772572695158265900,6.874265869140625,9.294321060180664,1.643869161605835,0.14356936514377594
1772572695176104200,6.892104248046875,9.42353343963623,1.5206388235092163,0.14356936514377594
1772572695193938700,6.909938720703125,9.57607650756836,1.5738791227340698,0.14416755735874176
1772572695211775000,6.92777490234375,9.489934921264648,1.6450655460357666,0.16271193325519562
1772572695229610500,6.945610595703125,9.43310546875,1.6546368598937988,0.1339980661869049
1772572695247446800,6.96344677734375,9.547362327575684,1.5882359743118286,0.1585244983434677
1772572695265278500,6.981278564453125,9.714859962463379,1.526620864868164,0.11545369029045105
1772572695283123500,6.99912353515625,9.724431037902832,1.5074782371520996,0.11126625537872314
1772572695300953900,7.016953857421875,9.561718940734863,1.5690934658050537,0.11066804826259613
1772572695318790400,7.034790283203125,9.475577354431152,1.6546368598937988,0.20099709928035736
1772572695336626400,7.05262646484375,9.57607650756836,1.6408780813217163,0.2105683982372284
1772572695354462700,7.070462646484375,9.499505996704102,1.6402798891067505,0.1579262912273407
1772572695372298200,7.08829833984375,9.351749420166016,1.7736797332763672,0.19561325013637543
1772572695390134500,7.106134521484375,9.33739185333252,1.7784653902053833,0.2721835672855377
1772572695407970300,7.12397021484375,9.499505996704102,1.6929219961166382,0.2153540402650833
1772572695425806800,7.141806884765625,9.647860527038574,1.5553346872329712,0.1537388563156128
1772572695443641900,7.159641845703125,9.772287368774414,1.5607185363769531,0.19202402234077454
1772572695461478100,7.17747802734375,9.7005033493042,1.6462619304656982,0.22552353143692017
1772572695479300400,7.19530029296875,9.480362892150879,1.6977076530456543,0.17706887423992157
1772572695497141200,7.213141357421875,9.303893089294434,1.7252250909805298,0.17168502509593964
1772572695514988800,7.23098876953125,9.342177391052246,1.7066807746887207,0.18125630915164948
1772572695532827400,7.248827392578125,9.399605751037598,1.6013965606689453,0.15314064919948578
1772572695550658000,7.266657958984375,9.385248184204102,1.5726827383041382,0.09571290761232376
1772572695568494000,7.284494140625,9.318249702453613,1.6342978477478027,0.10049854964017868
1772572695586329900,7.302329833984375,9.29910659790039,1.6821542978286743,0.1579262912273407
1772572695604165600,7.32016552734375,9.43310546875,1.664208173751831,0.11006984114646912
1772572695622002000,7.338001953125,9.53360366821289,1.5445669889450073,0.06759724020957947
1772572695639838200,7.355838134765625,9.533005714416504,1.5828521251678467,0.09631111472845078
1772572695657674000,7.373674072265625,9.528220176696777,1.7078771591186523,0.19621145725250244
1772572695675509800,7.391509765625,9.590433120727539,1.6983058452606201,0.17228323221206665
1772572695693344500,7.409344482421875,9.595218658447266,1.5595221519470215,0.06759724020957947
1772572695711182000,7.42718212890625,9.652647018432617,1.5649060010910034,0.08673982322216034
1772572695729019000,7.445018798828125,9.742975234985352,1.6606189012527466,0.1537388563156128
1772572695746840300,7.46284033203125,9.647860527038574,1.6600207090377808,0.11066804826259613
1772572695764689400,7.480689453125,9.533005714416504,1.6402798891067505,0.07238288223743439
1772572695782525400,7.498525390625,9.504291534423828,1.664208173751831,0.12921242415905
1772572695800357000,7.516357177734375,9.595218658447266,1.6408780813217163,0.13459627330303192
1772572695818197200,7.534197265625,9.53779125213623,1.597209095954895,0.09152546525001526
1772572695836033000,7.552032958984375,9.32303524017334,1.6342978477478027,0.10049854964017868
1772572695853869300,7.569869384765625,9.21834945678711,1.6869399547576904,0.12861421704292297
1772572695871704600,7.58770458984375,9.294321060180664,1.6534404754638672,0.15732808411121368
1772572695889541000,7.605541015625,9.514460563659668,1.5547364950180054,0.17228323221206665
1772572695907377000,7.623376953125,9.528818130493164,1.5643078088760376,0.2105683982372284
1772572695925213400,7.64121337890625,9.490532875061035,1.6408780813217163,0.24885354936122894
1772572695943048400,7.65904833984375,9.452247619628906,1.6737794876098633,0.20099709928035736
1772572695960885000,7.676885009765625,9.342177391052246,1.6013965606689453,0.11964113265275955
1772572695978721000,7.694720947265625,9.437891006469727,1.6546368598937988,0.1339980661869049
1772572695996556800,7.712556884765625,9.661619186401367,1.7515461444854736,0.24885354936122894
1772572696014392300,7.730392333984375,9.957731246948242,1.7820546627044678,0.2638086974620819
1772572696032228400,7.748228271484375,9.485149383544922,1.8693926334381104,0.03349951654672623
1772572696050064400,7.766064453125,9.480362892150879,1.7120646238327026,0.09092725813388824
1772572696067901000,7.78390087890625,9.647262573242188,1.7174484729766846,0.08195417374372482
1772572696085736000,7.80173583984375,9.494720458984375,1.6785650253295898,0.010169495828449726
1772572696103572500,7.819572509765625,9.289535522460938,1.7730815410614014,0.05742774158716202
1772572696121408300,7.837408203125,9.446864128112793,1.8221344947814941,0.13878370821475983
1772572696139245000,7.8552451171875,9.384650230407715,1.7443677186965942,-0.02392822690308094
