time,seconds_elapsed,z,y,x
1772572688373897000,0.08989697265625,0.04398229718208313,0,-0.0555887371301651
1772572688391722000,0.107721923828125,0.05390885844826698,0.02871066704392433,-0.08964447677135468
1772572688409573600,0.12557373046875,0.06490442901849747,0.03084869496524334,-0.08246681094169617
1772572688427397000,0.143397216796875,0.0780380368232727,-0.00366519158706069,-0.05513058975338936
1772572688445245700,0.16124560546875,0.08597928285598755,-0.04199698567390442,-0.022449297830462456
1772572688463074000,0.179073974609375,0.058337632566690445,-0.07376197725534439,-0.00366519158706069
1772572688480917500,0.19691748046875,0.013591751456260681,-0.08689557760953903,-0.003359758760780096
1772572688498753800,0.21475390625,-0.018936822190880775,-0.11713340878486633,-0.016493361443281174
1772572688516590000,0.232590087890625,-0.01710422709584236,-0.09010262042284012,-0.02519819140434265
1772572688534425900,0.25042578125,-0.01466076634824276,-0.02733621932566166,-0.042760565876960754
1772572688552261600,0.26826171875,-0.02122756652534008,-0.005192354787141085,-0.061391957104206085
1772572688570095900,0.286095947265625,0.00045814894838258624,-0.026419922709465027,-0.06414084881544113
1772572688587932700,0.3039326171875,0.014966198243200779,-0.06368270516395569,-0.05467243865132332
1772572688605772800,0.321772705078125,0.0025961773935705423,-0.04657847434282303,-0.018325956538319588
1772572688623602400,0.3396025390625,-0.003359758760780096,-0.06169738993048668,0.03833179548382759
1772572688641444600,0.357444580078125,-0.007177666760981083,-0.08720101416110992,0.078343465924263
1772572688659277600,0.375277587890625,-0.01725694350898266,-0.06398813426494598,0.06536258012056351
1772572688677114000,0.393114013671875,-0.010537425056099892,0,0.02382374368607998
1772572688694949600,0.41094970703125,0.013439035043120384,-0.008399397134780884,-0.02076941914856434
1772572688712785700,0.42878564453125,0.026419922709465027,-0.05849034711718559,-0.05054909735918045
1772572688730621400,0.446621337890625,0.0074830991216003895,-0.052839845418930054,-0.05543602257966995
1772572688748457500,0.46445751953125,0.00015271631127689034,-0.005345070734620094,-0.02977968007326126
1772572688766293500,0.48229345703125,0.01878410577774048,0.017867809161543846,0.02535090781748295
1772572688784129800,0.5001298828125,0.04749477282166481,-0.02687807008624077,0.06505715101957321
1772572688801965600,0.517965576171875,0.04734205827116966,-0.05925392732024193,0.06261368840932846
1772572688819801900,0.5358017578125,0.029016099870204926,-0.03878994286060333,0.038179077208042145
1772572688837637600,0.5536376953125,0.01863138936460018,-0.04352414980530739,-0.0065668015740811825
1772572688855474200,0.57147412109375,0.029474247246980667,-0.08139779418706894,-0.05192354694008827
1772572688873309200,0.58930908203125,0.0377209298312664,-0.08139779418706894,-0.07910704612731934
1772572688891145700,0.607145751953125,0.045204028487205505,-0.06887505948543549,-0.05742133408784866
1772572688908981500,0.6249814453125,0.04688390716910362,-0.09605856239795685,-0.01878410577774048
1772572688926817500,0.642817626953125,0.03344487398862839,-0.13057245314121246,0.010537425056099892
1772572688944653800,0.66065380859375,-0.0009162978967651725,-0.09025534242391586,0.01160643994808197
1772572688962489300,0.6784892578125,-0.01771509274840355,-0.00931569468230009,-0.023518312722444534
1772572688980322000,0.696322021484375,0.014966198243200779,0.02535090781748295,-0.06169738993048668
1772572688998161700,0.71416162109375,0.056810468435287476,-0.03405573591589928,-0.06169738993048668
1772572689015994600,0.73199462890625,0.06352998316287994,-0.05971207842230797,-0.008704829961061478
1772572689033836500,0.74983642578125,0.048258353024721146,0.001679879380390048,0.10674870014190674
1772572689051669500,0.76766943359375,0.007177666760981083,0.055283304303884506,0.18585574626922607
1772572689069505500,0.785505615234375,-0.004734205547720194,0.09453139454126358,0.19043724238872528
1772572689087339500,0.803339599609375,0.012522737495601177,0.0679587572813034,0.1469130963087082
1772572689105180000,0.821179931640625,0.011301007121801376,0.014966198243200779,0.08720101416110992
1772572689123011000,0.839010986328125,0.020922135561704636,0.01572977937757969,0.03130684420466423
1772572689140852000,0.85685205078125,0.041691552847623825,0.0754418596625328,0.02229658141732216
1772572689158685700,0.874685791015625,0.04932736977934837,0.05910121276974678,0.050243668258190155
1772572689176521500,0.892521484375,0.05360342562198639,-0.01618792861700058,0.08659014850854874
1772572689194357200,0.910357177734375,0.058795779943466187,-0.052381694316864014,0.1059851199388504
1772572689212193300,0.928193359375,0.07757988572120667,-0.0039706239476799965,0.10797043144702911
1772572689230029300,0.946029296875,0.08567385375499725,0.02076941914856434,0.08261952549219131
1772572689247865300,0.963865234375,0.07925976812839508,-0.007941247895359993,0.022449297830462456
1772572689265689000,0.981689208984375,0.052381694316864014,0.006872233934700489,-0.027030786499381065
1772572689283537200,0.999537109375,0.05772676691412926,0.05054909735918045,-0.020311269909143448
1772572689301373400,1.01737353515625,0.07360926270484924,0.06688974797725677,0.020616702735424042
1772572689319209500,1.03520947265625,0.06383541971445084,0.05864306539297104,0.05497787147760391
1772572689337045500,1.05304541015625,0.04856378585100174,0.05451972410082817,0.07376197725534439
1772572689354881500,1.070881591796875,0.043676864355802536,0.057879481464624405,0.07299839705228806
1772572689372717000,1.088717041015625,0.036041051149368286,0.027030786499381065,0.04214970022439957
1772572689390553000,1.106552978515625,0.030543262138962746,-0.019853120669722557,0.0025961773935705423
1772572689408389600,1.1243896484375,0.011759156361222267,-0.044287730008363724,-0.03084869496524334
1772572689426225400,1.142225341796875,0.006719517521560192,-0.030085112899541855,-0.03940080851316452
1772572689444061200,1.160061279296875,0.022449297830462456,0.015271631069481373,-0.04795292019844055
1772572689461897000,1.17789697265625,0.05421429127454758,0.05268712714314461,-0.03237585723400116
1772572689479731000,1.19573095703125,0.05390885844826698,0.03481931984424591,-0.0029016099870204926
1772572689497556500,1.213556396484375,0.041691552847623825,0.0025961773935705423,0.025503624230623245
1772572689515396400,1.231396240234375,0.01970040425658226,0.009468411095440388,0.04046982154250145
1772572689533241000,1.249240966796875,-0.0009162978967651725,0.038026362657547,0.02535090781748295
1772572689551077000,1.2670771484375,0.003054326167330146,0.01970040425658226,-0.0029016099870204926
1772572689568913000,1.284912841796875,0.03573561832308769,-0.006872233934700489,0.004123340360820293
1772572689586740700,1.30274072265625,0.04230241850018501,-0.03741549700498581,0.011759156361222267
1772572689604585000,1.3205849609375,0.013439035043120384,-0.0555887371301651,0.017409659922122955
1772572689622420200,1.338420166015625,-0.023060163483023643,-0.041691552847623825,0.010537425056099892
1772572689640257800,1.3562578125,-0.012675453908741474,0.016340645030140877,0.0012217304902151227
1772572689658093000,1.374093017578125,0.02321287989616394,0.04581489413976669,-0.021991148591041565
1772572689675927600,1.391927490234375,0.04108068719506264,0.04459316283464432,-0.04688390716910362
1772572689693767700,1.409767578125,0.04260785132646561,0.03497203439474106,-0.04657847434282303
1772572689711589000,1.427589111328125,0.03985895588994026,0.025503624230623245,-0.02076941914856434
1772572689729437000,1.44543701171875,0.030085112899541855,0.01466076634824276,0.005650503560900688
1772572689747267600,1.463267578125,0.020311269909143448,0.020922135561704636,0.013591751456260681
1772572689765096400,1.481096435546875,0.02733621932566166,0.009926560334861279,-0.003359758760780096
1772572689782945000,1.498945068359375,0.04841107130050659,0.010231993161141872,-0.02122756652534008
1772572689800780800,1.51678076171875,0.06017022579908371,0.025503624230623245,-0.01970040425658226
1772572689818617300,1.534617431640625,0.042760565876960754,0.04932736977934837,-0.007941247895359993
1772572689836452900,1.552452880859375,0.037110064178705215,0.02687807008624077,-0.00733038317412138
1772572689854289200,1.5702890625,0.07757988572120667,-0.01863138936460018,0.00015271631127689034
1772572689872124700,1.588124755859375,0.11133018881082535,0.003359758760780096,0.022602014243602753
1772572689889960700,1.605960693359375,0.11224649101495743,0.06017022579908371,0.029016099870204926
1772572689907797000,1.623796875,0.08796459436416626,0.09285151958465576,0.021838432177901268
1772572689925631700,1.6416318359375,0.05009094998240471,0.07483099400997162,0.020005837082862854
1772572689943469600,1.659469482421875,0.029168816283345222,0.03634648025035858,0.03436116874217987
1772572689961304800,1.677304931640625,0.025045474991202354,0.01191187184303999,0.06398813426494598
1772572689990286800,1.706286865234375,0.029626963660120964,-0.03634648025035858,0.060322944074869156
1772572690008125400,1.72412548828125,0.022449297830462456,-0.048258353024721146,0.03375030308961868
1772572690025959400,1.74195947265625,0.004428773187100887,-0.015882495790719986,-0.001527163083665073
1772572690043797000,1.759796875,-0.006872233934700489,0.04108068719506264,-0.03344487398862839
1772572690061632300,1.77763232421875,-0.01572977937757969,0.06108652427792549,-0.05268712714314461
1772572690079469000,1.795468994140625,-0.011453723534941673,0.04046982154250145,-0.042760565876960754
1772572690097303800,1.8133037109375,-0.003359758760780096,0.0012217304902151227,-0.013286318629980087
1772572690115140000,1.83114013671875,0.0065668015740811825,-0.00366519158706069,0.03237585723400116
1772572690132975900,1.848975830078125,-0.005039638374000788,0.005497787147760391,0.05971207842230797
1772572690150813000,1.86681298828125,-0.03985895588994026,-0.001832595793530345,0.027641652151942253
1772572690168647700,1.884647705078125,-0.04688390716910362,0.0007635815418325365,-0.033139441162347794
1772572690186484000,1.90248388671875,-0.015118914656341076,-0.013744467869400978,-0.07895433157682419
1772572690204317000,1.92031689453125,-0.0009162978967651725,-0.002138028386980295,-0.07391469180583954
1772572690222160000,1.938159912109375,-0.010842857882380486,0.002138028386980295,-0.04795292019844055
1772572690239992000,1.955991943359375,-0.024129176512360573,-0.016951510682702065,-0.022602014243602753
1772572690257828000,1.973828125,-0.030237829312682152,-0.033597588539123535,-0.016798794269561768
1772572690275664000,1.991663818359375,-0.028557950630784035,0.00045814894838258624,-0.01466076634824276
1772572690293488400,2.00948828125,-0.03894266113638878,0.05513058975338936,-0.02672535367310047
1772572690311336000,2.0273359375,-0.035124752670526505,0.06475171446800232,-0.029016099870204926
1772572690329158700,2.04515869140625,-0.018325956538319588,0.026419922709465027,-0.030085112899541855
1772572690347008000,2.063008056640625,-0.010995574295520782,0.019547687843441963,-0.03497203439474106
1772572690364832500,2.08083251953125,0.0006108652451075613,0.07360926270484924,-0.03451388701796532
1772572690382679600,2.098679443359375,0.00931569468230009,0.0780380368232727,-0.025961773470044136
1772572690400515600,2.116515625,0.014508049935102463,0.014508049935102463,-0.012828170321881771
1772572690418351900,2.134351806640625,0.008857546374201775,-0.0633772686123848,0.0029016099870204926
1772572690436189000,2.15218896484375,-0.0003054326225537807,-0.11163562536239624,0.008857546374201775
1772572690454024000,2.17002392578125,-0.005650503560900688,-0.07773260027170181,0.003817907767370343
1772572690471859700,2.187859619140625,-0.007635815534740686,-0.01863138936460018,-0.009773843921720982
1772572690489696000,2.205696044921875,-0.044135015457868576,0.001527163083665073,-0.03222314268350601
1772572690507532300,2.2235322265625,-0.07452555745840073,-0.01038470957428217,-0.03680463135242462
1772572690525368800,2.241368896484375,-0.07895433157682419,-0.05360342562198639,-0.03680463135242462
1772572690543203000,2.259203125,-0.05711590126156807,-0.06612616032361984,-0.01664607785642147
1772572690561037600,2.27703759765625,-0.059406645596027374,-0.056810468435287476,0.004734205547720194
1772572690578878500,2.29487841796875,-0.08124507963657379,-0.05421429127454758,0.012675453908741474
1772572690596711700,2.312711669921875,-0.09269879758358002,-0.020005837082862854,0.00809396430850029
1772572690614547700,2.330547607421875,-0.078343465924263,0.06811147183179855,0.004581489134579897
1772572690632383200,2.34838330078125,-0.025045474991202354,0.09941831976175308,-0.015882495790719986
1772572690650220500,2.366220458984375,0.012675453908741474,0.036041051149368286,-0.041233405470848083
1772572690668055300,2.38405517578125,0.01863138936460018,-0.013897184282541275,-0.035124752670526505
1772572690685890600,2.401890625,0.0013744467869400978,-0.010231993161141872,-0.006261368747800589
1772572690703728400,2.419728271484375,-0.01664607785642147,-0.012217304669320583,0.014355333521962166
1772572690721564700,2.437564697265625,-0.00733038317412138,-0.048716504126787186,0.011301007121801376
1772572690739399700,2.455399658203125,0.02687807008624077,-0.04260785132646561,-0.008704829961061478
1772572690757235500,2.4732353515625,0.05054909735918045,0.009926560334861279,-0.012675453908741474
1772572690775071700,2.49107177734375,0.05375614017248154,0.017867809161543846,-0.006872233934700489
1772572690792896500,2.508896484375,0.035124752670526505,-0.02535090781748295,0.0012217304902151227
1772572690810743300,2.526743408203125,0.01878410577774048,-0.02932153269648552,0.008704829961061478
1772572690828584700,2.544584716796875,0.03436116874217987,0.014202617108821869,0.021532999351620674
1772572690846415400,2.562415283203125,0.02825251780450344,0.026419922709465027,0.02626720629632473
1772572690864252700,2.580252685546875,0.006108652334660292,-0.012064588256180286,0.020616702735424042
1772572690882087400,2.59808740234375,-0.0064140851609408855,-0.01817324012517929,0.005803219974040985
1772572690899923700,2.615923828125,0.013286318629980087,0.010995574295520782,-0.005955935921519995
1772572690917759500,2.633759521484375,0.020922135561704636,0.014508049935102463,-0.010537425056099892
1772572690935596800,2.6515966796875,0.0012217304902151227,-0.015577063895761967,-0.011453723534941673
1772572690953431300,2.669431396484375,-0.031154127791523933,-0.02871066704392433,-0.018478672951459885
1772572690971267000,2.68726708984375,-0.04856378585100174,0.0022907445672899485,-0.02733621932566166
1772572690989104400,2.7051044921875,-0.02779436856508255,0.059864792972803116,-0.021991148591041565
1772572691006940000,2.72293994140625,-0.0019853119738399982,0.0734565481543541,-0.009162978269159794
1772572691024772000,2.740772216796875,0.006719517521560192,0.004886921960860491,-0.010231993161141872
1772572691042614800,2.75861474609375,0.001679879380390048,-0.06383541971445084,-0.004428773187100887
1772572691060439600,2.776439453125,-0.015577063895761967,-0.0630718395113945,0.0003054326225537807
1772572691078284300,2.7942841796875,-0.012522737495601177,0.006261368747800589,-0.005192354787141085
1772572691096119300,2.812119384765625,-0.005345070734620094,0.05467243865132332,-0.03848451003432274
1772572691113955300,2.829955322265625,0.0024434609804302454,0.031154127791523933,-0.0685696229338646
1772572691131791400,2.847791259765625,0.00733038317412138,0.008857546374201775,-0.050243668258190155
1772572691149628400,2.86562841796875,0.009162978269159794,0.02229658141732216,0.008704829961061478
1772572691167464400,2.88346435546875,0.0022907445672899485,0.006108652334660292,0.036193765699863434
1772572691185299500,2.901299560546875,-0.019089538604021072,-0.023365596309304237,0.019547687843441963
1772572691203135200,2.91913525390625,-0.034666601568460464,-0.011759156361222267,-0.00366519158706069
1772572691220972300,2.93697216796875,-0.022143865004181862,0.01878410577774048,-0.022143865004181862
1772572691238807300,2.954807373046875,-0.006261368747800589,0.032681290060281754,-0.03634648025035858
1772572691256643300,2.972643310546875,-0.0019853119738399982,0.02626720629632473,-0.03940080851316452
1772572691274479400,2.990479248046875,0.0065668015740811825,-0.006719517521560192,-0.036651913076639175
1772572691292316400,3.00831640625,0.021380282938480377,-0.03145955875515938,-0.005497787147760391
1772572691310151400,3.0261513671875,0.020922135561704636,-0.057879481464624405,0.02626720629632473
1772572691327987500,3.043987548828125,0.01191187184303999,-0.09651670604944229,0.01725694350898266
1772572691345823500,3.061823486328125,0.004123340360820293,-0.07147123664617538,-0.0354301854968071
1772572691363660000,3.079659912109375,-0.0064140851609408855,-0.007024950347840786,-0.09514226019382477
1772572691381495300,3.097495361328125,-0.00045814894838258624,0.03451388701796532,-0.126143679022789
1772572691399331000,3.1153310546875,0.02519819140434265,0.011301007121801376,-0.10415252298116684
1772572691417167400,3.13316748046875,0.026572637259960175,-0.048716504126787186,-0.04596760869026184
1772572691435004400,3.15100439453125,0.00855211354792118,-0.09911288321018219,0.00733038317412138
1772572691452839200,3.168839111328125,0.003512475173920393,-0.09758572280406952,0.0377209298312664
1772572691470675200,3.18667529296875,0.007635815534740686,-0.0731511116027832,0.030237829312682152
1772572691488496000,3.20449609375,0.013133603148162365,-0.021380282938480377,-0.001527163083665073
1772572691506337800,3.222337890625,0.0074830991216003895,0.028557950630784035,-0.03237585723400116
1772572691524186400,3.240186279296875,0.0039706239476799965,0.055741455405950546,-0.031154127791523933
1772572691542019000,3.25801904296875,-0.0010690141934901476,0.02580905705690384,-0.015271631069481373
1772572691559852800,3.275852783203125,-0.019394971430301666,-0.002138028386980295,0.009162978269159794
1772572691577679600,3.2936796875,-0.04214970022439957,0.02672535367310047,0.04489859566092491
1772572691595530000,3.311530029296875,-0.04657847434282303,0.01725694350898266,0.04932736977934837
1772572691613363200,3.32936328125,-0.03405573591589928,-0.010079276748001575,0.03145955875515938
1772572691631199000,3.347198974609375,-0.036651913076639175,0.018936822190880775,0.01878410577774048
1772572691649040600,3.36504052734375,-0.030543262138962746,0.04688390716910362,0.024587325751781464
1772572691666858800,3.382858642578125,-0.0029016099870204926,0.01924225501716137,0.048716504126787186
1772572691684707300,3.400707275390625,0.019394971430301666,-0.009010262787342072,0.06536258012056351
1772572691702543000,3.418543212890625,0.012980886735022068,0.025656340643763542,0.05696318298578262
1772572691720376300,3.436376220703125,0.030543262138962746,0.06688974797725677,0.0328340083360672
1772572691738215400,3.45421533203125,0.04795292019844055,0.052228979766368866,0.00733038317412138
1772572691756051200,3.47205126953125,0.04612032696604729,0.006872233934700489,-0.02229658141732216
1772572691773887200,3.48988720703125,0.029474247246980667,0.005497787147760391,-0.024892758578062057
1772572691791724300,3.507724365234375,0.021991148591041565,0.012675453908741474,-0.003817907767370343
1772572691809559300,3.525559326171875,0.01618792861700058,-0.02015855349600315,0.015577063895761967
1772572691827395300,3.543395263671875,0.02672535367310047,-0.04459316283464432,0.023060163483023643
1772572691845228000,3.56122802734375,0.035582900047302246,0.0012217304902151227,0.0064140851609408855
1772572691863068400,3.579068359375,0.03420845419168472,0.02932153269648552,-0.013133603148162365
1772572691880905700,3.59690576171875,0.008704829961061478,0.005039638374000788,-0.02519819140434265
1772572691898739200,3.6147392578125,-0.01191187184303999,-0.00855211354792118,-0.017867809161543846
1772572691916575000,3.632574951171875,-0.00366519158706069,-0.0032070425804704428,-0.0019853119738399982
1772572691934412300,3.650412353515625,0.008704829961061478,0.001679879380390048,0.008246680721640587
1772572691952247000,3.6682470703125,0.005650503560900688,-0.00809396430850029,0.005803219974040985
1772572691970083000,3.6860830078125,-0.006261368747800589,-0.001832595793530345,0.00366519158706069
1772572691987919000,3.703919189453125,-0.004123340360820293,0.014813481830060482,-0.001832595793530345
1772572692005756400,3.72175634765625,-0.014355333521962166,0.028099801391363144,-0.012675453908741474
1772572692023591200,3.739591064453125,-0.02580905705690384,0.03130684420466423,-0.02733621932566166
1772572692041427200,3.75742724609375,-0.0009162978967651725,0.037110064178705215,-0.012217304669320583
1772572692059263200,3.77526318359375,0.005955935921519995,0.06322455406188965,0.03649919852614403
1772572692077087700,3.793087646484375,-0.004123340360820293,0.04230241850018501,0.07910704612731934
1772572692094935000,3.81093505859375,-0.01191187184303999,-0.036041051149368286,0.08491026610136032
1772572692112771000,3.82877099609375,-0.003054326167330146,-0.04749477282166481,0.05451972410082817
1772572692130609200,3.846609130859375,0.009773843921720982,0.005345070734620094,0.010995574295520782
1772572692148444400,3.8644443359375,0.009926560334861279,0.04199698567390442,-0.025656340643763542
1772572692166279200,3.882279052734375,0.003359758760780096,0.01710422709584236,-0.046273041516542435
1772572692184115200,3.900115234375,-0.006872233934700489,0.01191187184303999,-0.041233405470848083
1772572692201951000,3.917950927734375,-0.012828170321881771,0.029016099870204926,-0.002138028386980295
1772572692219788500,3.93578857421875,-0.003359758760780096,-0.003817907767370343,0.044287730008363724
1772572692237623300,3.953623291015625,0.00733038317412138,-0.05650503560900688,0.07162395119667053
1772572692255459300,3.971459228515625,0.01466076634824276,-0.04444044828414917,0.05345070734620094
1772572692273296100,3.989296142578125,0.027030786499381065,0.02977968007326126,0.01725694350898266
1772572692291131000,4.007130859375,0.05253441259264946,0.07987063378095627,-0.0029016099870204926
1772572692308968200,4.02496826171875,0.05757404863834381,0.06948592513799667,-0.005192354787141085
1772572692326802700,4.042802734375,0.04092797264456749,0.07284568250179291,0.02275473065674305
1772572692344639000,4.060638916015625,0.014202617108821869,0.06291911751031876,0.0757472887635231
1772572692362474500,4.078474609375,0.0012217304902151227,-0.001832595793530345,0.11530081182718277
1772572692380308500,4.09630859375,0.0003054326225537807,-0.038026362657547,0.11056660860776901
1772572692398147000,4.11414697265625,0.014508049935102463,0.010537425056099892,0.07208210229873657
1772572692415982600,4.131982666015625,0.029474247246980667,0.04138612002134323,0.010995574295520782
1772572692433820700,4.149820556640625,0.030237829312682152,0.016798794269561768,-0.03436116874217987
1772572692451655200,4.1676552734375,0.02382374368607998,-0.03726277872920036,-0.04459316283464432
1772572692469491000,4.185490966796875,0.022602014243602753,-0.03039054572582245,-0.024129176512360573
1772572692487327200,4.2033271484375,0.017867809161543846,-0.003512475173920393,0.014966198243200779
1772572692505164500,4.22116455078125,0.006261368747800589,-0.03588833287358284,0.02932153269648552
1772572692522999000,4.2389990234375,0.014049900695681572,-0.04948008432984352,0.019394971430301666
1772572692540835000,4.2568349609375,0.019547687843441963,-0.0039706239476799965,-0.022907447069883347
1772572692558671000,4.274671142578125,0.01970040425658226,0.015118914656341076,-0.06918048858642578
1772572692576508400,4.29250830078125,0.017562376335263252,-0.02535090781748295,-0.09682214260101318
1772572692594330600,4.31033056640625,0.016951510682702065,0.0003054326225537807,-0.07376197725534439
1772572692612179000,4.328178955078125,0.009010262787342072,0.07330382615327835,-0.01038470957428217
1772572692630006500,4.346006591796875,0.005345070734620094,0.08216137439012527,0.0429132841527462
1772572692647852300,4.363852294921875,0.027183502912521362,0.04948008432984352,0.05849034711718559
1772572692665687300,4.381687255859375,0.036193765699863434,0.0024434609804302454,0.041691552847623825
1772572692683523000,4.399523193359375,0.015882495790719986,-0.029474247246980667,0.008399397134780884
1772572692701358800,4.41735888671875,0.00015271631127689034,-0.03481931984424591,-0.020922135561704636
1772572692719196700,4.43519677734375,0.014355333521962166,0,-0.04260785132646561
1772572692737031400,4.453031494140625,0.02733621932566166,0.049785517156124115,-0.031001411378383636
1772572692754867700,4.47086767578125,0.02672535367310047,0.04886921867728233,0.0065668015740811825
1772572692772703000,4.488702880859375,0.015118914656341076,-0.025656340643763542,0.024587325751781464
1772572692790537000,4.506536865234375,0.019394971430301666,-0.0708603709936142,0.02275473065674305
1772572692808378600,4.524378662109375,0.03497203439474106,-0.04749477282166481,0.014049900695681572
1772572692826208300,4.542208251953125,0.0455094613134861,-0.03955352306365967,0.004428773187100887
1772572692844050400,4.560050537109375,0.03222314268350601,-0.039248090237379074,-0.007024950347840786
1772572692861880800,4.577880859375,0.019089538604021072,0.0029016099870204926,-0.01114829070866108
1772572692879722500,4.595722412109375,0.01817324012517929,0.03756821155548096,0.00855211354792118
1772572692897555200,4.61355517578125,0.02825251780450344,0.028557950630784035,0.04001167416572571
1772572692915391500,4.6313916015625,0.02825251780450344,0.009468411095440388,0.060475658625364304
1772572692933228000,4.64922802734375,0.009468411095440388,0.015118914656341076,0.048105638474226
1772572692951063300,4.667063232421875,-0.00045814894838258624,0.017562376335263252,0.02580905705690384
1772572692968899000,4.684899169921875,0.007941247895359993,-0.009773843921720982,0.008704829961061478
1772572692986722800,4.702722900390625,0.016340645030140877,-0.015118914656341076,0.005803219974040985
1772572693004572400,4.720572509765625,-0.0007635815418325365,0.01710422709584236,-0.005345070734620094
1772572693022404400,4.738404296875,0.0032070425804704428,0.04856378585100174,-0.026114489883184433
1772572693040246500,4.75624658203125,0.024587325751781464,0.027488935738801956,-0.043218716979026794
1772572693058079500,4.77407958984375,0.013133603148162365,-0.027641652151942253,-0.04505131021142006
1772572693075915800,4.791915771484375,-0.01878410577774048,-0.023976460099220276,-0.02580905705690384
1772572693093752300,4.80975244140625,-0.02428189292550087,-0.005039638374000788,-0.003359758760780096
1772572693111587300,4.82758740234375,-0.02015855349600315,0.013591751456260681,0.014508049935102463
1772572693129411000,4.8454111328125,-0.007635815534740686,0.02015855349600315,0.005650503560900688
1772572693147261000,4.863260986328125,-0.00427605677396059,0.004123340360820293,-0.025045474991202354
1772572693165095400,4.881095458984375,-0.02367102913558483,0.0024434609804302454,-0.040622539818286896
1772572693182931500,4.898931396484375,-0.020311269909143448,0.02733621932566166,-0.021380282938480377
1772572693200767200,4.916767333984375,-0.001832595793530345,0.017562376335263252,-0.0024434609804302454
1772572693218604300,4.934604248046875,0.010231993161141872,-0.01542434748262167,-0.01191187184303999
1772572693236439300,4.952439208984375,-0.01114829070866108,-0.012217304669320583,-0.03497203439474106
1772572693254275300,4.970275390625,-0.02168571576476097,0.02672535367310047,-0.03588833287358284
1772572693272111400,4.988111328125,-0.006872233934700489,0.04092797264456749,-0.02687807008624077
1772572693289950200,5.0059501953125,0.00855211354792118,0.021380282938480377,-0.028557950630784035
1772572693307782100,5.0237822265625,-0.0039706239476799965,0.001832595793530345,-0.03451388701796532
1772572693325619700,5.04161962890625,-0.028099801391363144,-0.009468411095440388,-0.03787364438176155
1772572693343455500,5.05945556640625,-0.032681290060281754,-0.03940080851316452,-0.03222314268350601
1772572693361292300,5.077292236328125,-0.03176499158143997,-0.035582900047302246,-0.03039054572582245
1772572693379127300,5.095127197265625,-0.027641652151942253,0.00045814894838258624,-0.02733621932566166
1772572693396963600,5.112963623046875,-0.0328340083360672,0.02122756652534008,-0.018936822190880775
1772572693414799600,5.130799560546875,-0.019547687843441963,-0.008246680721640587,0.007788531947880983
1772572693432638000,5.148637939453125,0.012980886735022068,-0.003054326167330146,0.04535674303770065
1772572693450471700,5.1664716796875,0.03145955875515938,0.024892758578062057,0.055741455405950546
1772572693468295000,5.184294921875,0.025045474991202354,0.025961773470044136,0.04046982154250145
1772572693486129400,5.20212939453125,0.008246680721640587,0.004886921960860491,0.009621127508580685
1772572693503968300,5.21996826171875,0.001679879380390048,0.0010690141934901476,-0.020311269909143448
1772572693521818600,5.237818603515625,-0.009926560334861279,-0.004734205547720194,-0.03237585723400116
1772572693539651800,5.25565185546875,-0.005803219974040985,-0.007635815534740686,-0.03451388701796532
1772572693557487400,5.2734873046875,0.011453723534941673,-0.03894266113638878,-0.02825251780450344
1772572693575325000,5.291324951171875,0.02275473065674305,-0.04566217586398125,0.02580905705690384
1772572693593159700,5.30915966796875,0.01542434748262167,-0.01160643994808197,0.1362229436635971
1772572693610995500,5.326995361328125,-0.0039706239476799965,-0.0633772686123848,0.21273382008075714
1772572693628832000,5.34483203125,-0.003817907767370343,-0.12950342893600464,0.20570887625217438
1772572693646668800,5.362668701171875,0.008246680721640587,-0.08216137439012527,0.1414152979850769
1772572693664501000,5.3805009765625,0.02382374368607998,0.031001411378383636,0.07238753139972687
1772572693682342100,5.398342041015625,0.021074850112199783,0.08139779418706894,0.011301007121801376
1772572693700175600,5.416175537109375,0.015118914656341076,0.050854530185461044,-0.026572637259960175
1772572693718012700,5.4340126953125,0.00366519158706069,-0.011301007121801376,-0.031154127791523933
1772572693735846700,5.4518466796875,-0.0074830991216003895,-0.04199698567390442,0.004734205547720194
1772572693753684500,5.4696845703125,-0.016798794269561768,-0.025045474991202354,0.04214970022439957
1772572693771519700,5.487519775390625,-0.01114829070866108,-0.0010690141934901476,0.034666601568460464
1772572693789357000,5.505357177734375,0.002138028386980295,0.02122756652534008,-0.01878410577774048
1772572693807191800,5.52319189453125,0.00427605677396059,0.006261368747800589,-0.04917465150356293
1772572693825027800,5.54102783203125,0.009926560334861279,-0.03344487398862839,-0.025045474991202354
1772572693842863600,5.558863525390625,0.006108652334660292,-0.06185010448098183,0.014813481830060482
1772572693860701000,5.576700927734375,-0.0074830991216003895,-0.03145955875515938,0.025961773470044136
1772572693878535400,5.594535400390625,-0.029016099870204926,0.010842857882380486,0.018936822190880775
1772572693896359000,5.61235888671875,-0.02580905705690384,-0.010231993161141872,0.001527163083665073
1772572693914208000,5.6302080078125,0.003054326167330146,-0.01710422709584236,0.002138028386980295
1772572693932042200,5.648042236328125,0.0027488935738801956,0.03481931984424591,0.013744467869400978
1772572693949880000,5.665880126953125,-0.022449297830462456,0.06505715101957321,0.003359758760780096
1772572693967701000,5.683700927734375,-0.04153883829712868,0.0656680166721344,-0.046273041516542435
1772572693985552000,5.7015517578125,-0.017409659922122955,0.07559457421302795,-0.09666942805051804
1772572694003388700,5.719388671875,0.0024434609804302454,0.10567969083786011,-0.14645494520664215
1772572694021223700,5.7372236328125,0.013286318629980087,0.12232576310634613,-0.18280142545700073
1772572694039060000,5.75506005859375,0.008246680721640587,0.08781187981367111,-0.17898350954055786
1772572694056895700,5.772895751953125,-0.01160643994808197,0.02977968007326126,-0.13271047174930573
1772572694074733000,5.790733154296875,-0.02015855349600315,0.007941247895359993,-0.06276640295982361
1772572694092564700,5.808564697265625,-0.024129176512360573,0.025045474991202354,0.00045814894838258624
1772572694110401500,5.826401611328125,-0.022602014243602753,0.015882495790719986,0.017562376335263252
1772572694128236800,5.84423681640625,-0.018478672951459885,-0.014508049935102463,0.0064140851609408855
1772572694146080500,5.86208056640625,-0.0013744467869400978,-0.02687807008624077,0.006108652334660292
1772572694163909400,5.879909423828125,0.008246680721640587,-0.009926560334861279,0.03145955875515938
1772572694181750000,5.89775,0.013744467869400978,0.003054326167330146,0.03481931984424591
1772572694199583500,5.91558349609375,0.030237829312682152,-0.009010262787342072,0.005650503560900688
1772572694217420800,5.9334208984375,0.03436116874217987,-0.04092797264456749,-0.025503624230623245
1772572694235255800,5.951255859375,0.024129176512360573,-0.03756821155548096,-0.020311269909143448
1772572694253091600,5.969091552734375,0.018325956538319588,-0.010079276748001575,0.010842857882380486
1772572694270927600,5.986927734375,0.019853120669722557,-0.012064588256180286,0.03344487398862839
1772572694288765000,6.004764892578125,0.01664607785642147,-0.02977968007326126,0.03298672288656235
1772572694306599700,6.022599609375,-0.0064140851609408855,-0.027183502912521362,0.02382374368607998
1772572694324435700,6.040435791015625,-0.035582900047302246,-0.010537425056099892,0.003054326167330146
1772572694342269400,6.05826953125,-0.046731192618608475,0.00733038317412138,-0.02733621932566166
1772572694360110600,6.076110595703125,-0.058948494493961334,0.013286318629980087,-0.0734565481543541
1772572694377944000,6.093944091796875,-0.045204028487205505,0.026419922709465027,-0.10186178237199783
1772572694395779600,6.111779541015625,-0.009162978269159794,0.06658431142568588,-0.058795779943466187
1772572694413615600,6.12961572265625,0.007635815534740686,0.04596760869026184,0.01817324012517929
1772572694431452700,6.14745263671875,-0.005650503560900688,-0.024587325751781464,0.058948494493961334
1772572694449288000,6.165287841796875,-0.025503624230623245,-0.0507018156349659,0.06368270516395569
1772572694467124000,6.1831240234375,-0.012064588256180286,-0.01710422709584236,0.048716504126787186
1772572694484959700,6.200959716796875,0.005345070734620094,0.011759156361222267,0.014966198243200779
1772572694502796800,6.218796875,0.013744467869400978,0.01542434748262167,-0.017409659922122955
1772572694520631600,6.236631591796875,0.01618792861700058,-0.022907447069883347,-0.04581489413976669
1772572694538467800,6.2544677734375,0.01878410577774048,-0.07559457421302795,-0.08429940044879913
1772572694556304000,6.272303955078125,0.02122756652534008,-0.08246681094169617,-0.11652254313230515
1772572694574141000,6.290140869140625,0.01710422709584236,-0.07528914511203766,-0.13545936346054077
1772572694591973600,6.3079736328125,0.002138028386980295,-0.09728029370307922,-0.15393804013729095
1772572694609814000,6.32581396484375,-0.02122756652534008,-0.12965615093708038,-0.15271630883216858
1772572694627647700,6.343647705078125,-0.03573561832308769,-0.13286319375038147,-0.11728613078594208
1772572694645484500,6.361484619140625,-0.02580905705690384,-0.11468994617462158,-0.049785517156124115
1772572694663316700,6.379316650390625,-0.01160643994808197,-0.09178250283002853,0.03039054572582245
1772572694681158400,6.397158447265625,-0.01878410577774048,-0.07269296050071716,0.08139779418706894
1772572694698991400,6.414991455078125,-0.022907447069883347,-0.04108068719506264,0.0835358202457428
1772572694716828400,6.432828369140625,-0.007788531947880983,-0.004886921960860491,0.04505131021142006
1772572694734663700,6.45066357421875,0.008246680721640587,0.003512475173920393,-0.006261368747800589
1772572694752499500,6.46849951171875,0.002138028386980295,-0.01038470957428217,-0.0403171069920063
1772572694770321000,6.48632080078125,-0.00855211354792118,-0.0012217304902151227,-0.056810468435287476
1772572694788175600,6.504175537109375,-0.007635815534740686,-0.015577063895761967,-0.06322455406188965
1772572694806004700,6.522004638671875,0.0010690141934901476,-0.04795292019844055,-0.05864306539297104
1772572694823846000,6.539845947265625,0.004123340360820293,-0.07681630551815033,-0.04612032696604729
1772572694841679400,6.557679443359375,-0.021838432177901268,-0.02779436856508255,-0.01863138936460018
1772572694859516400,6.575516357421875,-0.03420845419168472,0.02382374368607998,-0.012217304669320583
1772572694877351400,6.593351318359375,0.00366519158706069,0.02687807008624077,-0.006261368747800589
1772572694895187700,6.611187744140625,0.03298672288656235,0.03222314268350601,-0.00045814894838258624
1772572694913023200,6.629023193359375,0.04444044828414917,0.08689557760953903,0.021991148591041565
1772572694930860500,6.646860595703125,0.04138612002134323,0.10018189996480942,0.02886338345706463
1772572694948695600,6.664695556640625,0.029474247246980667,0.038179077208042145,0.016798794269561768
1772572694966531000,6.682531005859375,0.008704829961061478,0.024587325751781464,0.00366519158706069
1772572694984367600,6.70036767578125,-0.0009162978967651725,0.036041051149368286,0.0006108652451075613
1772572695002204200,6.7182041015625,0.002138028386980295,0.050243668258190155,-0.0025961773935705423
1772572695020039400,6.736039306640625,0.00931569468230009,0.03756821155548096,0.007635815534740686
1772572695037875000,6.753875,0.002138028386980295,0,0.02275473065674305
1772572695055711200,6.771711181640625,-0.009773843921720982,0.016340645030140877,0.02733621932566166
1772572695073548300,6.78954833984375,0.0027488935738801956,0.057879481464624405,0.031154127791523933
1772572695091381200,6.80738134765625,0.035124752670526505,0.06368270516395569,0.04505131021142006
1772572695109220600,6.825220703125,0.04260785132646561,0.023365596309304237,0.05375614017248154
1772572695127055400,6.843055419921875,0.014049900695681572,-0.006872233934700489,0.03680463135242462
1772572695144892400,6.860892333984375,-0.0027488935738801956,-0.002138028386980295,0.004886921960860491
1772572695162723300,6.878723388671875,-0.011301007121801376,-0.010079276748001575,-0.023976460099220276
1772572695180563000,6.89656298828125,0.0009162978967651725,-0.026572637259960175,-0.03039054572582245
1772572695198398700,6.914398681640625,0.006108652334660292,-0.019394971430301666,-0.008857546374201775
1772572695216235800,6.93223583984375,-0.003817907767370343,-0.01618792861700058,0.005345070734620094
1772572695234070800,6.95007080078125,-0.01038470957428217,-0.03344487398862839,0.004734205547720194
1772572695251906600,6.967906494140625,-0.01878410577774048,-0.0529925599694252,0.00045814894838258624
1772572695269724000,6.985723876953125,-0.007177666760981083,-0.03878994286060333,0.010079276748001575
1772572695287580000,7.003579833984375,0.010079276748001575,-0.011759156361222267,0.02076941914856434
1772572695305415000,7.021414794921875,0.025961773470044136,-0.009773843921720982,0.027641652151942253
1772572695323250700,7.039250732421875,0.02382374368607998,-0.016493361443281174,0.01618792861700058
1772572695341086500,7.05708642578125,0.01466076634824276,0.0027488935738801956,0.00931569468230009
1772572695358923500,7.074923583984375,0.022602014243602753,0.02229658141732216,0.02015855349600315
1772572695376758500,7.092758544921875,0.009926560334861279,0.00015271631127689034,0.026114489883184433
1772572695394594800,7.1105947265625,-0.024434609338641167,-0.0354301854968071,0.01863138936460018
1772572695412430300,7.128430419921875,-0.039248090237379074,-0.03833179548382759,0.0064140851609408855
1772572695430267600,7.146267578125,-0.02672535367310047,-0.02367102913558483,0
1772572695448102400,7.164102294921875,-0.01038470957428217,0.01160643994808197,0.005192354787141085
1772572695465937200,7.181937255859375,-0.010842857882380486,0.038026362657547,0.013744467869400978
1772572695483762000,7.199761962890625,-0.01817324012517929,0.020922135561704636,0.02687807008624077
1772572695501600500,7.2176005859375,-0.025961773470044136,-0.015577063895761967,0.032681290060281754
1772572695519448800,7.23544873046875,-0.03436116874217987,-0.013591751456260681,0.023365596309304237
1772572695537282000,7.253281982421875,-0.026572637259960175,0.018020525574684143,0.0007635815418325365
1772572695555118000,7.2711181640625,-0.004734205547720194,0.04108068719506264,-0.020311269909143448
1772572695572955000,7.288954833984375,0.010842857882380486,0.03588833287358284,-0.027030786499381065
1772572695590790000,7.306789794921875,0.0039706239476799965,0.009926560334861279,-0.0328340083360672
1772572695608626000,7.3246259765625,-0.004886921960860491,-0.021074850112199783,-0.027641652151942253
1772572695626462000,7.3424619140625,0.003359758760780096,-0.004123340360820293,-0.014508049935102463
1772572695644299000,7.360299072265625,0.021991148591041565,0.013591751456260681,-0.020311269909143448
1772572695662133500,7.378133544921875,0.014049900695681572,0.00427605677396059,-0.02672535367310047
1772572695679969500,7.395969482421875,-0.010842857882380486,0.013133603148162365,-0.023976460099220276
1772572695697801000,7.413801025390625,-0.0003054326225537807,0.011301007121801376,-0.01924225501716137
1772572695715639000,7.43163916015625,0.019547687843441963,0.006719517521560192,-0.02474004216492176
1772572695733479700,7.449479736328125,0.016951510682702065,0.02275473065674305,-0.017562376335263252
1772572695751313700,7.467313720703125,0.008857546374201775,0.030237829312682152,-0.004886921960860491
1772572695769149700,7.485149658203125,0.010079276748001575,0.01191187184303999,0.021074850112199783
1772572695786986500,7.502986572265625,0.005039638374000788,-0.009162978269159794,0.045204028487205505
1772572695804821200,7.5208212890625,0.0012217304902151227,0.006261368747800589,0.05711590126156807
1772572695822657000,7.538656982421875,0.010690141469240189,0.03695734590291977,0.05910121276974678
1772572695840493000,7.5564931640625,0.018936822190880775,0.03390302136540413,0.04077525436878204
1772572695858330400,7.574330322265625,0.015271631069481373,-0.001527163083665073,0.013897184282541275
1772572695876165400,7.592165283203125,0.0032070425804704428,-0.021838432177901268,-0.0065668015740811825
1772572695894001200,7.610001220703125,0.012675453908741474,-0.001527163083665073,-0.012064588256180286
1772572695911836700,7.627836669921875,0.02382374368607998,0.03222314268350601,-0.01114829070866108
1772572695929671400,7.64567138671875,0.028099801391363144,0.04077525436878204,-0.009621127508580685
1772572695947511800,7.66351171875,0.014966198243200779,0.0354301854968071,0.0029016099870204926
1772572695965341700,7.681341796875,0.019853120669722557,0.00931569468230009,0.004734205547720194
1772572695983183600,7.69918359375,0.03329215571284294,0.007177666760981083,-0.012217304669320583
1772572696001017600,7.717017578125,0.022602014243602753,0.056352317333221436,-0.036193765699863434
1772572696018852600,7.7348525390625,-0.018325956538319588,0.14446963369846344,0.05696318298578262
1772572696036688600,7.752688720703125,-0.08246681094169617,0.032528575509786606,0.23121249675750732
1772572696054524400,7.7705244140625,-0.06811147183179855,-0.07590000331401825,0.2718350291252136
1772572696072361500,7.788361572265625,-0.050243668258190155,-0.031001411378383636,0.22449298202991486
1772572696090196700,7.80619677734375,-0.0032070425804704428,0.052839845418930054,0.12140946835279465
1772572696108028000,7.82402783203125,0.031001411378383636,0.08277224004268646,-0.040622539818286896
1772572696125871900,7.841871826171875,0.03634648025035858,0.16691893339157104,-0.20357084274291992
1772572696143706000,7.8597060546875,0.026419922709465027,0.18646661937236786,-0.24908030033111572
