time,seconds_elapsed,z,y,x
1772462246237302500,0.074302490234375,-0.007798534352332354,0.005074919667094946,-0.0019462381023913622
1772462246247350500,0.0843505859375,-0.008142082020640373,0.006048571318387985,-0.0013222594279795885
1772462246257398500,0.0943984375,-0.00851599033921957,0.006508233025670052,0.002686863299459219
1772462246267447600,0.104447509765625,-0.009155414998531342,0.008507201448082924,-0.0002713761059567332
1772462246277495600,0.11449560546875,-0.007303719408810139,0.0048826392740011215,0.0028812738601118326
1772462246287543600,0.12454345703125,-0.0073745595291256905,0.008704542182385921,0.0020160130225121975
1772462246297591600,0.134591552734375,-0.009495234116911888,0.00646615494042635,0.0009952232940122485
1772462246307639600,0.1446396484375,-0.007786284200847149,0.004989432170987129,0.0023459785152226686
1772462246317687600,0.1546875,-0.009095493704080582,0.006923419889062643,-0.0004599279200192541
1772462246327735600,0.164735595703125,-0.006685333326458931,0.0027830032631754875,-0.001478587044402957
1772462246337783600,0.174783447265625,-0.00606268597766757,0.005705822724848986,0.0008194546680897474
1772462246347832300,0.184832275390625,-0.006478938274085522,0.008352206088602543,0.0010223875287920237
1772462246357880600,0.194880615234375,-0.006342317909002304,0.009035306982696056,0.0013161342358216643
1772462246367928600,0.204928466796875,-0.0070307450369000435,0.0049196574836969376,0.0022684806026518345
1772462246377976600,0.2149765625,-0.009343167766928673,0.00817856751382351,0.00185089698061347
1772462246388024600,0.225024658203125,-0.011145329102873802,0.007348194252699614,0.0031731564085930586
1772462246398072600,0.235072509765625,-0.0073231603018939495,0.006482400465756655,0.0013901700731366873
1772462246408120600,0.24512060546875,-0.006995059084147215,0.007190002128481865,0.0032735576387494802
1772462246418168600,0.25516845703125,-0.008679241873323917,0.007405984681099653,0.004434429574757814
1772462246428217600,0.265217529296875,-0.007296528667211533,0.0073410035111010075,0.005411010701209307
1772462246438265600,0.275265625,-0.009955162182450294,0.007967378944158554,0.0006149238906800747
1772462246448313600,0.285313720703125,-0.006435795221477747,0.008281099610030651,0.0020208065398037434
1772462246458361600,0.295361572265625,-0.008816927671432495,0.008143147453665733,0.0019646140281111
1772462246468409600,0.30540966796875,-0.009112006053328514,0.008768990635871887,0.002168079372495413
1772462246478457300,0.315457275390625,-0.007416637148708105,0.007434480357915163,0.0008804410463199019
1772462246488505600,0.325505615234375,-0.0062126219272613525,0.00606508320197463,0.002460494404658675
1772462246498553600,0.3355537109375,-0.008919192478060722,0.008742624893784523,0.0036631780676543713
1772462246508602600,0.3456025390625,-0.007681355345994234,0.006493585649877787,0.0008551410282962024
1772462246518650600,0.355650634765625,-0.0062821307219564915,0.006966829299926758,0.0016088156262412667
1772462246528698400,0.365698486328125,-0.008135423995554447,0.008866994641721249,0.0021145499777048826
1772462246538746600,0.37574658203125,-0.00808828603476286,0.009669938124716282,0.002004827605560422
1772462246548794600,0.385794677734375,-0.006637129932641983,0.006892793346196413,0.0016029566759243608
1772462246558842600,0.395842529296875,-0.011150921694934368,0.006594253238290548,0.0006519418093375862
1772462246568890600,0.405890625,-0.008140218444168568,0.00606401776894927,0.001672198879532516
1772462246578938400,0.4159384765625,-0.009541839361190796,0.006518885493278503,0.0031135017052292824
1772462246588986600,0.425986572265625,-0.0041468082927167416,0.008236357942223549,0.0016391756944358349
1772462246599035400,0.436035400390625,-0.006443784572184086,0.005901298485696316,0.0014306501252576709
1772462246609082600,0.44608251953125,-0.006183859892189503,0.007686415687203407,0.001442900625988841
1772462246619130600,0.456130615234375,-0.008508000522851944,0.006117281038314104,-0.0002822950773406774
1772462246629179000,0.466178955078125,-0.00788668543100357,0.006611031014472246,0.0031353395897895098
1772462246639226600,0.4762265625,-0.00726510351523757,0.00872025452554226,0.00096086849225685
1772462246649275000,0.48627490234375,-0.008540757931768894,0.006842193193733692,0.0007456850726157427
1772462246659322600,0.496322509765625,-0.007231281138956547,0.00487305223941803,0.002758768619969487
1772462246669371600,0.50637158203125,-0.009445167146623135,0.008081362582743168,0.002243713242933154
1772462246679419600,0.516419677734375,-0.006334328558295965,0.008607602678239346,0.002255697501823306
1772462246689467600,0.526467529296875,-0.006836866959929466,0.007648598402738571,0.002153698354959488
1772462246699516000,0.536515869140625,-0.009356750175356865,0.007422762457281351,0.0006588660762645304
1772462246709563600,0.546563720703125,-0.007765245158225298,0.005869873333722353,0.0013739247806370258
1772462246719611600,0.556611572265625,-0.007879494689404964,0.0070491209626197815,0.003352387109771371
1772462246729660000,0.566659912109375,-0.006138053722679615,0.006509298458695412,0.0003281014505773783
1772462246739707600,0.576707763671875,-0.0064373929053545,0.008563394658267498,0.0013920343481004238
1772462246749755600,0.586755615234375,-0.008812932297587395,0.004698348697274923,0.0016527577536180615
1772462246759804700,0.5968046875,-0.00774766830727458,0.00646748673170805,0.0016737966798245907
1772462246769852700,0.606852783203125,-0.0088187912479043,0.004578506574034691,-0.0012687299167737365
1772462246779900700,0.616900634765625,-0.006114085204899311,0.006916229147464037,0.0015736619243398309
1772462246789948700,0.62694873046875,-0.008803877979516983,0.0073476615361869335,0.004108725115656853
1772462246799996700,0.63699658203125,-0.007228085305541754,0.004811533261090517,0.0015419702976942062
1772462246810044700,0.647044677734375,-0.009159409441053867,0.008107194676995277,0.0025561018846929073
1772462246820092700,0.6570927734375,-0.008951417170464993,0.005939381662756205,0.0017438378417864442
1772462246830141700,0.6671416015625,-0.008346080780029297,0.010402306914329529,0.002953978255391121
1772462246840189700,0.677189697265625,-0.009958624839782715,0.007243265397846699,0.00012623383372556418
1772462246850237700,0.68723779296875,-0.007992412894964218,0.008558068424463272,0.0012543488992378116
1772462246860285700,0.69728564453125,-0.00782623142004013,0.0062823970802128315,0.0035803536884486675
1772462246870333700,0.707333740234375,-0.007411044556647539,0.007018228527158499,0.0021635519806295633
1772462246880381700,0.717381591796875,-0.007967112585902214,0.007404652889817953,0.003022421384230256
1772462246890429700,0.7274296875,-0.008321579545736313,0.005949501879513264,0.00026365293888375163
1772462246900477700,0.737477783203125,-0.008745288476347923,0.007250722497701645,0.0031316110398620367
1772462246910526700,0.747526611328125,-0.00866006687283516,0.005726861767470837,0.002126800362020731
1772462246920574700,0.75757470703125,-0.007330084685236216,0.007710650097578764,0.005484247580170631
1772462246930622700,0.767622802734375,-0.00720678037032485,0.008813198655843735,0.0027973842807114124
1772462246940670700,0.777670654296875,-0.00806378573179245,0.009088569320738316,0.00304638990201056
1772462246950718700,0.78771875,-0.00869202520698309,0.007020625285804272,0.0010586065473034978
1772462246960766700,0.7977666015625,-0.0059654805809259415,0.005751096177846193,0.0011643340112641454
1772462246970814700,0.807814697265625,-0.008922122418880463,0.007053382229059935,0.000660463934764266
1772462246980862700,0.81786279296875,-0.007874434813857079,0.007765245158225298,0.0038663772866129875
1772462246990911700,0.827911865234375,-0.008779110386967659,0.008755141869187355,0.001755289500579238
1772462247000959700,0.837959716796875,-0.008988435380160809,0.004070109222084284,0.001919340225867927
1772462247011007700,0.8480078125,-0.00957086868584156,0.009149289689958096,0.001306280493736267
1772462247021055700,0.8580556640625,-0.007022489327937365,0.007682687137275934,0.004101800732314587
1772462247031103500,0.868103515625,-0.009749566204845905,0.00957060232758522,0.002788329729810357
1772462247041151700,0.87815185546875,-0.008145544677972794,0.008489091880619526,0.00418435875326395
1772462247051199700,0.88819970703125,-0.00618066405877471,0.008176969364285469,0.000761664065066725
1772462247061247700,0.898247802734375,-0.00621129060164094,0.007934622466564178,0.0023289343807846308
1772462247071296800,0.908296875,-0.010074205696582794,0.008439291268587112,0.0009725864510983229
1772462247081344500,0.918344482421875,-0.008933573961257935,0.00962892547249794,0.0030770162120461464
1772462247091392800,0.928392822265625,-0.008014250546693802,0.007861385121941566,0.002284992253407836
1772462247101440800,0.938440673828125,-0.008109059184789658,0.007895473390817642,0.0036645096261054277
1772462247111488800,0.94848876953125,-0.007772435434162617,0.0060445768758654594,0.002366218715906143
1772462247121536800,0.958536865234375,-0.007420632056891918,0.007463508751243353,0.001677525113336742
1772462247131584800,0.968584716796875,-0.007092264015227556,0.009042230434715748,0.003917776048183441
1772462247141632800,0.9786328125,-0.0090568782761693,0.008294947445392609,0.003194727934896946
1772462247151681500,0.988681640625,-0.007901065982878208,0.006461894139647484,0.0034679684322327375
1772462247161729800,0.998729736328125,-0.00971654336899519,0.006981743033975363,0.0019896477460861206
1772462247171777800,1.00877783203125,-0.008028099313378334,0.008657670579850674,0.0020897823851555586
1772462247181825500,1.018825439453125,-0.009297894313931465,0.005648830905556679,0.003183809109032154
1772462247191873800,1.028873779296875,-0.006054962985217571,0.008132228627800941,0.00035499935620464385
1772462247201921800,1.038921875,-0.008932774886488914,0.007695204112678766,0.0023411849979311228
1772462247211969500,1.048969482421875,-0.009679525159299374,0.0073540532030165195,0.004650411661714315
1772462247222017800,1.059017822265625,-0.007254983298480511,0.0059742690064013,0.003040264593437314
1772462247232066600,1.069066650390625,-0.008555138483643532,0.005834186915308237,0.0030035129748284817
1772462247242114800,1.07911474609375,-0.009682721458375454,0.009062204509973526,0.0034405377227813005
1772462247252162800,1.089162841796875,-0.006524744443595409,0.008248874917626381,0.0033007217571139336
1772462247262210600,1.09921044921875,-0.008351939730346203,0.00817936658859253,0.0029590383637696505
1772462247272258800,1.1092587890625,-0.008297611027956009,0.007888815365731716,0.0017800568602979183
1772462247282306600,1.119306640625,-0.007248059380799532,0.01050590444356203,0.00424161646515131
1772462247292354800,1.129354736328125,-0.008492021821439266,0.00827763695269823,0.003967044875025749
1772462247302403600,1.139403564453125,-0.006810235325247049,0.007179083302617073,0.0030341395176947117
1772462247312451600,1.14945166015625,-0.008231298066675663,0.008894159458577633,0.003841609926894307
1772462247322499800,1.159499755859375,-0.008615858852863312,0.006927148438990116,0.004179564770311117
1772462247332547600,1.169547607421875,-0.008549013175070286,0.007020891644060612,0.002651443239301443
1772462247342595800,1.179595947265625,-0.009139169938862324,0.006044842768460512,0.0026698189321905375
1772462247352643800,1.189643798828125,-0.008349808864295483,0.006594785954803228,0.0035212314687669277
1772462247362691600,1.199691650390625,-0.008703476749360561,0.008508266881108284,0.0010969560826197267
1772462247372739800,1.20973974609375,-0.00805925764143467,0.005097024142742157,0.002007757080718875
1772462247382788600,1.21978857421875,-0.00893570389598608,0.008363657630980015,0.004129497334361076
1772462247392836900,1.2298369140625,-0.009118396788835526,0.006025934591889381,0.004845088813453913
1772462247402884600,1.239884521484375,-0.009591640904545784,0.008279235102236271,0.004852545913308859
1772462247412932600,1.2499326171875,-0.009315737523138523,0.005277319811284542,0.00290417717769742
1772462247422980900,1.25998095703125,-0.007091199047863483,0.007437676191329956,0.002481533447280526
1772462247433028600,1.270028564453125,-0.008184692822396755,0.007980162277817726,0.0018748653819784522
1772462247443076600,1.28007666015625,-0.007348460145294666,0.009660882875323296,0.002797118155285716
1772462247453125600,1.290125732421875,-0.008734636008739471,0.008479238487780094,0.001178448786959052
1772462247463173600,1.300173583984375,-0.006524212192744017,0.010066482238471508,0.0019060244085267186
1772462247473222000,1.310221923828125,-0.008839031681418419,0.0068238177336752415,0.003229881636798382
1772462247483269600,1.32026953125,-0.007839014753699303,0.004998753312975168,0.0023398532066494226
1772462247493317600,1.330317626953125,-0.008326639421284199,0.009040100499987602,0.0024106933269649744
1772462247503365600,1.34036572265625,-0.009300025179982185,0.007366303354501724,0.0029739518649876118
1772462247513413600,1.35041357421875,-0.008261924609541893,0.007092796731740236,0.004595284350216389
1772462247523462000,1.3604619140625,-0.007277354132384062,0.00580782163888216,0.0028099012561142445
1772462247533510700,1.3705107421875,-0.008828645572066307,0.008235027082264423,0.001711081014946103
1772462247543558700,1.38055859375,-0.00926114246249199,0.007213437929749489,0.001990446588024497
1772462247553606700,1.390606689453125,-0.009981794282793999,0.003996073268353939,0.0032836776226758957
1772462247563654700,1.400654541015625,-0.007276288699358702,0.007279484532773495,0.002926813904196024
1772462247573703000,1.410702880859375,-0.009832390584051609,0.007311708759516478,0.0032591766212135553
1772462247583750700,1.420750732421875,-0.007162305526435375,0.008616391569375992,0.0035033884923905134
1772462247593798700,1.430798583984375,-0.0064954496920108795,0.008964733220636845,0.0006085322820581496
1772462247603847700,1.44084765625,-0.006457899231463671,0.0075700352899730206,0.002529204124584794
1772462247613896200,1.450896240234375,-0.009664878249168396,0.008076302707195282,0.001874066423624754
1772462247623944000,1.46094384765625,-0.008023571223020554,0.008195078931748867,0.00039707732503302395
1772462247633992000,1.470991943359375,-0.010158894583582878,0.007849400863051414,0.0044022053480148315
1772462247644040200,1.481040283203125,-0.007121559232473373,0.007013700902462006,0.0015776565996930003
1772462247654088000,1.491087890625,-0.0070552462711930275,0.007492537144571543,0.0010809770319610834
1772462247664136000,1.501135986328125,-0.007753527257591486,0.006927947048097849,0.0019116170005872846
1772462247674184200,1.51118408203125,-0.010031594894826412,0.009733321145176888,0.0031353395897895098
1772462247684233000,1.52123291015625,-0.008870989084243774,0.006047239992767572,0.005270662251859903
1772462247694281200,1.53128125,-0.008418251760303974,0.010455570183694363,0.004041080828756094
1772462247704329000,1.541328857421875,-0.007990282028913498,0.006851247977465391,0.002481267089024186
1772462247714377200,1.551377197265625,-0.008345281705260277,0.007661648094654083,0.001829591696150601
1772462247724425000,1.561425048828125,-0.00723527604714036,0.007032076828181744,0.003212304785847664
1772462247734473000,1.571472900390625,-0.008257397450506687,0.006750847212970257,0.0020184097811579704
1772462247744521200,1.581521240234375,-0.010072607547044754,0.005674663465470076,0.001119060325436294
1772462247754570000,1.591570068359375,-0.006006759591400623,0.009376457892358303,0.00006391586794052273
1772462247764618200,1.6016181640625,-0.009066465310752392,0.008988169021904469,0.00532472413033247
1772462247774666000,1.611666015625,-0.007554056588560343,0.008798019029200077,0.00043063313933089375
1772462247784714000,1.6217138671875,-0.008821987546980381,0.010006827302277088,0.001996838254854083
1772462247794762200,1.63176220703125,-0.007477623876184225,0.00866326317191124,0.0043779704719781876
1772462247804810000,1.64181005859375,-0.009763414971530437,0.00595482811331749,0.002886067610234022
1772462247814858000,1.65185791015625,-0.006171342916786671,0.005983323790132999,0.0029467877466231585
1772462247824907000,1.661906982421875,-0.00506799528375268,0.007029680069535971,0.0025246767327189445
1772462247834955000,1.671955078125,-0.008528507314622402,0.008804410696029663,0.0018298579379916191
1772462247845003000,1.6820029296875,-0.008475510403513908,0.005369465332478285,0.002624012529850006
1772462247855051000,1.692051025390625,-0.006259493995457888,0.00637800432741642,0.00044528054422698915
1772462247865099000,1.70209912109375,-0.0070219566114246845,0.00600383011624217,0.0029824741650372744
1772462247875147000,1.71214697265625,-0.009819340892136097,0.007703193463385105,0.0021228056866675615
1772462247885195000,1.722195068359375,-0.009973005391657352,0.006110090296715498,0.0016551546286791563
1772462247895243000,1.732242919921875,-0.009877664037048817,0.011036671698093414,0.001680720946751535
1772462247905292000,1.7422919921875,-0.008350341580808163,0.008470982313156128,0.003641340183094144
1772462247915340000,1.752340087890625,-0.006043245084583759,0.009212139993906021,0.0006964165950194001
1772462247925388000,1.762387939453125,-0.008301871828734875,0.007186274044215679,0.0021057615522295237
1772462247935436000,1.77243603515625,-0.006716225761920214,0.008905611000955105,0.0018500980222597718
1772462247945484300,1.782484375,-0.008087754249572754,0.009139169938862324,0.003103115363046527
1772462247955532000,1.792531982421875,-0.005366535857319832,0.00703900121152401,0.0016825852217152715
1772462247965580000,1.802580078125,-0.010977549478411674,0.007647267077118158,0.0034519892651587725
1772462247975629000,1.812629150390625,-0.007625961676239967,0.007306915242224932,0.0007009439868852496
1772462247985677000,1.822677001953125,-0.007691209204494953,0.008977781981229782,0.002837864449247718
1772462247995725000,1.83272509765625,-0.006021673325449228,0.008708270266652107,0.0022266688756644726
1772462248005773000,1.84277294921875,-0.010612164624035358,0.007920773699879646,0.0046331011690199375
1772462248015821000,1.852821044921875,-0.007245129905641079,0.007961786352097988,0.003468500915914774
1772462248025869000,1.862869140625,-0.007897337898612022,0.008904279209673405,0.0025041704066097736
1772462248035917000,1.8729169921875,-0.010212955996394157,0.009496033191680908,0.00035473305615596473
1772462248045966000,1.882966064453125,-0.008983374573290348,0.006177734583616257,0.00407596817240119
1772462248056014000,1.89301416015625,-0.009798568673431873,0.008732505142688751,0.0023039006628096104
1772462248066062000,1.90306201171875,-0.009100288152694702,0.006599579472094774,0.0014183996245265007
1772462248076110000,1.913110107421875,-0.007650729268789291,0.006951382849365473,0.002529204124584794
1772462248086158000,1.923157958984375,-0.008332498371601105,0.008827313780784607,0.0025009745731949806
1772462248096205800,1.933205810546875,-0.00900015328079462,0.007881359197199345,0.0025688852183520794
1772462248106254000,1.943254150390625,-0.009788980707526207,0.009986055083572865,0.0010964233661070466
1772462248116302800,1.953302734375,-0.007143130525946617,0.004801679402589798,0.0014234596164897084
1772462248126351000,1.96335107421875,-0.005948170088231564,0.009946374222636223,0.0005550027708522975
1772462248136399000,1.973399169921875,-0.008732238784432411,0.006488525774329901,0.0012154667638242245
1772462248146446800,1.98344677734375,-0.007419566623866558,0.010098973289132118,0.0022367890924215317
1772462248156495000,1.9934951171875,-0.006689860485494137,0.006456301547586918,0.0022655511274933815
1772462248166543000,2.003543212890625,-0.00589757040143013,0.008443552069365978,0.003168895374983549
1772462248176591000,2.013591064453125,-0.01278983149677515,0.008303203620016575,0.0035356127191334963
1772462248186640100,2.02364013671875,-0.00814980547875166,0.006673615425825119,0.001047687605023384
1772462248196688000,2.03368798828125,-0.008301871828734875,0.009971141815185547,0.0011731224367395043
1772462248206736100,2.043736083984375,-0.008186024613678455,0.008949286304414272,0.0016508935950696468
1772462248216784100,2.0537841796875,-0.007756989449262619,0.008839298039674759,0.005218996666371822
1772462248226832100,2.06383203125,-0.008017180487513542,0.006397712044417858,0.003008040366694331
1772462248236880100,2.073880126953125,-0.009783388115465641,0.008260592818260193,0.005392102058976889
1772462248246928000,2.083927978515625,-0.007812649011611938,0.011426026001572609,0.004621915984898806
1772462248256976100,2.09397607421875,-0.01002360600978136,0.010030529461801052,0.0035167040769010782
1772462248267025000,2.10402490234375,-0.008322644978761673,0.00675377668812871,0.0036429380998015404
1772462248277073200,2.1140732421875,-0.006564425770193338,0.008763930760324001,0.0011118697002530098
1772462248287121200,2.12412109375,-0.008812665939331055,0.006696784868836403,0.003941478207707405
1772462248297169000,2.1341689453125,-0.009118396788835526,0.005942843854427338,0.0003632551815826446
1772462248307217200,2.144217041015625,-0.004866394214332104,0.007901065982878208,0.0016772588714957237
1772462248317265200,2.15426513671875,-0.008641957305371761,0.006365487817674875,0.0016050871927291155
1772462248327314200,2.164314208984375,-0.007270696107298136,0.006971889175474644,0.0006103964988142252
1772462248337362200,2.174362060546875,-0.007763647008687258,0.006952980998903513,0.0011856392957270145
1772462248347410000,2.184409912109375,-0.007527690846472979,0.006534065585583448,0.0015715312911197543
1772462248357458200,2.194458251953125,-0.0075543224811553955,0.006857106927782297,0.006038983818143606
1772462248367506000,2.204505859375,-0.007744738832116127,0.007502923719584942,0.003442934714257717
1772462248377554000,2.214553955078125,-0.009284578263759613,0.0067545752972364426,0.005020058713853359
1772462248387602200,2.224602294921875,-0.010104033164680004,0.005658418405801058,0.0031345405150204897
1772462248397651000,2.23465087890625,-0.006048038601875305,0.008820123039186,0.003346528159454465
1772462248407699200,2.24469921875,-0.009131979197263718,0.006327670533210039,0.002040780382230878
1772462248417747000,2.254746826171875,-0.00586774293333292,0.00851199496537447,0.002089516259729862
1772462248427795000,2.264794921875,-0.004898618441075087,0.007505586836487055,0.0035172367934137583
1772462248437843200,2.27484326171875,-0.008644088171422482,0.008182561956346035,0.0024740765802562237
1772462248447891000,2.284890869140625,-0.008523712866008282,0.0075796227902174,0.00018961707246489823
1772462248457939200,2.294939208984375,-0.008757805451750755,0.003946272190660238,0.0006809702608734369
1772462248467988000,2.304988037109375,-0.00891200266778469,0.010344250127673149,0.002192580606788397
1772462248478036200,2.3150361328125,-0.008169513195753098,0.006580937188118696,0.004767591133713722
1772462248488084000,2.325083984375,-0.008072307333350182,0.010032393969595432,0.0018098842119798064
1772462248498132000,2.335132080078125,-0.007829959504306316,0.00762889115139842,0.0016551546286791563
1772462248508180200,2.34518017578125,-0.008435828611254692,0.009495500475168228,0.0014061490073800087
1772462248518228000,2.35522802734375,-0.009366603568196297,0.00794127956032753,0.0007089334540069103
1772462248528276000,2.36527587890625,-0.008106661960482597,0.007801463827490807,0.004567587748169899
1772462248538325000,2.375324951171875,-0.010191917419433594,0.007881891913712025,0.0015374429058283567
1772462248548373000,2.385373046875,-0.007466704584658146,0.006586796138435602,0.0011475561186671257
1772462248558421200,2.395421142578125,-0.00865926779806614,0.00669305631890893,0.0020903151016682386
1772462248568469000,2.405468994140625,-0.007504521403461695,0.00802943017333746,0.0035582494456321
1772462248578517000,2.41551708984375,-0.010076336562633514,0.008923187851905823,0.0033726270776242018
1772462248588565000,2.42556494140625,-0.0073412698693573475,0.006859504152089357,0.000841825210954994
1772462248598613000,2.435613037109375,-0.00914529524743557,0.007597732357680798,0.0006157228490337729
1772462248608661800,2.445661865234375,-0.009339972399175167,0.008666192181408405,0.0009398295660503209
1772462248618709500,2.45570947265625,-0.008131962269544601,0.006077333353459835,0.003506850451231003
1772462248628757800,2.4657578125,-0.009614277631044388,0.006939398590475321,0.0010942928493022919
1772462248638805500,2.475805419921875,-0.007753260899335146,0.008173773996531963,0.003192597534507513
1772462248648853800,2.485853759765625,-0.007528756279498339,0.009012935683131218,0.0022053637076169252
1772462248658901800,2.49590185546875,-0.006964166183024645,0.005494900047779083,0.0021696772892028093
1772462248668949500,2.505949462890625,-0.007399593014270067,0.008343417197465897,0.0036767602432519197
1772462248678998800,2.515998779296875,-0.009559948928654194,0.007246727589517832,0.004215517546981573
1772462248689046500,2.526046630859375,-0.008791094645857811,0.008067247457802296,0.0036575854755938053
1772462248699094800,2.5360947265625,-0.008954878896474838,0.005714078433811665,0.0014948323369026184
1772462248709142800,2.546142822265625,-0.008599081076681614,0.0076512619853019714,0.0010207896120846272
1772462248719190500,2.5561904296875,-0.0073351445607841015,0.008300273679196835,-0.00023382554354611784
1772462248729238800,2.56623876953125,-0.009182845242321491,0.008279235102236271,0.0009179916232824326
1772462248739287600,2.57628759765625,-0.005739378277212381,0.009588711895048618,0.0023395870812237263
1772462248749335800,2.586335693359375,-0.009472331032156944,0.0070736221969127655,0.0014210627414286137
1772462248759383600,2.596383544921875,-0.008165251463651657,0.005339371506124735,0.0020455741323530674
1772462248769431600,2.606431640625,-0.006338856182992458,0.007221427746117115,0.004415254574269056
1772462248779479800,2.616479736328125,-0.008577775210142136,0.006878412328660488,0.002360359765589237
1772462248789527600,2.626527587890625,-0.007000651676207781,0.0064863949082791805,0.001253017340786755
1772462248799575600,2.636575439453125,-0.007802529260516167,0.008718922734260559,0.002555835759267211
1772462248809624600,2.64662451171875,-0.0084249097853899,0.0062858592718839645,0.0037579864729195833
1772462248819672600,2.656672607421875,-0.006591590121388435,0.008167648687958717,0.002650910522788763
1772462248829720800,2.666720947265625,-0.008800681680440903,0.007933024317026138,0.003852528752759099
1772462248839768600,2.6767685546875,-0.0073322150856256485,0.008357265964150429,0.003489806316792965
1772462248849816600,2.686816650390625,-0.009267534129321575,0.008715993724763393,0.0021579593885689974
1772462248859864800,2.69686474609375,-0.007996407337486744,0.008470184169709682,0.000699079770129174
1772462248869913600,2.70691357421875,-0.008711732923984528,0.0063063655979931355,0.00043995422311127186
1772462248879961900,2.7169619140625,-0.00866406224668026,0.005857622716575861,0.0006996124284341931
1772462248890009600,2.727009521484375,-0.009019060991704464,0.0060323262587189674,0.0018101505702361465
1772462248900057900,2.737057861328125,-0.007924768142402172,0.00694818701595068,0.0030714236199855804
1772462248910105600,2.747105712890625,-0.008046741597354412,0.00497984467074275,0.0045585329644382
1772462248920153600,2.757153564453125,-0.0073298183269798756,0.008883239701390266,0.005160140804946423
1772462248930201900,2.767201904296875,-0.008654207922518253,0.00600409647449851,0.0031396006233990192
1772462248940250600,2.777250732421875,-0.007110107224434614,0.008839564397931099,0.0041308291256427765
1772462248950299000,2.787298828125,-0.007488276343792677,0.007187871728092432,0.0038874163292348385
1772462248960346600,2.7973466796875,-0.009298693388700485,0.008731173351407051,-0.00018429075134918094
1772462248970394600,2.80739453125,-0.007753527257591486,0.006324474699795246,0.004067711997777224
1772462248980443000,2.81744287109375,-0.007466171868145466,0.008198541589081287,0.00006178533658385277
1772462248990490600,2.82749072265625,-0.009368201717734337,0.010040916502475739,0.0006170544074848294
1772462249000538600,2.83753857421875,-0.008607069961726665,0.007846738211810589,0.00015446334145963192
1772462249010587600,2.847587646484375,-0.007873635739088058,0.009276056662201881,-0.0005022721597924829
1772462249020635600,2.8576357421875,-0.0067599015310406685,0.00509915454313159,0.0014199974248185754
1772462249030683600,2.86768359375,-0.009186840616166592,0.007837682962417603,0.0018040252616629004
1772462249040731600,2.877731689453125,-0.007390538230538368,0.006646983791142702,0.0005941512063145638
1772462249050779600,2.887779541015625,-0.008333031088113785,0.008535430766642094,0.0021057615522295237
1772462249060827600,2.89782763671875,-0.009063802659511566,0.007613178342580795,0.0032826124224811792
1772462249070876700,2.907876708984375,-0.00734366662800312,0.00820946041494608,0.00221974472515285
1772462249080924700,2.917924560546875,-0.00908404216170311,0.008548746816813946,0.002560629276558757
1772462249090972700,2.92797265625,-0.007808920927345753,0.005717806983739138,0.0020639498252421618
1772462249101020700,2.938020751953125,-0.008434497751295567,0.00777536490932107,0.0007302387384697795
1772462249111068700,2.948068603515625,-0.006695719435811043,0.007251521106809378,0.0014956312952563167
1772462249121116700,2.95811669921875,-0.008499212563037872,0.008169513195753098,0.002240517409518361
1772462249131164700,2.96816455078125,-0.008616391569375992,0.007427822332829237,0.0028447885997593403
1772462249141213700,2.978213623046875,-0.007686149328947067,0.008842227049171925,0.0013430321123450994
1772462249151261700,2.98826171875,-0.008961803279817104,0.00606321869418025,0.0019361181184649467
1772462249161309700,2.998309814453125,-0.007762848399579525,0.0073657711036503315,0.0014415690675377846
1772462249171357700,3.008357666015625,-0.009198025800287724,0.007156712934374809,0.003477555699646473
1772462249181405700,3.01840576171875,-0.007741276640444994,0.003911118488758802,-0.0003664509567897767
1772462249191453700,3.02845361328125,-0.007707986980676651,0.008591890335083008,0.004225904121994972
1772462249201502500,3.03850244140625,-0.009090433828532696,0.008507734164595604,0.0018644790397956967
1772462249211550700,3.04855078125,-0.00698041170835495,0.007278951816260815,0.003421629313379526
1772462249221598700,3.0585986328125,-0.008080297149717808,0.006630738265812397,0.0035582494456321
1772462249231646700,3.068646728515625,-0.009645436890423298,0.008658203296363354,0.003978496417403221
1772462249241694700,3.07869482421875,-0.008625445887446404,0.0059867859818041325,0.0025033713318407536
1772462249251742700,3.08874267578125,-0.007226221263408661,0.004840028937906027,0.0010050770360976458
1772462249261791700,3.098791748046875,-0.00806005671620369,0.006989998742938042,0.0013632721966132522
1772462249271839700,3.10883984375,-0.008377771824598312,0.00678253872320056,0.002623746171593666
1772462249281887700,3.1188876953125,-0.0062943813391029835,0.008305334486067295,0.002522546099498868
1772462249291935700,3.128935791015625,-0.007938350550830364,0.006322344299405813,0.00199284334667027
1772462249301983500,3.1389833984375,-0.008924252353608608,0.008586564101278782,0.0021028320770710707
1772462249312031700,3.14903173828125,-0.006179066374897957,0.008342618122696877,0.00159470085054636
1772462249322079700,3.159079833984375,-0.009741310961544514,0.0070403325371444225,0.0029523803386837244
1772462249332128800,3.169128662109375,-0.007729558739811182,0.007640342693775892,0.002397910226136446
1772462249342176800,3.1791767578125,-0.008492820896208286,0.008071508258581161,0.004099403973668814
1772462249352224500,3.189224609375,-0.009009740315377712,0.006548712961375713,0.0028415927663445473
1772462249362272800,3.199272705078125,-0.008990831673145294,0.004314587451517582,0.003079413203522563
1772462249372320800,3.20932080078125,-0.008762332610785961,0.008103466592729092,0.004837099462747574
1772462249382368500,3.219368408203125,-0.007243531756103039,0.005947637837380171,0.002385659608989954
1772462249392417800,3.229417724609375,-0.0070730894804000854,0.008228901773691177,0.0017305220244452357
1772462249402465500,3.239465576171875,-0.009471798315644264,0.006622216198593378,0.002814961364492774
1772462249412513800,3.249513671875,-0.008135423995554447,0.006972954608500004,0.0005797701887786388
1772462249422561500,3.2595615234375,-0.007815046235918999,0.008992962539196014,0.0016130766598507762
1772462249432609500,3.269609619140625,-0.009761816821992397,0.007668838836252689,0.0008849684381857514
1772462249442657800,3.27965771484375,-0.0070517840795218945,0.00743101816624403,0.0032953955233097076
1772462249452705500,3.28970556640625,-0.009382050484418869,0.008322378620505333,0.0016519587952643633
1772462249462754800,3.2997548828125,-0.010239321738481522,0.007873369380831718,0.0037792918737977743
1772462249472802600,3.309802490234375,-0.006674414500594139,0.00609277980402112,0.004534564446657896
1772462249482850800,3.319850830078125,-0.008142082020640373,0.010017214342951775,0.006148173473775387
1772462249492898800,3.32989892578125,-0.010158361867070198,0.008473645895719528,0.004620318301022053
1772462249502946600,3.339946533203125,-0.008333830162882805,0.009294964373111725,0.003055444685742259
1772462249512994800,3.349994873046875,-0.008022773079574108,0.008249407634139061,0.0022865901701152325
1772462249523043600,3.360043701171875,-0.009582586586475372,0.007397728972136974,0.0029084382113069296
1772462249533091800,3.370091796875,-0.007534615229815245,0.008838765323162079,0.0022386531345546246
1772462249543139600,3.3801396484375,-0.009519202634692192,0.006718888878822327,0.00004846953015658073
1772462249553187600,3.3901875,-0.005931658670306206,0.010002033784985542,0.001722798915579915
1772462249563235800,3.40023583984375,-0.0076147764921188354,0.006356698926538229,0.0026146916206926107
1772462249573283600,3.41028369140625,-0.007510913070291281,0.005860552191734314,0.00166633992921561
1772462249583332900,3.420332763671875,-0.007671501953154802,0.007303186692297459,0.0018913770327344537
1772462249593380600,3.430380615234375,-0.005960420705378056,0.0065404572524130344,0.00282055395655334
1772462249603428600,3.4404287109375,-0.008358864113688469,0.0071007865481078625,0.004895688965916634
1772462249613476900,3.450476806640625,-0.00944889523088932,0.010088054463267326,-0.00033662354690022767
1772462249623524900,3.46052490234375,-0.0065351310186088085,0.005871471017599106,0.002263686852529645
1772462249633572900,3.47057275390625,-0.008858206681907177,0.0059684100560843945,0.0035052525345236063
1772462249643622000,3.480621826171875,-0.004138552118092775,0.007192132994532585,0.00415453128516674
1772462249653670000,3.490669921875,-0.006028064992278814,0.0063154203817248344,0.0026815368328243494
1772462249663718000,3.5007177734375,-0.008311726152896881,0.007125553674995899,0.004228833597153425
1772462249673766000,3.510765869140625,-0.008444617502391338,0.007908256724476814,0.003952663857489824
1772462249683814000,3.52081396484375,-0.007936219684779644,0.006218214984983206,-0.0015728629659861326
1772462249693862000,3.53086181640625,-0.008868592791259289,0.005923935677856207,0.0003211772127542645
1772462249703911000,3.540910888671875,-0.008204933255910873,0.00954157393425703,0.0007057376787997782
1772462249713959000,3.550958984375,-0.009103217162191868,0.007666441611945629,0.0006852313526906073
1772462249724007000,3.5610068359375,-0.009129050187766552,0.008126103319227695,0.0006330333999358118
1772462249734055200,3.57105517578125,-0.008668323047459126,0.006971356924623251,0.00004926848123432137
1772462249744103000,3.58110302734375,-0.010541590861976147,0.007284278050065041,0.0018956380663439631
1772462249754151000,3.59115087890625,-0.008974320255219936,0.005930859595537186,0.0015579492319375277
1772462249764199000,3.601198974609375,-0.008694687858223915,0.006988401059061289,0.00330258603207767
1772462249774248000,3.611248046875,-0.008567655459046364,0.006656571291387081,0.0028152274899184704
1772462249784296000,3.6212958984375,-0.008943160995841026,0.0062706791795790195,0.0023164174053817987
1772462249794344000,3.631343994140625,-0.007751662749797106,0.010583401657640934,0.0027262780349701643
1772462249804392000,3.641391845703125,-0.00754979532212019,0.008383630774915218,0.001975799212232232
1772462249814440000,3.65143994140625,-0.008762332610785961,0.007266168482601643,0.002680471632629633
1772462249824488000,3.661488037109375,-0.009353820234537125,0.009281649254262447,0.0012713931500911713
1772462249834537000,3.671536865234375,-0.008464857004582882,0.0062757390551269054,0.0021797972731292248
1772462249844585000,3.6815849609375,-0.010847588069736958,0.007991081103682518,0.0004929511342197657
1772462249854633000,3.691633056640625,-0.00821771565824747,0.007899202406406403,0.001446096459403634
1772462249864681000,3.701680908203125,-0.008709069341421127,0.007878961972892284,-0.0004932174342684448
1772462249874729000,3.71172900390625,-0.009259012527763844,0.007400125730782747,0.0046908920630812645
1772462249884776700,3.721776611328125,-0.006143646314740181,0.0057564228773117065,0.0002854908525478095
1772462249894826000,3.731825927734375,-0.009645170532166958,0.008677910082042217,0.003029345767572522
1772462249904873700,3.741873779296875,-0.008312257938086987,0.00606375141069293,0.0016471651615574956
1772462249914922000,3.751921875,-0.008599081076681614,0.00902811624109745,0.0011920308461412787
1772462249924970000,3.761969970703125,-0.006222742144018412,0.006717291194945574,0.0015417039394378662
1772462249935017700,3.772017822265625,-0.0073511237278580666,0.005517537239938974,0.0036429380998015404
1772462249945066000,3.78206591796875,-0.007292267866432667,0.008450476452708244,-0.00040293627534992993
1772462249955114800,3.79211474609375,-0.00612420542165637,0.004985437728464603,0.0016618125373497605
1772462249965163000,3.8021630859375,-0.008973787538707256,0.006143646314740181,0.0016857809387147427
1772462249975211000,3.8122109375,-0.009544769302010536,0.007647000718861818,0.0003962783666793257
1772462249985258800,3.8222587890625,-0.008726646192371845,0.009036637842655182,0.0046876962296664715
1772462249995307000,3.83230712890625,-0.006148439832031727,0.006972421891987324,0.0025992451701313257
1772462250005355000,3.84235498046875,-0.007880560122430325,0.006068012677133083,0.0034474621061235666
1772462250015404000,3.852404052734375,-0.007450193166732788,0.0070339408703148365,0.0016769925132393837
1772462250025451800,3.86245166015625,-0.00839694682508707,0.006238987669348717,0.002055694116279483
1772462250035499800,3.872499755859375,-0.007592938374727964,0.00863450113683939,0.00330205331556499
1772462250045548000,3.882548095703125,-0.00818016566336155,0.007873103022575378,0.0016378440195694566
1772462250055595800,3.892595703125,-0.0075969332829117775,0.006007825024425983,0.0026554379146546125
1772462250065644000,3.90264404296875,-0.0075788237154483795,0.006401706486940384,0.003775563556700945
1772462250075692800,3.91269287109375,-0.00974184274673462,0.007339938078075647,-0.0001073253879440017
1772462250085740800,3.92274072265625,-0.007370564620941877,0.009447298012673855,0.0004034689045511186
1772462250095789000,3.9327890625,-0.011177287437021732,0.008920257911086082,0.002547047333791852
1772462250105836800,3.9428369140625,-0.009633186273276806,0.007285876199603081,0.0006993460701778531
1772462250115885000,3.952885009765625,-0.008071241900324821,0.008488825522363186,0.0017803232185542583
1772462250125933000,3.96293310546875,-0.007553257513791323,0.006332730874419212,0.004230697639286518
1772462250135982000,3.972982177734375,-0.008098140358924866,0.00848722830414772,0.0054885088466107845
1772462250146029800,3.98302978515625,-0.009159942157566547,0.006629140581935644,-0.0006583334179595113
1772462250156077800,3.993077880859375,-0.006453904323279858,0.008535697124898434,0.0033960631117224693
1772462250166126000,4.0031259765625,-0.007250988855957985,0.00851332675665617,0.0023004384711384773
1772462250176173800,4.013173828125,-0.007493336219340563,0.007604922633618116,0.0046607982367277145
1772462250186221800,4.023221923828125,-0.007734618615359068,0.007072823122143745,0.0022804648615419865
1772462250196270800,4.033270751953125,-0.00830693170428276,0.004953745752573013,0.0021640846971422434
1772462250206318800,4.04331884765625,-0.004021373111754656,0.006109557580202818,0.0009315737406723201
1772462250216367000,4.0533671875,-0.007506652269512415,0.007426491007208824,0.0033659692853689194
1772462250226414800,4.063414794921875,-0.00809068325906992,0.006479737348854542,-0.00025752768851816654
1772462250236462800,4.073462890625,-0.007421164773404598,0.008075769990682602,-0.0001661812566453591
1772462250246511000,4.083510986328125,-0.009446765296161175,0.007891478948295116,0.0005675196298398077
1772462250256559900,4.093559814453125,-0.009875267744064331,0.008215053007006645,0.004806206561625004
1772462250266607900,4.10360791015625,-0.007035272661596537,0.006864830385893583,-0.000520647969096899
1772462250276655900,4.11365576171875,-0.007407848723232746,0.010041449218988419,0.0030128341168165207
1772462250286703900,4.123703857421875,-0.008400674909353256,0.0070608388632535934,0.0007012102869339287
1772462250296751900,4.133751953125,-0.009489108808338642,0.00848270021378994,0.0006468818173743784
1772462250306799900,4.1437998046875,-0.00561021501198411,0.008677111007273197,0.001216531964018941
1772462250316849000,4.153848876953125,-0.009606554172933102,0.005878928117454052,0.002662894781678915
1772462250326897000,4.16389697265625,-0.008158328011631966,0.006142847239971161,0.004034422803670168
1772462250336945000,4.17394482421875,-0.0073479278944432735,0.007678425870835781,0.003641606541350484
1772462250346993000,4.183992919921875,-0.007832356728613377,0.00839668046683073,-0.00012410330236889422
1772462250357041000,4.194041015625,-0.005678125657141209,0.0041004689410328865,0.0026098978705704212
1772462250367089200,4.204089111328125,-0.007535680662840605,0.008272310718894005,0.003629355924203992
1772462250377138000,4.214137939453125,-0.006410494912415743,0.006699714343994856,-2.6631610694494157e-7
1772462250387186000,4.22418603515625,-0.0067846691235899925,0.007672034204006195,0.00019148127466905862
1772462250397234000,4.23423388671875,-0.008200671523809433,0.008710933849215508,0.0008801747462712228
1772462250407282000,4.244281982421875,-0.007526892237365246,0.008791893720626831,0.0020743361674249172
1772462250417330000,4.254329833984375,-0.008520517498254776,0.007187871728092432,0.0030900659039616585
1772462250427378000,4.2643779296875,-0.009052351117134094,0.007169229444116354,0.001591505017131567
1772462250437426700,4.2744267578125,-0.009249690920114517,0.008253402076661587,0.002243979601189494
1772462250447475000,4.284474853515625,-0.0075604477897286415,0.004986236337572336,0.0032027175184339285
1772462250457523000,4.29452294921875,-0.009706422686576843,0.008694687858223915,0.0019265307346358895
1772462250467571000,4.304571044921875,-0.009638512507081032,0.007507983595132828,0.0013736584223806858
1772462250477619000,4.314618896484375,-0.007217432837933302,0.007925300858914852,0.00023276027059182525
1772462250487667000,4.3246669921875,-0.005905293393880129,0.006145510356873274,0.0017473000334575772
1772462250497716000,4.334716064453125,-0.00833782460540533,0.009940781630575657,0.001689775730483234
1772462250507764000,4.344763916015625,-0.009401224553585052,0.006147374864667654,0.0021869877818971872
1772462250517812000,4.35481201171875,-0.008439291268587112,0.007483482826501131,0.0009502158500254154
1772462250527860000,4.36485986328125,-0.006469350773841143,0.007791876792907715,0.0013920343481004238
1772462250537907700,4.37490771484375,-0.009571933187544346,0.005584382452070713,0.003171824850142002
1772462250547957000,4.38495703125,-0.009070992469787598,0.007990282028913498,0.0010719223646447062
1772462250558004700,4.395004638671875,-0.009134909138083458,0.006639260333031416,0.004206462763249874
1772462250568053000,4.405052978515625,-0.006383863277733326,0.010551444254815578,0.004723649006336927
1772462250578101000,4.41510107421875,-0.008096808567643166,0.007902397774159908,0.006901049055159092
1772462250588148700,4.425148681640625,-0.009220396168529987,0.00839534867554903,0.0037388119380921125
1772462250598197000,4.435197021484375,-0.00809041690081358,0.006036320701241493,0.004576908424496651
1772462250608248300,4.445248291015625,-0.00830932892858982,0.006160956807434559,0.0017566210590302944
1772462250618297300,4.45529736328125,-0.009692308492958546,0.008798818103969097,0.0017773937433958054
1772462250628345300,4.465345458984375,-0.008378837257623672,0.007711715530604124,0.0036067189648747444
1772462250638393300,4.475393310546875,-0.005917544011026621,0.007723699789494276,-0.00022157499915920198
1772462250648441300,4.48544140625,-0.006428071763366461,0.007207845337688923,0.0014152037911117077
1772462250658489300,4.4954892578125,-0.009906160645186901,0.00911786500364542,0.001657285145483911
1772462250668538400,4.505538330078125,-0.0075663067400455475,0.008335161954164505,0.0030631679110229015
1772462250678586400,4.51558642578125,-0.007495466619729996,0.00646588858217001,0.0030218889005482197
1772462250688634400,4.52563427734375,-0.008037419989705086,0.00680118054151535,0.0005893575726076961
1772462250698682400,4.535682373046875,-0.007829693146049976,0.00830639898777008,0.0027859327383339405
1772462250708730000,4.545730224609375,-0.008318116888403893,0.006952980998903513,0.0046874298714101315
1772462250718778400,4.5557783203125,-0.008463259786367416,0.007910653948783875,0.004246410448104143
1772462250728827100,4.5658271484375,-0.010121343657374382,0.006385727785527706,0.003484213724732399
1772462250738875400,4.57587548828125,-0.008159392513334751,0.006993993651121855,0.004512726329267025
1772462250748923400,4.58592333984375,-0.009082444943487644,0.008468053303658962,0.00580702256411314
1772462250758971100,4.59597119140625,-0.006902913562953472,0.008636897429823875,-0.00039494677912443876
1772462250769019400,4.606019287109375,-0.006998787168413401,0.007695470005273819,0.0016695356462150812
1772462250779067400,4.6160673828125,-0.007823036052286625,0.008302937261760235,0.0009598032338544726
1772462250789116400,4.626116455078125,-0.006659500766545534,0.007238471880555153,-0.0005209143273532391
1772462250799164400,4.636164306640625,-0.008012119680643082,0.01001961063593626,0.001088966615498066
1772462250809212200,4.646212158203125,-0.005663211923092604,0.006302637048065662,0.0007789746159687638
1772462250819260400,4.656260498046875,-0.008924518711864948,0.006955111399292946,0.0027212179265916348
1772462250829308200,4.66630810546875,-0.00836658664047718,0.007731156423687935,0.003323891432955861
1772462250839356200,4.676356201171875,-0.008628109470009804,0.006989200133830309,0.0027747475542128086
1772462250849405200,4.6864052734375,-0.007379353046417236,0.007375358138233423,0.0007504787645302713
1772462250859453200,4.696453125,-0.009500826708972454,0.006569752003997564,0.0026146916206926107
1772462250869501400,4.70650146484375,-0.0062517705373466015,0.008497081696987152,0.0006593986763618886
1772462250879549200,4.716549072265625,-0.007441138383001089,0.007744738832116127,0.0017502295086160302
1772462250889597400,4.726597412109375,-0.00977326836436987,0.008900018408894539,-0.00021678130724467337
1772462250899646200,4.736646240234375,-0.007771104108542204,0.007429154124110937,0.0006551376427523792
1772462250909694200,4.746694091796875,-0.008533034473657608,0.005961752496659756,0.0038040592335164547
1772462250919742500,4.756742431640625,-0.006674414500594139,0.009020392782986164,0.0006860303110443056
1772462250929790200,4.766790283203125,-0.008901881985366344,0.00780519237741828,0.0025387913919985294
1772462250939838500,4.77683837890625,-0.00817856751382351,0.008028099313378334,0.002386458683758974
1772462250949886200,4.78688623046875,-0.009699232876300812,0.006741526070982218,0.0006591323763132095
1772462250959935200,4.796935302734375,-0.009384180419147015,0.00660597113892436,0.0013307816116139293
1772462250969983200,4.806983154296875,-0.007898136973381042,0.005025651305913925,0.0017896442441269755
1772462250980031200,4.81703125,-0.007405984681099653,0.007106379140168428,0.0035366779193282127
1772462250990079500,4.82707958984375,-0.00839721318334341,0.0075604477897286415,0.001564873498864472
1772462251000127200,4.837127197265625,-0.008349542506039143,0.007672034204006195,0.0026045716367661953
1772462251010175200,4.84717529296875,-0.010667557828128338,0.0065162223763763905,0.0023672839161008596
1772462251020224300,4.857224365234375,-0.011207646690309048,0.008077899925410748,0.004670385736972094
1772462251030272300,4.867272216796875,-0.009093630127608776,0.007493602577596903,0.0033457293175160885
1772462251040320500,4.877320556640625,-0.00811997801065445,0.00669305631890893,0.0026586337480694056
1772462251050368300,4.8873681640625,-0.0063154203817248344,0.009029979817569256,0.0025624935515224934
1772462251060416300,4.897416259765625,-0.007741010282188654,0.006570018362253904,0.0022975089959800243
1772462251070464300,4.90746435546875,-0.008134359493851662,0.0100238723680377,0.0016666061710566282
1772462251080513300,4.91751318359375,-0.009515208192169666,0.007188138086348772,0.0018546254141256213
1772462251090561300,4.927561279296875,-0.009137571789324284,0.008448611944913864,0.001023452845402062
1772462251100609300,4.937609375,-0.006036054342985153,0.007486412301659584,0.0031494542490690947
1772462251110657300,4.9476572265625,-0.009824933484196663,0.006672017276287079,0.0017507621087133884
1772462251120705300,4.957705322265625,-0.008924785070121288,0.00649678148329258,0.00006631271389778703
1772462251130754300,4.96775439453125,-0.008283229544758797,0.006109291687607765,0.0001459412305848673
1772462251140802300,4.97780224609375,-0.006986270658671856,0.009966347366571426,0.002650910522788763
1772462251150850300,4.987850341796875,-0.009290969930589199,0.005438707303255796,0.0024080302100628614
1772462251160898300,4.997898193359375,-0.006916495505720377,0.009565009735524654,0.0020575581584125757
1772462251170946300,5.0079462890625,-0.00791704561561346,0.006532734259963036,0.001639441936276853
1772462251180994300,5.017994384765625,-0.006133792456239462,0.006644853390753269,0.0008564725867472589
1772462251191043300,5.028043212890625,-0.009020925499498844,0.006748716346919537,0.003424825146794319
1772462251201091300,5.03809130859375,-0.0062669506296515465,0.006298642139881849,0.002017610939219594
1772462251211139300,5.048139404296875,-0.007302920334041119,0.0057289921678602695,0.0012855078093707561
1772462251221187300,5.058187255859375,-0.008242483250796795,0.006404902320355177,0.0017675400013104081
1772462251231235300,5.0682353515625,-0.008286159485578537,0.008668589405715466,0.001115864492021501
1772462251241284400,5.078284423828125,-0.008255532942712307,0.006901848129928112,0.002145176287740469
1772462251251332400,5.088332275390625,-0.007868309505283833,0.008814796805381775,0.002945456188172102
1772462251261380000,5.098380126953125,-0.009153018705546856,0.006058957893401384,0.001591505017131567
1772462251271428400,5.108428466796875,-0.009516539983451366,0.01044491771608591,0.002347310073673725
1772462251281476400,5.118476318359375,-0.007835285738110542,0.0057479003444314,0.003081277245655656
1772462251291524400,5.1285244140625,-0.00805979035794735,0.008904811926186085,0.0012745888670906425
1772462251301573400,5.138573486328125,-0.009186840616166592,0.009370865300297737,0.0034168355632573366
1772462251311621000,5.14862109375,-0.012030297890305519,0.009007875807583332,0.0028162929229438305
1772462251321669400,5.15866943359375,-0.008224107325077057,0.008298143744468689,-0.0014761901693418622
1772462251331717400,5.16871728515625,-0.005894374568015337,0.0060344566591084,0.00019228023302275687
1772462251341765400,5.178765380859375,-0.008390288800001144,0.00896553136408329,0.0015342470724135637
1772462251351813400,5.1888134765625,-0.008678975515067577,0.004962534178048372,0.0036695697344839573
1772462251361862100,5.198862060546875,-0.006381466519087553,0.007839281111955643,-0.0003587277897167951
1772462251371910400,5.208910400390625,-0.006570551078766584,0.0067844027653336525,0.0006101301987655461
1772462251381958100,5.218958251953125,-0.007300257217139006,0.00666296249255538,-0.0011060107499361038
1772462251392006400,5.22900634765625,-0.006363889668136835,0.006370281334966421,0.0036695697344839573
1772462251402054400,5.239054443359375,-0.007713047321885824,0.005982258822768927,0.00205276464112103
1772462251412103400,5.249103515625,-0.00782649777829647,0.007056844420731068,0.004750812891870737
1772462251422151400,5.2591513671875,-0.009269931353628635,0.00902598537504673,0.005126318894326687
1772462251432199200,5.26919921875,-0.00498011102899909,0.00902731716632843,0.0007829693495295942
1772462251442247400,5.279247314453125,-0.008637430146336555,0.006591856479644775,0.0023640880826860666
1772462251452295400,5.28929541015625,-0.007605455350130796,0.005148156546056271,0.0008586031035520136
1772462251462343200,5.29934326171875,-0.009949303232133389,0.00800066813826561,0.0022088258992880583
1772462251472392400,5.309392333984375,-0.007939149625599384,0.005911951418966055,0.0034085798542946577
1772462251482440200,5.319440185546875,-0.005534315016120672,0.006060022860765457,0.0022857910953462124
1772462251492488400,5.329488525390625,-0.008237689733505249,0.005815810989588499,0.0018165421206504107
1772462251502536200,5.3395361328125,-0.007103183306753635,0.008136489428579807,0.002953445538878441
1772462251512584200,5.349584228515625,-0.010055563412606716,0.008622250519692898,0.0024402544368058443
1772462251522632400,5.359632568359375,-0.00720678037032485,0.008796687237918377,0.004811266902834177
1772462251532681200,5.36968115234375,-0.010146111249923706,0.009561813436448574,0.0031523837242275476
1772462251542729500,5.3797294921875,-0.009606288745999336,0.00866193138062954,0.001782453735359013
1772462251552777200,5.389777099609375,-0.010351707227528095,0.007489075418561697,0.0007294398383237422
1772462251562825200,5.3998251953125,-0.010689928196370602,0.007950867526233196,0.0021752698812633753
1772462251572873500,5.40987353515625,-0.00845340546220541,0.005861084908246994,0.003967577591538429
1772462251582922200,5.419922119140625,-0.007682953495532274,0.0059633501805365086,-0.00037683729897253215
1772462251592970500,5.429970458984375,-0.007616107817739248,0.008809470571577549,0.001448759576305747
1772462251603018200,5.440018310546875,-0.009436111897230148,0.008297344669699669,0.0035545211285352707
1772462251613063200,5.450063232421875,-0.005909021943807602,0.007699997629970312,0.0038000645581632853
1772462251623111200,5.460111083984375,-0.009157279506325722,0.008527175523340702,0.0013369068037718534
1772462251633159200,5.4701591796875,-0.0067812069319188595,0.009045160375535488,-0.001989913871511817
1772462251643208200,5.480208251953125,-0.010915764607489109,0.007760717533528805,0.001791242160834372
1772462251653256200,5.490256103515625,-0.0052107409574091434,0.008581237867474556,0.0004420847399160266
1772462251663304400,5.500304443359375,-0.009059274569153786,0.007454187609255314,0.0044469465501606464
1772462251673352200,5.510352294921875,-0.00726457079872489,0.010785802267491817,0.004853344522416592
1772462251683400200,5.520400146484375,-0.008016647771000862,0.007001450285315514,0.0009387642494402826
1772462251693448200,5.5304482421875,-0.007484015077352524,0.0067878649570047855,0.005392634775489569
1772462251703497200,5.540497314453125,-0.00986434891819954,0.008253402076661587,0.0022154836915433407
1772462251713545200,5.550545166015625,-0.00821105856448412,0.006217682268470526,0.0024711471050977707
1772462251723593200,5.56059326171875,-0.008421448059380054,0.007754059974104166,-0.0013646037550643086
1772462251733641200,5.57064111328125,-0.00797403696924448,0.007135407533496618,-0.00049108691746369
1772462251743689200,5.580689208984375,-0.0073713636957108974,0.007811850402504206,-0.00015393071225844324
1772462251753738200,5.59073828125,-0.0075782909989356995,0.008419050835072994,0.002365419641137123
1772462251763786200,5.6007861328125,-0.009295230731368065,0.006970025133341551,0.0027385284192860126
1772462251773834200,5.610834228515625,-0.007165767718106508,0.007701328955590725,0.0011414308100938797
1772462251783882200,5.62088232421875,-0.008595352061092854,0.005904494319111109,0.0030684941448271275
1772462251793930200,5.63093017578125,-0.006435795221477747,0.008302670903503895,0.0029917950741946697
1772462251803978200,5.640978271484375,-0.009018261916935444,0.006412891671061516,0.00336090917699039
1772462251814027300,5.65102734375,-0.008620386011898518,0.008666192181408405,0.001998968655243516
1772462251824075300,5.6610751953125,-0.009075520560145378,0.005666141398251057,0.0010242518037557602
1772462251834123000,5.671123046875,-0.00743101816624403,0.007518636528402567,0.0036312201991677284
1772462251844171300,5.681171142578125,-0.00890667550265789,0.008681372739374638,0.004938832018524408
1772462251854219300,5.69121923828125,-0.007127950433641672,0.005821669939905405,0.004547081422060728
1772462251864268300,5.701268310546875,-0.008592689409852028,0.007138603366911411,0.0026815368328243494
1772462251874316300,5.71131640625,-0.010038785636425018,0.009731190279126167,0.0008503473363816738
1772462251884364000,5.721364013671875,-0.006234992761164904,0.009044627659022808,0.0019081549253314734
1772462251894412300,5.731412353515625,-0.007395065855234861,0.006482666824012995,0.0023760723415762186
1772462251904460300,5.741460205078125,-0.009023056365549564,0.008831840939819813,0.0021824603900313377
1772462251914509300,5.75150927734375,-0.009905095212161541,0.005349225364625454,0.0005259743193164468
1772462251924557300,5.761557373046875,-0.00920095480978489,0.007589476183056831,0.0012098740553483367
1772462251934605000,5.77160498046875,-0.008595352061092854,0.007367635145783424,0.002314553363248706
1772462251944653300,5.7816533203125,-0.004614192992448807,0.005302620120346546,0.0027505126781761646
1772462251954701300,5.791701416015625,-0.008678442798554897,0.00908297672867775,0.0028133634477853775
1772462251964749000,5.8017490234375,-0.009718673303723335,0.008657137863337994,0.004215783905237913
1772462251974798000,5.811798095703125,-0.008050469681620598,0.008159658871591091,0.003689276985824108
1772462251984846000,5.82184619140625,-0.007131146267056465,0.00875088106840849,-0.00009054747351910919
1772462251994894300,5.831894287109375,-0.007178550586104393,0.007531952112913132,0.001984321279451251
1772462252004942000,5.841942138671875,-0.007527690846472979,0.007260309532284737,0.003242132253944874
1772462252014990300,5.851990234375,-0.006963899824768305,0.007099454756826162,0.0020413128659129143
1772462252025039000,5.8620390625,-0.008981777355074883,0.008038219064474106,0.0007584682898595929
1772462252035087000,5.872087158203125,-0.007131945341825485,0.007846738211810589,0.0006061354652047157
1772462252045135400,5.88213525390625,-0.008525577373802662,0.007984423078596592,0.0020213392563164234
1772462252055183000,5.89218310546875,-0.007092796731740236,0.00509808911010623,0.00484295841306448
1772462252065231400,5.9022314453125,-0.007623298559337854,0.006857906002551317,0.0005725796218030155
1772462252075280100,5.912280029296875,-0.005913016386330128,0.006499977316707373,0.0043713124468922615
1772462252085328100,5.922328125,-0.008814530447125435,0.007763913366943598,0.003626426449045539
1772462252095376100,5.932376220703125,-0.007256581448018551,0.006662430241703987,0.00355904852040112
1772462252105424100,5.942424072265625,-0.008319715037941933,0.006314088590443134,-0.0010250506456941366
1772462252115472400,5.952472412109375,-0.009329053573310375,0.006959904916584492,-0.00047058056225068867
1772462252125520100,5.96252001953125,-0.007862983271479607,0.005533515941351652,0.0016018913593143225
1772462252135569400,5.9725693359375,-0.00714552728459239,0.007131146267056465,0.001278849900700152
1772462252145617200,5.9826171875,-0.007063501980155706,0.0062339273281395435,0.0034296188969165087
1772462252155665200,5.9926650390625,-0.00902944803237915,0.009129582904279232,0.0009978864109143615
1772462252165713400,6.00271337890625,-0.007016364019364119,0.005860552191734314,0.0007845672662369907
1772462252175761200,6.01276123046875,-0.009245696477591991,0.007924768142402172,0.0023851271253079176
1772462252185810400,6.022810546875,-0.010114152915775776,0.007227286696434021,0.003270095447078347
1772462252195858200,6.032858154296875,-0.009666475467383862,0.006262689363211393,0.002600044244900346
1772462252205906200,6.04290625,-0.009602559730410576,0.007614243775606155,-0.00028762139845639467
1772462252215954200,6.0529541015625,-0.00851652305573225,0.008185758255422115,0.004538825247436762
1772462252226002200,6.063002197265625,-0.011485414579510689,0.006780674215406179,0.002691923175007105
1772462252236050200,6.07305029296875,-0.009846239350736141,0.007006244268268347,0.0035459990613162518
1772462252246099200,6.08309912109375,-0.008403604850172997,0.00891120359301567,0.0025451830588281155
1772462252256147200,6.093147216796875,-0.007386809680610895,0.009036904200911522,0.0037015276029706
1772462252266195200,6.1031953125,-0.011118165217339993,0.0073199644684791565,0.003543868428096175
1772462252276243200,6.1132431640625,-0.008168714120984077,0.00760998297482729,0.00039947417099028826
1772462252286291200,6.123291259765625,-0.011091799475252628,0.00782809592783451,-0.0005821670056320727
1772462252296340200,6.13334033203125,-0.00552179804071784,0.008184692822396755,0.0031166973058134317
1772462252306388200,6.14338818359375,-0.007576693315058947,0.00629065278917551,0.003674629610031843
1772462252316436200,6.153436279296875,-0.007386543322354555,0.00999351218342781,0.001273523666895926
1772462252326484200,6.163484130859375,-0.009486978873610497,0.0071007865481078625,0.001984587637707591
1772462252336532200,6.1735322265625,-0.008018777705729008,0.005464540328830481,0.0030421288684010506
1772462252346581200,6.183581298828125,-0.007411044556647539,0.005564142484217882,0.003585680155083537
1772462252356629200,6.193629150390625,-0.007897870615124702,0.006141782272607088,0.001996305538341403
1772462252366677200,6.20367724609375,-0.0095698032528162,0.007158044259995222,0.003715375903993845
1772462252376725200,6.213725341796875,-0.010092048905789852,0.01004917174577713,0.0031462584156543016
1772462252386773000,6.22377294921875,-0.008954878896474838,0.00875088106840849,0.0017310547409579158
1772462252396821200,6.2338212890625,-0.008250739425420761,0.008066448383033276,0.0015310513554140925
1772462252406870000,6.2438701171875,-0.006552441511303186,0.00794474221765995,0.0034437335561960936
1772462252416918300,6.253918212890625,-0.009107477962970734,0.006088252644985914,0.0015563513152301311
1772462252426966300,6.26396630859375,-0.010178335011005402,0.007001450285315514,0.0023489079903811216
1772462252437014000,6.274013916015625,-0.010155698284506798,0.007400658447295427,0.0010428938549011946
1772462252447062300,6.284062255859375,-0.0073529877699911594,0.009156480431556702,0.0026703516487032175
1772462252457111000,6.294111083984375,-0.007108775898814201,0.007032343186438084,0.001219461439177394
1772462252467159300,6.3041591796875,-0.006596649996936321,0.00481339730322361,0.0009369000908918679
1772462252477207300,6.314207275390625,-0.009762083180248737,0.0100800646468997,0.003945739474147558
1772462252487255000,6.324255126953125,-0.006420082412660122,0.005303418729454279,0.001189900329336524
1772462252497303300,6.33430322265625,-0.008214520290493965,0.0073298183269798756,0.003692472819238901
1772462252507352000,6.34435205078125,-0.009434514679014683,0.007303985767066479,0.004286357667297125
1772462252517400300,6.354400390625,-0.0075878784991800785,0.007445665542036295,0.0017222663154825568
1772462252527448000,6.364447998046875,-0.00900015328079462,0.010213755071163177,0.0027438548859208822
1772462252537496300,6.374496337890625,-0.00812024436891079,0.0048858351074159145,0.004240018781274557
1772462252547544300,6.38454443359375,-0.010231065563857555,0.006278402172029018,0.0033574472181499004
1772462252557592000,6.394592041015625,-0.01127768773585558,0.008609733544290066,0.0012460930738598108
1772462252567641300,6.404641357421875,-0.010658769868314266,0.00893676932901144,0.0017457021167501807
1772462252577689000,6.414689208984375,-0.007547931279987097,0.007545800413936377,-0.0009643306257203221
1772462252587737300,6.4247373046875,-0.0075697689317166805,0.009922672063112259,0.0023667511995881796
1772462252597785300,6.434785400390625,-0.0083660539239645,0.006965497974306345,0.003591272747144103
1772462252607833000,6.4448330078125,-0.00800572894513607,0.0033036512322723866,0.002638926263898611
1772462252617881900,6.4548818359375,-0.010005230084061623,0.005317533854395151,0.0019382486352697015
1772462252627929600,6.4649296875,-0.011079016141593456,0.0076422072015702724,0.0026498453225940466
1772462252637977600,6.4749775390625,-0.006876548286527395,0.008653408847749233,0.00022370553051587194
1772462252648025900,6.48502587890625,-0.007481618318706751,0.004971056245267391,0.002650910522788763
1772462252658073600,6.495073486328125,-0.008452607318758965,0.007769239600747824,0.0023305322974920273
1772462252668123000,6.505122802734375,-0.006225671619176865,0.007741809356957674,0.001603489276021719
1772462252678170600,6.515170654296875,-0.008730640634894371,0.009676329791545868,0.0012780509423464537
1772462252688219000,6.525218994140625,-0.007526093162596226,0.005998503882437944,0.0008575378451496363
1772462252698266600,6.5352666015625,-0.008855010382831097,0.007963384501636028,0.000603738590143621
1772462252708314600,6.545314697265625,-0.007165501359850168,0.0070888022892177105,-0.00041092574247159064
1772462252718363000,6.55536279296875,-0.010545052587985992,0.006953247357159853,0.0007017429452389479
1772462252728411600,6.56541162109375,-0.006899185013025999,0.009880327619612217,0.0010982876410707831
1772462252738460000,6.5754599609375,-0.007216367404907942,0.006434996146708727,0.0011619371362030506
1772462252748507600,6.585507568359375,-0.008582303300499916,0.006944991648197174,0.0003259709046687931
1772462252758555600,6.5955556640625,-0.008260060101747513,0.007755657657980919,0.002380333375185728
1772462252768604000,6.60560400390625,-0.008954612538218498,0.007749798707664013,0.002922020386904478
1772462252778652700,6.615652587890625,-0.007630755193531513,0.0073204971849918365,0.0019470370607450604
1772462252788701000,6.625700927734375,-0.00526693370193243,0.00896979309618473,0.004306331276893616
1772462252798748700,6.635748779296875,-0.007571367081254721,0.008699482306838036,0.0014349111588671803
1772462252808796700,6.645796630859375,-0.008255799300968647,0.0108886007219553,0.0016796556301414967
1772462252818844700,6.6558447265625,-0.008748483844101429,0.007113036699593067,0.001437308033928275
1772462252828893700,6.665893798828125,-0.007488276343792677,0.006829143967479467,0.00014647385978605598
1772462252838941700,6.675941650390625,-0.008835569024085999,0.006779875606298447,0.0016018913593143225
1772462252848989700,6.68598974609375,-0.005134308245033026,0.007328220177441835,0.0017656758427619934
1772462252859037700,6.69603759765625,-0.00711703160777688,0.009896306321024895,0.0012953615514561534
1772462252869085700,6.706085693359375,-0.009303753264248371,0.006417152937501669,0.004885302856564522
1772462252879133700,6.7161337890625,-0.009074721485376358,0.010151171125471592,0.0009941579774022102
1772462252889182700,6.7261826171875,-0.006674148142337799,0.007149788551032543,0.005890379659831524
1772462252899230700,6.736230712890625,-0.008098140358924866,0.006572148762643337,0.0032767534721642733
1772462252909278700,6.74627880859375,-0.00760998297482729,0.00788269005715847,0.002118811011314392
1772462252919326700,6.75632666015625,-0.009495500475168228,0.008114918135106564,0.0022831279784440994
1772462252929374700,6.766374755859375,-0.006630738265812397,0.00708667142316699,0.0016492956783622503
1772462252939423700,6.776423828125,-0.007360977120697498,0.005112470127642155,-0.0001270327775273472
1772462252949471700,6.7864716796875,-0.009194563142955303,0.010012952610850334,0.003061037277802825
1772462252959519700,6.796519775390625,-0.008403338491916656,0.007498396094888449,0.0028716865926980972
1772462252969567700,6.806567626953125,-0.008895223960280418,0.005301554687321186,-0.0003818972909357399
1772462252979615700,6.81661572265625,-0.007196660153567791,0.008296279236674309,0.0026429209392517805
1772462252989664800,6.826664794921875,-0.00759853096678853,0.005703425966203213,0.0009334379574283957
1772462252999712800,6.836712646484375,-0.009541839361190796,0.006986802909523249,0.0016972325975075364
1772462253009760500,6.846760498046875,-0.008391886949539185,0.0046424223110079765,0.0005696501466445625
1772462253019808800,6.856808837890625,-0.009945575147867203,0.006929545197635889,0.0033952640369534492
1772462253029856800,6.866856689453125,-0.008166849613189697,0.006401173770427704,0.0049500176683068275
1772462253039905800,6.87690576171875,-0.008984173648059368,0.007570568006485701,0.0011677960865199566
1772462253049953800,6.886953857421875,-0.007558051031082869,0.00851758848875761,0.0037987329997122288
1772462253060001500,6.89700146484375,-0.00968671590089798,0.00821132492274046,0.001829591696150601
1772462253070049800,6.9070498046875,-0.006903179921209812,0.006431800313293934,0.003441869281232357
1772462253080097800,6.917097900390625,-0.008698150515556335,0.0070158313028514385,0.0010759170399978757
1772462253090146800,6.927146728515625,-0.009402289986610413,0.0088187912479043,0.003858387703076005
1772462253100194800,6.93719482421875,-0.00890827365219593,0.0051446943543851376,-0.0004644552827812731
1772462253110242600,6.94724267578125,-0.007931426167488098,0.005021123681217432,0.0008439557277597487
1772462253120290800,6.957290771484375,-0.01005316711962223,0.008266185410320759,0.0015403723809868097
1772462253130338600,6.967338623046875,-0.00759906368330121,0.008138620294630527,-0.002916427794843912
1772462253140386800,6.97738671875,-0.010034258477389812,0.006101301871240139,-0.000624777574557811
1772462253150435600,6.987435546875,-0.007192398887127638,0.008783903904259205,-0.0012397015234455466
1772462253160483600,6.997483642578125,-0.008497348055243492,0.005887716542929411,0.005904227960854769
1772462253170531800,7.00753173828125,-0.01056422758847475,0.005991845857352018,0.003964648116379976
1772462253180579600,7.01757958984375,-0.00862970668822527,0.007059773895889521,0.0014452975010499358
1772462253190627800,7.0276279296875,-0.006603308022022247,0.007755924016237259,0.0024652881547808647
1772462253200676600,7.037676513671875,-0.009592173621058464,0.008636098355054855,-0.00005912217602599412
1772462253210724900,7.047724853515625,-0.008159392513334751,0.007506385911256075,0.002124669961631298
1772462253220772900,7.05777294921875,-0.007488809060305357,0.005647499579936266,-0.0013467605458572507
1772462253230820600,7.067820556640625,-0.008384429849684238,0.006964965257793665,0.0007941546500660479
1772462253240868900,7.077868896484375,-0.006142048165202141,0.007130347657948732,0.0036037894897162914
1772462253250917600,7.087917724609375,-0.00971521157771349,0.006481335032731295,0.0046389601193368435
1772462253260966000,7.0979658203125,-0.008864864706993103,0.005459479987621307,-0.0004980111261829734
1772462253271013600,7.108013671875,-0.010043046437203884,0.008371912874281406,0.002020540414378047
1772462253281061600,7.1180615234375,-0.009120527654886246,0.005932457745075226,0.0016990967560559511
1772462253291110000,7.12810986328125,-0.007333014160394669,0.007281082216650248,0.0037987329997122288
1772462253301158700,7.13815869140625,-0.008085090667009354,0.003905792022123933,0.003052781568840146
1772462253311207000,7.14820703125,-0.00839827861636877,0.007982292212545872,0.003364904085174203
1772462253321254700,7.158254638671875,-0.008139685727655888,0.005855492316186428,0.0028788771014660597
1772462253331302700,7.168302734375,-0.008698416873812675,0.007811051327735186,-0.00038828887045383453
1772462253341351000,7.178350830078125,-0.009486712515354156,0.006389988586306572,0.0037713022902607918
1772462253351399700,7.188399658203125,-0.009002016857266426,0.006213687360286713,0.0007531419396400452
1772462253361448000,7.198447998046875,-0.00797163974493742,0.00824061967432499,0.0007182545377872884
1772462253371495700,7.20849560546875,-0.00941853504627943,0.005791310220956802,0.000966727442573756
1772462253381543700,7.218543701171875,-0.006188653875142336,0.00875221285969019,0.0014444985426962376
1772462253391591700,7.228591796875,-0.007047789636999369,0.008423046208918095,0.00008122641156660393
1772462253401639700,7.2386396484375,-0.009014001116156578,0.006665625609457493,0.0014596786350011826
1772462253411688700,7.248688720703125,-0.0075718993321061134,0.0054581486620008945,0.002252501668408513
1772462253421736700,7.25873681640625,-0.008810802362859249,0.008673382923007011,0.0006777744856663048
1772462253431784700,7.26878466796875,-0.009969543665647507,0.008414523676037788,0.002953445538878441
1772462253441832700,7.278832763671875,-0.008293350227177143,0.006383330561220646,0.0031342741567641497
1772462253451880700,7.288880615234375,-0.009041432291269302,0.007413974031805992,0.00569996377453208
1772462253461929700,7.2989296875,-0.006549245677888393,0.005626726895570755,0.003695668652653694
1772462253471977700,7.308977783203125,-0.007750331424176693,0.007758853491395712,0.0019896477460861206
1772462253482025700,7.319025634765625,-0.008430236019194126,0.004304200876504183,0.0010687265312299132
1772462253492073700,7.32907373046875,-0.009357016533613205,0.008595884777605534,-0.00015233281010296196
1772462253502121700,7.339121826171875,-0.008563661016523838,0.008343683555722237,0.0015390408225357533
1772462253512170800,7.349170654296875,-0.011067298240959644,0.008241684176027775,0.0017712684348225594
1772462253522218800,7.35921875,-0.0070283482782542706,0.006044842768460512,0.001592037733644247
1772462253532266500,7.3692666015625,-0.0075937374494969845,0.00902571901679039,-0.0011265170760452747
1772462253542314800,7.379314697265625,-0.008613461628556252,0.0076115806587040424,0.0010402307379990816
1772462253552362800,7.38936279296875,-0.008258729241788387,0.006012618541717529,0.003064765827730298
1772462253562411800,7.399411865234375,-0.008479771204292774,0.007394533138722181,0.0031965922098606825
1772462253572459800,7.409459716796875,-0.007740211207419634,0.00654525076970458,0.0024322650860995054
1772462253582507500,7.419507568359375,-0.0059537626802921295,0.008410795591771603,0.0034527883399277925
1772462253592555800,7.4295556640625,-0.008522648364305496,0.007309578359127045,0.0019315907265990973
1772462253602603800,7.439603759765625,-0.00896579772233963,0.007650196552276611,0.0032376048620790243
1772462253612652500,7.449652587890625,-0.0041436124593019485,0.004298608284443617,0.005111138802021742
1772462253622700800,7.45970068359375,-0.0073077138513326645,0.007720503956079483,0.0016104135429486632
1772462253632748500,7.46974853515625,-0.007936752401292324,0.007741542998701334,0.0002790992730297148
1772462253642796500,7.479796630859375,-0.008988169021904469,0.007977765053510666,0.0009004147723317146
1772462253652844500,7.489844482421875,-0.0070738885551691055,0.008157262578606606,0.0006295712664723396
1772462253662893600,7.4998935546875,-0.00774686923250556,0.007772968150675297,0.0013185309944674373
1772462253672941600,7.509941650390625,-0.008540225215256214,0.007309045642614365,0.0039044604636728764
1772462253682989600,7.519989501953125,-0.009125054813921452,0.008363657630980015,0.006327138282358646
1772462253693037600,7.53003759765625,-0.008985505439341068,0.006127134896814823,0.0010990865994244814
1772462253703085600,7.54008544921875,-0.006433664355427027,0.006016613449901342,0.003509779926389456
1772462253713134600,7.550134521484375,-0.0067633637227118015,0.009725864045321941,0.004456001333892345
1772462253723182600,7.5601826171875,-0.00803182739764452,0.007810784969478846,0.0036597158759832382
1772462253733230600,7.570230712890625,-0.009035573340952396,0.005857622716575861,0.0008753810543566942
1772462253743278600,7.580278564453125,-0.009732522070407867,0.009089634753763676,0.0032858080230653286
1772462253753326600,7.59032666015625,-0.008858473040163517,0.0062155514024198055,0.003026682650670409
1772462253763375600,7.600375732421875,-0.007661914452910423,0.008923720568418503,0.0030003173742443323
1772462253773423600,7.610423583984375,-0.007306116167455912,0.007214503362774849,-0.00037683729897253215
1772462253783471600,7.6204716796875,-0.007990282028913498,0.004846686962991953,0.00227939966134727
1772462253793519600,7.63051953125,-0.006616090890020132,0.008382033556699753,0.00034674355993047357
1772462253803567600,7.640567626953125,-0.010368751361966133,0.006995324976742268,0.003653324441984296
1772462253813616600,7.65061669921875,-0.00800413079559803,0.0073596457950770855,0.002007490722462535
1772462253823664600,7.66066455078125,-0.009701096452772617,0.006485329940915108,0.004749747924506664
1772462253833712600,7.670712646484375,-0.008775648660957813,0.00768907880410552,0.003044259501621127
1772462253843760400,7.680760498046875,-0.009946374222636223,0.008418518118560314,0.00440992834046483
1772462253853808600,7.69080859375,-0.004766792058944702,0.004911135416477919,0.005023254547268152
1772462253863857400,7.700857421875,-0.009053150191903114,0.00464588450267911,0.003382747294381261
1772462253873905700,7.71090576171875,-0.008682703599333763,0.006980943959206343,0.0009765811264514923
1772462253883953700,7.72095361328125,-0.007821704261004925,0.006947921123355627,0.0029917950741946697
1772462253894001400,7.73100146484375,-0.009652094915509224,0.007802795618772507,0.004622981417924166
1772462253904049700,7.741049560546875,-0.009074721485376358,0.00717562111094594,0.004110322799533606
1772462253914097700,7.75109765625,-0.0076155755668878555,0.006006759591400623,0.001416002749465406
1772462253924146700,7.761146728515625,-0.008256065659224987,0.006639260333031416,-0.0001179780374513939
1772462253934194700,7.771194580078125,-0.009047556668519974,0.006837133318185806,0.0024823325220495462
1772462253944242400,7.781242431640625,-0.007369765546172857,0.010142648592591286,0.0009456885163672268
1772462253954290700,7.791290771484375,-0.008964200504124165,0.006193447392433882,0.001064998097717762
1772462253964339500,7.80133935546875,-0.00939270295202732,0.009269132278859615,0.002656503114849329
1772462253974387700,7.8113876953125,-0.008498679846525192,0.0065564364194869995,0.00070520507870242
1772462253984435500,7.821435546875,-0.0070395334623754025,0.005771602503955364,0.002507632365450263
1772462253994483500,7.8314833984375,-0.008862733840942383,0.008942628279328346,0.00038296254933811724
1772462254004531700,7.84153173828125,-0.00990376342087984,0.00794554129242897,-0.0000876179983606562
1772462254014580500,7.85158056640625,-0.00974743627011776,0.0065436530858278275,0.0034080471377819777
1772462254024628700,7.861628662109375,-0.006042179651558399,0.008358331397175789,0.0028999161440879107
1772462254034676500,7.871676513671875,-0.008897354826331139,0.00717508839443326,0.001915878034196794
1772462254044724700,7.881724853515625,-0.009528257884085178,0.00851732213050127,-0.0004524710529949516
1772462254054772700,7.891772705078125,-0.008163387887179852,0.007879228331148624,0.002005360322073102
1772462254064820500,7.901820556640625,-0.008758071810007095,0.007210242096334696,0.0005627259379252791
1772462254074869800,7.911869873046875,-0.009798302315175533,0.007345264777541161,0.0034788872580975294
1772462254084917500,7.92191748046875,-0.007340204436331987,0.006400641519576311,0.0017624800093472004
1772462254094965800,7.9319658203125,-0.008006527088582516,0.009870474226772785,0.0018218684708699584
1772462254105013500,7.942013427734375,-0.007375624496489763,0.008670453913509846,0.001958222361281514
1772462254115061500,7.9520615234375,-0.007325290702283382,0.007616906892508268,0.002847185591235757
1772462254125110500,7.962110595703125,-0.011210576631128788,0.0070704263634979725,0.0020458402577787638
1772462254135158500,7.972158447265625,-0.010034524835646152,0.009195095859467983,0.003518834710121155
1772462254145206800,7.982206787109375,-0.007106112781912088,0.007289338391274214,0.0011472897604107857
1772462254155254500,7.992254638671875,-0.008073639124631882,0.006589725613594055,0.0018128136871382594
1772462254165302500,8.002302490234374,-0.007252586539834738,0.0043473439291119576,0.0024588967207819223
1772462254175351600,8.0123515625,-0.008371912874281406,0.00845819991081953,0.003841609926894307
1772462254185399600,8.022399658203126,-0.008799084462225437,0.006060821935534477,0.0035595810040831566
1772462254195447800,8.03244775390625,-0.008768191561102867,0.00905581284314394,0.002519882982596755
1772462254205495600,8.04249560546875,-0.00791544746607542,0.0070403325371444225,0.0012863067677244544
1772462254215543600,8.05254345703125,-0.006650445982813835,0.005913549102842808,0.00001864212754298933
1772462254225592600,8.062592529296875,-0.0073655047453939915,0.0075753615237772465,0.001654622028581798
1772462254235640600,8.072640625,-0.00689199473708868,0.00782756321132183,0.003605653764680028
1772462254245688600,8.0826884765625,-0.008827047422528267,0.008084824308753014,0.003079679561778903
1772462254255736600,8.092736572265625,-0.007681621704250574,0.00820839498192072,0.0018967032665386796
1772462254265784600,8.10278466796875,-0.007240069564431906,0.008754342794418335,0.0017960357945412397
1772462254275833600,8.11283349609375,-0.009017730131745338,0.00749147217720747,0.0043678502552211285
1772462254285881600,8.122881591796874,-0.008377239108085632,0.005193696822971106,0.00341550400480628
1772462254295929600,8.1329296875,-0.0076153092086315155,0.0075607141479849815,0.000556334329303354
1772462254305977600,8.1429775390625,-0.005257612559944391,0.006334861274808645,0.0017843178939074278
1772462254316025600,8.153025634765624,-0.008637430146336555,0.006323676090687513,0.002883670851588249
1772462254326074600,8.16307470703125,-0.008038219064474106,0.008327438496053219,-0.001112935016863048
1772462254336122600,8.17312255859375,-0.008666458539664745,0.008489890955388546,-0.00013156015484128147
1772462254346170600,8.183170654296875,-0.00986488163471222,0.00782729685306549,0.0004444815858732909
1772462254356218600,8.193218505859376,-0.006857373286038637,0.008794024586677551,-0.00005912217602599412
1772462254366267600,8.203267578125,-0.007649397477507591,0.0037675739731639624,-0.00014141385327093303
1772462254376315600,8.213315673828125,-0.006756173446774483,0.009756756946444511,0.002037318190559745
1772462254386363400,8.22336328125,-0.008036354556679726,0.005857090000063181,0.002043443499132991
1772462254396411600,8.23341162109375,-0.00854688324034214,0.008528240956366062,0.0008162588928826153
1772462254406459600,8.243459716796876,-0.011246529407799244,0.008205199614167213,0.001919340225867927
1772462254416508700,8.2535087890625,-0.008264321833848953,0.008188155479729176,0.004228833597153425
1772462254426556700,8.263556640625,-0.008519984781742096,0.008523447439074516,0.003294063964858651
1772462254436604400,8.2736044921875,-0.007546066772192717,0.0070246197283267975,0.002947852946817875
1772462254446652700,8.283652587890625,-0.007108775898814201,0.009198824875056744,0.0032266860362142324
1772462254456700700,8.29370068359375,-0.00666269613429904,0.009941846132278442,0.0010327738709747791
1772462254466749700,8.303749755859375,-0.007010505069047213,0.011030546389520168,0.0013789847726002336
1772462254476797700,8.313797607421876,-0.009759419597685337,0.007686149328947067,0.002159557305276394
1772462254486845400,8.323845458984374,-0.008026234805583954,0.006389455869793892,0.0016434367280453444
1772462254496893700,8.333893798828125,-0.006207562051713467,0.008886169642210007,-0.0004242415598127991
1772462254506941400,8.34394140625,-0.009031844325363636,0.004281297791749239,0.0011936287628486753
1772462254516990700,8.35399072265625,-0.00942066591233015,0.006187322083860636,0.0014532869681715965
1772462254527038500,8.36403857421875,-0.00830932892858982,0.006130862981081009,0.00003728425508597866
1772462254537086500,8.37408642578125,-0.007951666601002216,0.007768174633383751,0.006750847212970257
1772462254547134700,8.384134765625,-0.010509099811315536,0.007221161387860775,0.002514024032279849
1772462254557182500,8.394182373046876,-0.009046492166817188,0.006502374075353146,0.0017507621087133884
1772462254567230700,8.404230712890625,-0.010062221437692642,0.00675351032987237,0.0018492990639060736
1772462254577279500,8.414279541015626,-0.011212972924113274,0.008556203916668892,0.0038280277512967587
1772462254587327500,8.424327392578125,-0.008359129540622234,0.007898136973381042,0.0032621060963720083
1772462254597375700,8.434375732421875,-0.007896006107330322,0.008465389721095562,0.0005691175465472043
1772462254607423500,8.444423583984374,-0.008440090343356133,0.007438475266098976,0.0015302523970603943
1772462254617472800,8.45447265625,-0.006376673001796007,0.008955944329500198,0.0008391620358452201
1772462254627520500,8.4645205078125,-0.009020392782986164,0.009558351710438728,0.0020929782185703516
1772462254637568800,8.47456884765625,-0.008296279236674309,0.007191333919763565,0.0010745854815468192
1772462254647616500,8.484616455078125,-0.0065503111109137535,0.006851780693978071,0.0006921555614098907
1772462254657664800,8.494664794921874,-0.005637645721435547,0.007540740538388491,0.001886317040771246
1772462254667713500,8.504713623046875,-0.00941880140453577,0.007292001508176327,0.001401089015416801
1772462254677761500,8.514761474609376,-0.008493087254464626,0.008249407634139061,0.002770220162346959
1772462254687809800,8.524809814453125,-0.008815063163638115,0.0073505910113453865,0.0004362257895991206
1772462254697857500,8.534857421875,-0.009101885370910168,0.006618488114327192,0.0034085798542946577
1772462254707905800,8.54490576171875,-0.010016681626439095,0.0070579093880951405,0.00030067088664509356
1772462254717954600,8.55495458984375,-0.00791358295828104,0.007514641620218754,0.0007446198142133653
1772462254728002800,8.5650029296875,-0.007498928811401129,0.006246710661798716,0.0016471651615574956
1772462254738050800,8.57505078125,-0.003823234001174569,0.008926649577915668,0.0018200043123215437
1772462254748098600,8.5850986328125,-0.007407050114125013,0.007202519103884697,0.001976065570488572
1772462254758146800,8.595146728515624,-0.006281598005443811,0.007081345189362764,0.0013283847365528345
1772462254768195600,8.605195556640625,-0.006542587652802467,0.00703900121152401,0.002659432590007782
1772462254778243800,8.615243896484374,-0.006964432541280985,0.007642739452421665,0.001961684552952647
1772462254788291600,8.62529150390625,-0.007890946231782436,0.0075426045805215836,0.000529702752828598
1772462254798339600,8.635339599609376,-0.008795888163149357,0.007965248078107834,0.0023430490400642157
1772462254808387800,8.645387939453125,-0.011205783113837242,0.00660543842241168,0.0027292075101286173
1772462254818436600,8.6554365234375,-0.006454703398048878,0.006133792456239462,0.0004647216119337827
1772462254828484900,8.66548486328125,-0.00938950665295124,0.00947898905724287,0.004126301966607571
1772462254838532600,8.67553271484375,-0.00890880636870861,0.007113569416105747,0.004310592543333769
1772462254848580600,8.68558056640625,-0.008379369974136353,0.006587861571460962,0.0021441110875457525
1772462254858628900,8.69562890625,-0.008222776465117931,0.009022790007293224,0.005279184319078922
1772462254868677600,8.705677734375,-0.0065678879618644714,0.006039250176399946,0.0025960493367165327
1772462254878726000,8.715725830078124,-0.007714645005762577,0.008576709777116776,0.0035475967451930046
1772462254888773600,8.725773681640625,-0.008019843138754368,0.005221659783273935,0.0020221380982548
1772462254898821600,8.735821533203126,-0.009639311581850052,0.007484547793865204,0.0007502124644815922
1772462254908869600,8.74586962890625,-0.00754979532212019,0.005000883713364601,-0.000958205375354737
1772462254918918700,8.755918701171876,-0.008052334189414978,0.007149255834519863,0.00401604687795043
1772462254928966700,8.765966552734374,-0.009358614683151245,0.005622731987386942,0.0014761901693418622
1772462254939014700,8.7760146484375,-0.007978297770023346,0.007454453967511654,-0.00014221279707271606
1772462254949062700,8.786062744140626,-0.009077117778360844,0.0060019660741090775,0.003261040663346648
1772462254959110700,8.796110595703125,-0.009291502647101879,0.0068448567762970924,0.002326271263882518
1772462254969159700,8.80615966796875,-0.012241486459970474,0.007240069564431906,0.0003217098710592836
1772462254979207700,8.816207763671875,-0.0070552462711930275,0.006776413414627314,0.0022807312197983265
1772462254989255700,8.826255615234375,-0.008822786621749401,0.007167631760239601,0.000015180017726379447
1772462254999303700,8.8363037109375,-0.0059721386060118675,0.006941795814782381,0.0024836640805006027
1772462255009351700,8.8463515625,-0.008129565045237541,0.006897054612636566,0.0019867182709276676
1772462255019400700,8.856400634765626,-0.007803061977028847,0.005842176266014576,0.000862864195369184
1772462255029448700,8.86644873046875,-0.010566357523202896,0.008477107621729374,0.0006767092272639275
1772462255039496700,8.87649658203125,-0.007218498270958662,0.007774299941956997,0.0024610271211713552
1772462255049544400,8.88654443359375,-0.006703442893922329,0.009243299253284931,0.0011440940434113145
1772462255059593700,8.89659375,-0.007918110117316246,0.00863343570381403,0.002216282533481717
1772462255069641500,8.906641357421876,-0.007690676487982273,0.005119394510984421,0.001680720946751535
1772462255079689700,8.916689697265625,-0.008012918755412102,0.007990814745426178,-0.000401604687795043
1772462255089737700,8.92673779296875,-0.008316519670188427,0.004151601810008287,0.0030985879711806774
1772462255099785500,8.936785400390624,-0.006639793049544096,0.0079173119738698,0.0024913870729506016
1772462255109834800,8.946834716796875,-0.007320763543248177,0.008472846820950508,0.002666356973350048
1772462255119882500,8.956882568359376,-0.008291219361126423,0.009388175792992115,0.0021976404823362827
1772462255129930800,8.9669306640625,-0.01025849673897028,0.004511927254498005,0.002263420494273305
1772462255139978800,8.976978759765625,-0.011069162748754025,0.00631888210773468,0.0016591493040323257
1772462255150026500,8.987026611328124,-0.00894076470285654,0.006327670533210039,0.002487392397597432
1772462255160075800,8.99707568359375,-0.0062858592718839645,0.008403871208429337,0.0015624766238033772
1772462255170123500,9.00712353515625,-0.008591623976826668,0.008356200531125069,0.0024549018125981092
1772462255180171800,9.017171875,-0.008917062543332577,0.007456318475306034,0.0030458574183285236
1772462255190219500,9.027219482421875,-0.008895756676793098,0.010095244273543358,0.003739078063517809
1772462255200267800,9.037267822265624,-0.006475209724158049,0.006451241206377745,0.000675377668812871
1772462255210316500,9.047316650390625,-0.009545302018523216,0.009498963132500648,0.0010223875287920237
1772462255220364500,9.057364501953124,-0.008006260730326176,0.006665891967713833,0.0031968585681170225
1772462255230412800,9.067412841796875,-0.007833688519895077,0.0067628310061991215,0.003884752979502082
1772462255240460500,9.07746044921875,-0.01011069118976593,0.010006827302277088,0.0022951122373342514
1772462255250508800,9.0875087890625,-0.007233145646750927,0.006844324059784412,0.002811232814565301
1772462255260557600,9.0975576171875,-0.007696801796555519,0.0075487298890948296,0.0033358754590153694
1772462255270605600,9.10760546875,-0.00800439715385437,0.00583711639046669,0.0028503811918199062
1772462255280653800,9.11765380859375,-0.008393751457333565,0.008956477046012878,0.003085538512095809
1772462255290701600,9.12770166015625,-0.008861934766173363,0.007006776984781027,0.0011448930017650127
1772462255300749800,9.137749755859375,-0.007128749508410692,0.010057161562144756,0.002353435382246971
1772462255310798600,9.147798583984375,-0.007312507834285498,0.010777546092867851,0.000055393749789800495
1772462255320846600,9.1578466796875,-0.0073143718764185905,0.00788322277367115,0.00007137271313695237
1772462255330894600,9.16789453125,-0.006010488141328096,0.007877363823354244,0.00236222380772233
1772462255340942600,9.177942626953126,-0.008934905752539635,0.00640703272074461,0.0006788397440686822
1772462255350990800,9.187990966796875,-0.008564460091292858,0.009224124252796173,0.0010634001810103655
1772462255361039600,9.19803955078125,-0.007708519697189331,0.008735168725252151,0.003757187630981207
1772462255371088000,9.208087890625,-0.007562045939266682,0.008666192181408405,0.0041366880759596825
1772462255381135600,9.218135498046875,-0.007672833278775215,0.00692022405564785,0.002947586588561535
1772462255391183600,9.22818359375,-0.00782410055398941,0.00962679460644722,-0.0005158542771823704
1772462255401232600,9.238232666015625,-0.00884861871600151,0.008708270266652107,0.0016554208705201745
1772462255411280600,9.24828076171875,-0.006412093061953783,0.007479487918317318,0.0035262915771454573
1772462255421329000,9.258328857421875,-0.009730391204357147,0.0067513794638216496,0.000934236915782094
1772462255431376600,9.268376708984375,-0.007426757365465164,0.007239536847919226,0.0016397082945331931
1772462255441424600,9.278424560546876,-0.0089953588321805,0.006973487325012684,0.003224022686481476
1772462255451473700,9.2884736328125,-0.010057960636913776,0.007391870021820068,0.00138058268930763
1772462255461521700,9.298521728515626,-0.008282696828246117,0.009844907559454441,0.0004386226355563849
1772462255471569700,9.308569580078125,-0.0059958407655358315,0.0062605589628219604,0.0020149475894868374
1772462255481617700,9.31861767578125,-0.006442452780902386,0.008491755463182926,0.0035507925786077976
1772462255491665700,9.328665771484374,-0.008616125211119652,0.007450725883245468,0.0032554480712860823
1772462255501714700,9.338714599609375,-0.0062517705373466015,0.009329053573310375,0.003754258155822754
1772462255511762700,9.3487626953125,-0.008188687264919281,0.007435812149196863,0.0034229608718305826
1772462255521810700,9.358810791015625,-0.007426491007208824,0.006968161091208458,0.000687361869495362
1772462255531858700,9.368858642578125,-0.010093647055327892,0.011009507812559605,0.004218180663883686
1772462255541906700,9.37890673828125,-0.009081645868718624,0.007361509837210178,0.001689775730483234
1772462255551955700,9.388955810546875,-0.009021191857755184,0.006302370689809322,0.001386707997880876
1772462255562003700,9.399003662109376,-0.00996182020753622,0.0060059609822928905,0.0023992417845875025
1772462255572051700,9.4090517578125,-0.007666707970201969,0.008883506059646606,0.0029585056472569704
1772462255582099700,9.419099609375,-0.009333048015832901,0.006301305256783962,0.000022370553779182956
1772462255592147700,9.429147705078124,-0.00845606904476881,0.008136223070323467,0.0004487426485866308
1772462255602196700,9.43919677734375,-0.008854477666318417,0.006639793049544096,0.002481533447280526
1772462255612244500,9.449244384765626,-0.006072007119655609,0.008400674909353256,0.005152151454240084
1772462255622293800,9.459293701171875,-0.010004164651036263,0.00875913631170988,0.0029473204631358385
1772462255632341500,9.469341552734376,-0.009378321468830109,0.009195628575980663,0.0028943235520273447
1772462255642389800,9.4793896484375,-0.009074987843632698,0.008351673372089863,0.002737463219091296
1772462255652438500,9.4894384765625,-0.009060606360435486,0.006659500766545534,0.004583832807838917
1772462255662486800,9.49948681640625,-0.007425691932439804,0.007021424360573292,0.0028093685396015644
1772462255672534800,9.50953466796875,-0.007498662453144789,0.007114368490874767,0.0024168186355382204
1772462255682582500,9.51958251953125,-0.00815033819526434,0.007104248274117708,0.0034194989129900932
1772462255692630800,9.529630859375,-0.009944776073098183,0.007385478354990482,0.0025837989524006844
1772462255702679600,9.539679443359375,-0.00920255295932293,0.003976898267865181,0.0009600695921108127
1772462255712727800,9.549727783203124,-0.008465656079351902,0.004809935111552477,0.0014863101532682776
1772462255722775800,9.55977587890625,-0.009289638139307499,0.007119162008166313,0.004283694550395012
1772462255732823600,9.569823486328126,-0.00908723846077919,0.00809068325906992,0.002749447477981448
1772462255742872800,9.579872802734375,-0.0073628416284918785,0.006107427179813385,0.001178182428702712
