time,seconds_elapsed,z,y,x
1772537136959988200,0.06698828125,-0.8792724609375,-0.06622314453125,-0.1964874267578125
1772537136970036200,0.0770361328125,-0.8614654541015625,-0.07037353515625,-0.1751861572265625
1772537136980085200,0.087085205078125,-0.9357757568359375,-0.0847625732421875,-0.1602325439453125
1772537136990133200,0.09713330078125,-0.9983978271484375,-0.0727691650390625,-0.1681060791015625
1772537137000181200,0.10718115234375,-0.9896697998046875,-0.0039215087890625,-0.1191253662109375
1772537137010230000,0.11722998046875,-0.9471435546875,0.0889739990234375,-0.03692626953125
1772537137020278300,0.1272783203125,-0.9584197998046875,0.0593719482421875,-0.1160430908203125
1772537137030326000,0.137325927734375,-0.9030609130859375,0.0120849609375,-0.1280975341796875
1772537137040375300,0.147375244140625,-0.844818115234375,-0.0965728759765625,-0.175750732421875
1772537137050423000,0.157423095703125,-0.8112945556640625,-0.1950531005859375,-0.2303009033203125
1772537137060471000,0.167470947265625,-0.8074951171875,-0.241363525390625,-0.2643585205078125
1772537137070519800,0.177519775390625,-0.83233642578125,-0.245849609375,-0.2650909423828125
1772537137080567800,0.18756787109375,-0.85101318359375,-0.19232177734375,-0.21868896484375
1772537137090616000,0.197615966796875,-0.85614013671875,-0.11297607421875,-0.1520538330078125
1772537137100664800,0.207664794921875,-0.846923828125,-0.06597900390625,-0.124908447265625
1772537137110713000,0.217713134765625,-0.85845947265625,-0.056488037109375,-0.137420654296875
1772537137120760800,0.2277607421875,-1.076904296875,-0.0272369384765625,-0.1250152587890625
1772537137130810000,0.23781005859375,-0.9063873291015625,-0.01861572265625,-0.10546875
1772537137140857900,0.24785791015625,-0.83709716796875,-0.032958984375,-0.1021728515625
1772537137150905900,0.25790576171875,-0.7899322509765625,-0.0283660888671875,-0.1186370849609375
1772537137160955000,0.267954833984375,-0.68939208984375,-0.053070068359375,-0.1299591064453125
1772537137171003000,0.2780029296875,-0.61810302734375,-0.0719757080078125,-0.1371002197265625
1772537137181051100,0.288051025390625,-0.6067047119140625,-0.0679779052734375,-0.117889404296875
1772537137191100000,0.298099853515625,-0.5552825927734375,-0.08056640625,-0.118988037109375
1772537137201148200,0.308148193359375,-0.51348876953125,-0.1278533935546875,-0.1651763916015625
1772537137211196000,0.31819580078125,-0.5134735107421875,-0.17578125,-0.1982269287109375
1772537137221245000,0.328244873046875,-0.557525634765625,-0.1991119384765625,-0.1939239501953125
1772537137231293000,0.33829296875,-0.6244964599609375,-0.21142578125,-0.1707305908203125
1772537137241341000,0.3483408203125,-0.723297119140625,-0.2297210693359375,-0.1420135498046875
1772537137251390000,0.358389892578125,-0.8423309326171875,-0.2429962158203125,-0.126190185546875
1772537137261438000,0.36843798828125,-0.908538818359375,-0.225433349609375,-0.089080810546875
1772537137271486000,0.37848583984375,-0.9234466552734375,-0.2129364013671875,-0.0243988037109375
1772537137281535000,0.388534912109375,-0.98358154296875,-0.2246246337890625,0.01678466796875
1772537137291582700,0.398582763671875,-1.0688323974609375,-0.25860595703125,0.039093017578125
1772537137301631000,0.408630859375,-1.1651458740234375,-0.316497802734375,0.0443878173828125
1772537137311679700,0.4186796875,-1.2317962646484375,-0.367431640625,0.0244903564453125
1772537137321728000,0.42872802734375,-1.28302001953125,-0.3719482421875,-0.00555419921875
1772537137331776000,0.43877587890625,-1.341400146484375,-0.354034423828125,-0.044219970703125
1772537137341825000,0.448824951171875,-1.3886260986328125,-0.3301544189453125,-0.083587646484375
1772537137351873000,0.458873046875,-1.4423980712890625,-0.310882568359375,-0.1176605224609375
1772537137361920800,0.468920654296875,-1.5333099365234375,-0.2992095947265625,-0.1433563232421875
1772537137371970000,0.478969970703125,-1.617950439453125,-0.2824554443359375,-0.166839599609375
1772537137382017800,0.489017822265625,-1.6883392333984375,-0.2480926513671875,-0.18157958984375
1772537137392066000,0.499066162109375,-1.749725341796875,-0.2064056396484375,-0.1576385498046875
1772537137402114800,0.50911474609375,-1.8031463623046875,-0.176239013671875,-0.10198974609375
1772537137412163000,0.5191630859375,-1.853912353515625,-0.171600341796875,-0.0570068359375
1772537137422210800,0.5292109375,-1.9056396484375,-0.180511474609375,-0.0371246337890625
1772537137432260000,0.539260009765625,-1.9542694091796875,-0.17193603515625,-0.01043701171875
1772537137442307800,0.549307861328125,-1.9940032958984375,-0.139251708984375,0.0070037841796875
1772537137452355800,0.55935595703125,-1.9962615966796875,-0.0871734619140625,-0.0063323974609375
1772537137462404900,0.56940478515625,-1.924560546875,-0.006500244140625,-0.0240631103515625
1772537137472452900,0.579452880859375,-1.8025360107421875,0.0810699462890625,-0.042633056640625
1772537137482501000,0.589501220703125,-1.676513671875,0.1649932861328125,-0.04766845703125
1772537137492550000,0.5995498046875,-1.5522918701171875,0.2360992431640625,-0.049346923828125
1772537137502598000,0.609597900390625,-1.4003448486328125,0.2948455810546875,-0.062225341796875
1772537137512646000,0.61964599609375,-1.257781982421875,0.32745361328125,-0.08782958984375
1772537137522695000,0.62969482421875,-1.15069580078125,0.320709228515625,-0.1077880859375
1772537137532743000,0.639742919921875,-1.0859832763671875,0.316253662109375,-0.0797576904296875
1772537137542791000,0.649791015625,-1.0775146484375,0.314971923828125,-0.056427001953125
1772537137552840000,0.65983984375,-1.0625762939453125,0.2839202880859375,-0.0485992431640625
1772537137562888000,0.669887939453125,-1.0052642822265625,0.2510833740234375,-0.046173095703125
1772537137572936000,0.67993603515625,-0.858489990234375,0.23553466796875,-0.03662109375
1772537137582985000,0.68998486328125,-0.66326904296875,0.20379638671875,-0.0464935302734375
1772537137593033000,0.700032958984375,-0.47662353515625,0.1554412841796875,-0.072540283203125
1772537137603081000,0.7100810546875,-0.316314697265625,0.10369873046875,-0.07861328125
1772537137613129700,0.720129638671875,-0.181793212890625,0.0782318115234375,-0.0565948486328125
1772537137623178000,0.730177978515625,-0.0766448974609375,0.0535888671875,-0.0233917236328125
1772537137633226000,0.74022607421875,0.0157623291015625,0.008544921875,-0.0187530517578125
1772537137643275000,0.75027490234375,0.09307861328125,-0.0422210693359375,-0.052642822265625
1772537137653323000,0.760322998046875,0.1554718017578125,-0.0811767578125,-0.0796051025390625
1772537137663370800,0.770370849609375,0.2129974365234375,-0.103973388671875,-0.0880889892578125
1772537137673420000,0.780419921875,0.2265777587890625,-0.102630615234375,-0.092071533203125
1772537137683467800,0.7904677734375,0.221527099609375,-0.0760040283203125,-0.0926971435546875
1772537137693516000,0.80051611328125,0.2254180908203125,-0.0430755615234375,-0.0854339599609375
1772537137703564800,0.810564697265625,0.2289581298828125,0.0043182373046875,-0.0821380615234375
1772537137713613000,0.820613037109375,0.2555999755859375,0.030487060546875,-0.08148193359375
1772537137723661000,0.8306611328125,0.293121337890625,0.004974365234375,-0.0958709716796875
1772537137733708800,0.840708740234375,0.2930755615234375,-0.0421600341796875,-0.1124420166015625
1772537137743758000,0.850758056640625,0.226654052734375,-0.113739013671875,-0.11834716796875
1772537137753805800,0.860805908203125,0.0728759765625,-0.196044921875,-0.1180572509765625
1772537137763855000,0.870855224609375,-0.2111053466796875,-0.2570037841796875,-0.082122802734375
1772537137773902800,0.88090283203125,-0.5376129150390625,-0.2698822021484375,0.00860595703125
1772537137783951000,0.890951171875,-0.83355712890625,-0.2535858154296875,0.1035919189453125
1772537137793998800,0.900998779296875,-1.0705413818359375,-0.228546142578125,0.2069244384765625
1772537137804048000,0.9110478515625,-1.2885284423828125,-0.197235107421875,0.2406005859375
1772537137814096000,0.921095947265625,-1.4525604248046875,-0.1564178466796875,0.1588287353515625
1772537137824145000,0.931144775390625,-1.5308380126953125,-0.0967254638671875,0.0054473876953125
1772537137834193000,0.94119287109375,-1.5778350830078125,-0.009033203125,-0.12811279296875
1772537137844241000,0.951240966796875,-1.6320648193359375,0.0416259765625,-0.16058349609375
1772537137854289000,0.961288818359375,-1.804290771484375,0.0387725830078125,-0.1099700927734375
1772537137864338000,0.971337890625,-2.0836944580078125,0.019744873046875,-0.0873260498046875
1772537137874386000,0.981385986328125,-2.31683349609375,-0.0091552734375,-0.0951995849609375
1772537137884434000,0.991433837890625,-2.3756256103515625,-0.062530517578125,-0.0965728759765625
1772537137894483000,1.00148291015625,-2.37432861328125,-0.1172332763671875,-0.0408477783203125
1772537137904531000,1.011531005859375,-2.443634033203125,-0.1585235595703125,0.03173828125
1772537137914579000,1.021578857421875,-2.53424072265625,-0.1802520751953125,0.082183837890625
1772537137924628000,1.0316279296875,-2.57183837890625,-0.2063140869140625,0.1364593505859375
1772537137934676000,1.041676025390625,-2.509063720703125,-0.2174072265625,0.1481475830078125
1772537137944724000,1.051723876953125,-2.3174591064453125,-0.1885528564453125,0.120086669921875
1772537137954773000,1.06177294921875,-2.107696533203125,-0.130828857421875,0.0701904296875
1772537137964820700,1.07182080078125,-1.9269866943359375,-0.04595947265625,0.0302581787109375
1772537137974869000,1.081868896484375,-1.794586181640625,0.0482940673828125,0.0038299560546875
1772537137984917800,1.091917724609375,-1.6870269775390625,0.148468017578125,-0.0361480712890625
1772537137994966000,1.101966064453125,-1.5537567138671875,0.2284088134765625,-0.114227294921875
1772537138005014000,1.112013916015625,-1.3590087890625,0.2688140869140625,-0.1829681396484375
1772537138015062800,1.122062744140625,-1.208404541015625,0.317230224609375,-0.2253265380859375
1772537138025111000,1.132111083984375,-1.10028076171875,0.3432159423828125,-0.2634124755859375
1772537138035158800,1.14215869140625,-0.969970703125,0.347686767578125,-0.25238037109375
1772537138045208000,1.1522080078125,-0.77191162109375,0.3153839111328125,-0.230316162109375
1772537138055255800,1.162255859375,-0.5714569091796875,0.22589111328125,-0.231231689453125
1772537138065304000,1.172303955078125,-0.4259490966796875,0.11395263671875,-0.2164154052734375
1772537138075356400,1.1823564453125,-0.321746826171875,0.043548583984375,-0.1703643798828125
1772537138085404700,1.19240478515625,-0.2121429443359375,-0.0050811767578125,-0.1054840087890625
1772537138095452700,1.20245263671875,-0.1138916015625,-0.0533905029296875,-0.0538482666015625
1772537138105501700,1.212501708984375,-0.004150390625,-0.082122802734375,-0.022430419921875
1772537138115549400,1.222549560546875,0.10894775390625,-0.096710205078125,-0.0169677734375
1772537138125597400,1.232597412109375,0.196044921875,-0.0994415283203125,-0.030914306640625
1772537138135646500,1.242646484375,0.2762298583984375,-0.0794525146484375,-0.03155517578125
1772537138145694500,1.252694580078125,0.316741943359375,-0.0474700927734375,-0.0286407470703125
1772537138155742700,1.26274267578125,0.3362884521484375,-0.0102386474609375,-0.0176544189453125
1772537138165791500,1.27279150390625,0.3344573974609375,0.02484130859375,0.002166748046875
1772537138175839700,1.28283984375,0.3161773681640625,0.044219970703125,0.022186279296875
1772537138185887500,1.292887451171875,0.29144287109375,0.05120849609375,0.0451202392578125
1772537138195936500,1.3029365234375,0.2366943359375,0.0384521484375,0.0412750244140625
1772537138205984500,1.312984619140625,0.198272705078125,0.0119781494140625,0.01593017578125
1772537138216032500,1.323032470703125,0.143585205078125,-0.021484375,-0.0193023681640625
1772537138226081500,1.33308154296875,0.03662109375,-0.056732177734375,-0.054412841796875
1772537138236129500,1.343129638671875,-0.1041412353515625,-0.09796142578125,-0.034210205078125
1772537138246177500,1.353177490234375,-0.28851318359375,-0.1673126220703125,-0.012481689453125
1772537138256226600,1.3632265625,-0.491943359375,-0.26239013671875,-0.009521484375
1772537138266274600,1.373274658203125,-0.706878662109375,-0.35498046875,-0.014434814453125
1772537138276322600,1.383322509765625,-0.9496917724609375,-0.3647918701171875,0.004638671875
1772537138286371600,1.39337158203125,-1.2393646240234375,-0.3069915771484375,0.057525634765625
1772537138296419600,1.403419677734375,-1.5287017822265625,-0.2190399169921875,0.0951385498046875
1772537138306467600,1.413467529296875,-1.7429656982421875,-0.1244049072265625,0.0597381591796875
1772537138316516600,1.4235166015625,-1.8359222412109375,-0.059173583984375,-0.056304931640625
1772537138326564600,1.433564697265625,-1.87994384765625,-0.033111572265625,-0.195953369140625
1772537138336612400,1.4436123046875,-1.956756591796875,-0.0777435302734375,-0.3030548095703125
1772537138346661600,1.45366162109375,-2.0686492919921875,-0.1388092041015625,-0.3263092041015625
1772537138356709400,1.46370947265625,-2.170928955078125,-0.196685791015625,-0.3033294677734375
1772537138366757600,1.473757568359375,-2.1883087158203125,-0.2613067626953125,-0.2429656982421875
1772537138376806400,1.483806396484375,-2.22076416015625,-0.322113037109375,-0.1244049072265625
1772537138386854700,1.493854736328125,-2.2994384765625,-0.38201904296875,-0.01873779296875
1772537138396902700,1.503902587890625,-2.3455047607421875,-0.423736572265625,0.060211181640625
1772537138406951700,1.51395166015625,-2.3371734619140625,-0.4470977783203125,0.13482666015625
1772537138416999700,1.523999755859375,-2.2810821533203125,-0.4670562744140625,0.181243896484375
1772537138427047400,1.53404736328125,-2.206939697265625,-0.480712890625,0.1542816162109375
1772537138437096700,1.5440966796875,-2.1103668212890625,-0.4521942138671875,0.0402984619140625
1772537138447144400,1.55414453125,-1.9809722900390625,-0.377532958984375,-0.058807373046875
1772537138457192700,1.564192626953125,-1.848236083984375,-0.284423828125,-0.1492767333984375
1772537138467240400,1.574240478515625,-1.6999969482421875,-0.1626739501953125,-0.22882080078125
1772537138477289500,1.58428955078125,-1.5915985107421875,-0.0194549560546875,-0.2676849365234375
1772537138487337500,1.59433740234375,-1.5481414794921875,0.132110595703125,-0.290313720703125
1772537138497385500,1.604385498046875,-1.50665283203125,0.259521484375,-0.299774169921875
1772537138507434500,1.6144345703125,-1.4288330078125,0.3844451904296875,-0.269989013671875
1772537138517482500,1.624482421875,-1.3182830810546875,0.4654083251953125,-0.25970458984375
1772537138527530500,1.634530517578125,-1.17822265625,0.500152587890625,-0.2426910400390625
1772537138537579500,1.64457958984375,-1.0201416015625,0.4719085693359375,-0.2307586669921875
1772537138547627500,1.65462744140625,-0.8330078125,0.3867034912109375,-0.2403717041015625
1772537138557675500,1.664675537109375,-0.65191650390625,0.299041748046875,-0.232269287109375
1772537138567724500,1.674724609375,-0.47113037109375,0.217620849609375,-0.210174560546875
1772537138577772500,1.6847724609375,-0.3219451904296875,0.1412506103515625,-0.1811370849609375
1772537138587820500,1.694820556640625,-0.2019805908203125,0.0691070556640625,-0.1389923095703125
1772537138597869600,1.70486962890625,-0.091461181640625,0.03802490234375,-0.0772705078125
1772537138607917600,1.71491748046875,0.0161285400390625,0.0353851318359375,-0.0148162841796875
1772537138617965600,1.724965576171875,0.135162353515625,0.0216522216796875,0.0068359375
1772537138628014600,1.7350146484375,0.2501220703125,0.0043792724609375,0.0180816650390625
1772537138638062600,1.7450625,0.307373046875,-0.000579833984375,0.01519775390625
1772537138648110600,1.755110595703125,0.351043701171875,-0.0059356689453125,0.005401611328125
1772537138658159600,1.76515966796875,0.3935546875,-0.0052947998046875,0.005126953125
1772537138668207600,1.77520751953125,0.4312896728515625,0.012176513671875,0.01300048828125
1772537138678255600,1.785255615234375,0.4360504150390625,0.008453369140625,0.0262451171875
1772537138688304600,1.7953046875,0.3957977294921875,-0.005615234375,0.0397491455078125
1772537138698352600,1.8053525390625,0.3573455810546875,-0.01031494140625,0.0625762939453125
1772537138708400400,1.815400390625,0.3027191162109375,-0.0281829833984375,0.096527099609375
1772537138718449700,1.82544970703125,0.2232666015625,-0.0658416748046875,0.12762451171875
1772537138728497400,1.835497314453125,0.117340087890625,-0.1292877197265625,0.1288604736328125
1772537138738545700,1.845545654296875,-0.0247802734375,-0.210205078125,0.094696044921875
1772537138748594400,1.855594482421875,-0.230987548828125,-0.289520263671875,0.0677032470703125
1772537138758642400,1.865642333984375,-0.51043701171875,-0.3442535400390625,0.0683441162109375
1772537138768690700,1.875690673828125,-0.784454345703125,-0.3898468017578125,0.0797576904296875
1772537138778739500,1.885739501953125,-1.026336669921875,-0.4290008544921875,0.102325439453125
1772537138788787700,1.89578759765625,-1.2865753173828125,-0.4345550537109375,0.0903167724609375
1772537138798835500,1.90583544921875,-1.541229248046875,-0.4081878662109375,0.0442962646484375
1772537138808884700,1.915884765625,-1.7342529296875,-0.293609619140625,-0.0398406982421875
1772537138818932500,1.925932373046875,-1.8861846923828125,-0.1249237060546875,-0.147735595703125
1772537138828980500,1.93598046875,-1.920745849609375,-0.06634521484375,-0.2616119384765625
1772537138839029500,1.946029541015625,-1.9320831298828125,-0.0826263427734375,-0.326019287109375
1772537138849077500,1.956077392578125,-2.080322265625,-0.0886383056640625,-0.3402252197265625
1772537138859125500,1.96612548828125,-2.266082763671875,-0.0938262939453125,-0.343231201171875
1772537138869174500,1.976174560546875,-2.3112945556640625,-0.1273956298828125,-0.3613128662109375
1772537138879222500,1.986222412109375,-2.2646636962890625,-0.143646240234375,-0.349609375
1772537138889270500,1.9962705078125,-2.2175445556640625,-0.14215087890625,-0.28729248046875
1772537138899319600,2.006319580078125,-2.1992645263671875,-0.1813812255859375,-0.2210845947265625
1772537138909367600,2.016367431640625,-2.203826904296875,-0.2419281005859375,-0.19244384765625
1772537138919415600,2.02641552734375,-2.1879730224609375,-0.2850189208984375,-0.1362152099609375
1772537138929464600,2.036464599609375,-2.156982421875,-0.324249267578125,-0.0799560546875
1772537138939512600,2.0465126953125,-2.1055908203125,-0.3560638427734375,-0.0491790771484375
1772537138949560600,2.056560546875,-2.0089874267578125,-0.356781005859375,-0.0553741455078125
1772537138959609600,2.066609619140625,-1.88275146484375,-0.309112548828125,-0.0885162353515625
1772537138969657600,2.07665771484375,-1.746246337890625,-0.2158203125,-0.122711181640625
1772537138979705600,2.08670556640625,-1.6098175048828125,-0.092376708984375,-0.15411376953125
1772537138989754400,2.09675439453125,-1.473358154296875,0.0355224609375,-0.163238525390625
1772537138999802600,2.106802734375,-1.3411102294921875,0.1363067626953125,-0.15679931640625
1772537139009850600,2.1168505859375,-1.2488861083984375,0.1865997314453125,-0.15423583984375
1772537139019899600,2.126899658203125,-1.181396484375,0.19329833984375,-0.1411590576171875
1772537139029947400,2.136947509765625,-1.11480712890625,0.1863250732421875,-0.1238250732421875
1772537139039995400,2.146995361328125,-0.9901275634765625,0.1750030517578125,-0.11370849609375
1772537139050044400,2.15704443359375,-0.8299407958984375,0.1445465087890625,-0.128662109375
1772537139060092400,2.167092529296875,-0.6772308349609375,0.1192169189453125,-0.123870849609375
1772537139070136800,2.17713671875,-0.5669708251953125,0.102142333984375,-0.1207275390625
1772537139080185900,2.187185791015625,-0.4844818115234375,0.078643798828125,-0.1295623779296875
1772537139090233900,2.19723388671875,-0.396636962890625,0.0769195556640625,-0.125946044921875
1772537139100281600,2.207281494140625,-0.2858428955078125,0.082672119140625,-0.1201019287109375
1772537139110329900,2.217329833984375,-0.159698486328125,0.0901641845703125,-0.1095733642578125
1772537139120378600,2.227378662109375,-0.041656494140625,0.0798187255859375,-0.094024658203125
1772537139130427000,2.237427001953125,0.042083740234375,0.0434112548828125,-0.0944366455078125
1772537139140475000,2.247474853515625,0.1072845458984375,0.0149993896484375,-0.0834197998046875
1772537139150524000,2.25752392578125,0.1622467041015625,0.00054931640625,-0.0578460693359375
1772537139160572000,2.267572021484375,0.2295379638671875,-0.0115814208984375,-0.0311126708984375
1772537139170619600,2.27761962890625,0.2960052490234375,-0.0203704833984375,-0.005218505859375
1772537139180669000,2.2876689453125,0.327667236328125,-0.02239990234375,0.009521484375
1772537139190716700,2.297716552734375,0.3393402099609375,-0.029296875,0.0229644775390625
1772537139200765000,2.307764892578125,0.352325439453125,-0.04833984375,0.04071044921875
1772537139210813700,2.317813720703125,0.332275390625,-0.0534210205078125,0.06182861328125
1772537139220862000,2.327862060546875,0.2733001708984375,-0.0689849853515625,0.0618743896484375
1772537139230910000,2.337909912109375,0.2167510986328125,-0.1279296875,0.053985595703125
1772537139240958700,2.347958740234375,0.147186279296875,-0.1799468994140625,0.0361328125
1772537139251006700,2.3580068359375,0.0536651611328125,-0.1976165771484375,0.0071563720703125
1772537139261054700,2.3680546875,-0.087127685546875,-0.20001220703125,-0.0099334716796875
1772537139271103700,2.378103759765625,-0.2871551513671875,-0.1991729736328125,0.0234527587890625
1772537139281151700,2.38815185546875,-0.57012939453125,-0.22418212890625,0.059173583984375
1772537139291199700,2.39819970703125,-0.9237518310546875,-0.2891693115234375,0.06884765625
1772537139301248800,2.408248779296875,-1.2185211181640625,-0.344512939453125,0.0696563720703125
1772537139311296800,2.418296875,-1.4721221923828125,-0.3121185302734375,0.0716400146484375
1772537139321344800,2.4283447265625,-1.6978302001953125,-0.2171478271484375,0.0434112548828125
1772537139331393800,2.438393798828125,-1.8694610595703125,-0.1746826171875,-0.029998779296875
1772537139341441800,2.44844189453125,-2.0198516845703125,-0.2138214111328125,-0.12005615234375
1772537139351489800,2.45848974609375,-2.18389892578125,-0.2281341552734375,-0.1467742919921875
1772537139361538800,2.468538818359375,-2.3297119140625,-0.19537353515625,-0.12322998046875
1772537139371586800,2.4785869140625,-2.4158477783203125,-0.205047607421875,-0.1481781005859375
1772537139381634800,2.488634765625,-2.4354705810546875,-0.2128448486328125,-0.1663055419921875
1772537139391683800,2.498683837890625,-2.450347900390625,-0.1718902587890625,-0.1287689208984375
1772537139401731800,2.50873193359375,-2.427947998046875,-0.132080078125,-0.1060943603515625
1772537139411779800,2.51877978515625,-2.3310089111328125,-0.137939453125,-0.123443603515625
1772537139421828900,2.528828857421875,-2.21026611328125,-0.1607208251953125,-0.1260986328125
1772537139431876900,2.538876953125,-2.084503173828125,-0.2036895751953125,-0.120880126953125
1772537139441924900,2.5489248046875,-1.99652099609375,-0.2553863525390625,-0.1019744873046875
1772537139451974000,2.558973876953125,-1.9371185302734375,-0.2964019775390625,-0.07733154296875
1772537139462022000,2.56902197265625,-1.8966522216796875,-0.322479248046875,-0.0545806884765625
1772537139472069600,2.579069580078125,-1.8582305908203125,-0.3143157958984375,-0.04046630859375
1772537139482119000,2.589118896484375,-1.8202362060546875,-0.2681884765625,-0.0208587646484375
1772537139492166700,2.599166748046875,-1.7533416748046875,-0.21551513671875,-0.013580322265625
1772537139502215000,2.60921484375,-1.6492767333984375,-0.146148681640625,-0.0131072998046875
1772537139512263700,2.619263671875,-1.5160980224609375,-0.058837890625,-0.0297393798828125
1772537139522311700,2.629311767578125,-1.3445587158203125,-0.0076446533203125,-0.0605926513671875
1772537139532360000,2.63935986328125,-1.1778411865234375,0.01556396484375,-0.096923828125
1772537139542408700,2.64940869140625,-1.044097900390625,0.0334930419921875,-0.1345672607421875
1772537139552457000,2.65945703125,-0.927337646484375,0.0486602783203125,-0.164306640625
1772537139562504700,2.669504638671875,-0.829345703125,0.06378173828125,-0.1736297607421875
1772537139572554000,2.679553955078125,-0.7577667236328125,0.0814666748046875,-0.1656494140625
1772537139582601700,2.689601806640625,-0.6844482421875,0.097564697265625,-0.1553955078125
1772537139592649700,2.699649658203125,-0.5967864990234375,0.0994110107421875,-0.1559906005859375
1772537139602698800,2.70969873046875,-0.5030975341796875,0.1118011474609375,-0.15289306640625
1772537139612746800,2.719746826171875,-0.3832855224609375,0.1307525634765625,-0.1546173095703125
1772537139622794800,2.729794677734375,-0.24798583984375,0.1435546875,-0.151336669921875
1772537139632843800,2.73984375,-0.14031982421875,0.1441192626953125,-0.130584716796875
1772537139642891800,2.749891845703125,-0.0654754638671875,0.1315155029296875,-0.106292724609375
1772537139652939800,2.759939697265625,0.0011749267578125,0.1036224365234375,-0.08953857421875
1772537139662988800,2.76998876953125,0.065704345703125,0.066192626953125,-0.0719146728515625
1772537139673036800,2.780036865234375,0.132781982421875,0.03302001953125,-0.05950927734375
1772537139683084800,2.790084716796875,0.1880950927734375,0.0010833740234375,-0.0421142578125
1772537139693132800,2.8001328125,0.21881103515625,-0.031097412109375,-0.0264892578125
1772537139703181800,2.810181884765625,0.2411651611328125,-0.0540618896484375,-0.0089569091796875
1772537139713229800,2.820229736328125,0.2609100341796875,-0.072357177734375,0.0020599365234375
1772537139723277800,2.83027783203125,0.255523681640625,-0.070281982421875,0.016357421875
1772537139733326800,2.840326904296875,0.2174835205078125,-0.0615997314453125,0.034881591796875
1772537139743374800,2.850374755859375,0.165863037109375,-0.0813751220703125,0.0375823974609375
1772537139753422800,2.8604228515625,0.0917205810546875,-0.115875244140625,0.0176239013671875
1772537139763472000,2.870471923828125,0.0176239013671875,-0.156951904296875,0.0095672607421875
1772537139773520000,2.880519775390625,-0.111328125,-0.1881866455078125,0.01702880859375
1772537139783568000,2.89056787109375,-0.3031158447265625,-0.2339630126953125,0.02252197265625
1772537139793617000,2.900616943359375,-0.51043701171875,-0.3140106201171875,0.00274658203125
1772537139803664600,2.91066455078125,-0.732635498046875,-0.373626708984375,-0.0269317626953125
1772537139813713000,2.920712890625,-0.9795074462890625,-0.401092529296875,-0.049163818359375
1772537139823761700,2.93076171875,-1.1951904296875,-0.34857177734375,-0.0688323974609375
1772537139833810000,2.940809814453125,-1.370635986328125,-0.1689605712890625,-0.042205810546875
1772537139843857700,2.950857666015625,-1.5084381103515625,-0.0074005126953125,-0.061370849609375
1772537139853907000,2.960906982421875,-1.654754638671875,-0.060546875,-0.1890869140625
1772537139863954700,2.97095458984375,-1.8363189697265625,-0.206207275390625,-0.2392578125
1772537139874002700,2.981002685546875,-2.10369873046875,-0.27593994140625,-0.194061279296875
1772537139884051700,2.9910517578125,-2.331817626953125,-0.3595428466796875,-0.1732940673828125
1772537139894099700,3.001099609375,-2.42779541015625,-0.45587158203125,-0.17578125
1772537139904148000,3.01114794921875,-2.46612548828125,-0.4473114013671875,-0.1619873046875
1772537139914196700,3.02119677734375,-2.5175628662109375,-0.3722381591796875,-0.1033935546875
1772537139924245000,3.031244873046875,-2.56365966796875,-0.295074462890625,-0.0475616455078125
1772537139934292700,3.041292724609375,-2.5316314697265625,-0.250823974609375,-0.029937744140625
1772537139944342000,3.051342041015625,-2.395111083984375,-0.2283782958984375,-0.0348358154296875
1772537139954389800,3.0613896484375,-2.239959716796875,-0.227447509765625,-0.0485076904296875
1772537139964437800,3.071437744140625,-2.1123504638671875,-0.257568359375,-0.0789794921875
1772537139974486800,3.08148681640625,-1.992645263671875,-0.259796142578125,-0.1006622314453125
1772537139984534800,3.09153466796875,-1.8709869384765625,-0.214141845703125,-0.1141815185546875
1772537139994582800,3.101582763671875,-1.723388671875,-0.174652099609375,-0.133758544921875
1772537140004631800,3.1116318359375,-1.56109619140625,-0.125640869140625,-0.1413116455078125
1772537140014679800,3.1216796875,-1.3995819091796875,-0.058502197265625,-0.14459228515625
1772537140024727800,3.131727783203125,-1.2382659912109375,0.00042724609375,-0.1527862548828125
1772537140034776600,3.141776611328125,-1.072662353515625,0.0459442138671875,-0.1531982421875
1772537140044824800,3.151824951171875,-0.92169189453125,0.0642242431640625,-0.137786865234375
1772537140054872800,3.161872802734375,-0.783966064453125,0.056549072265625,-0.125885009765625
1772537140064921900,3.171921875,-0.650634765625,0.043914794921875,-0.118896484375
1772537140074970000,3.18197021484375,-0.5147552490234375,0.03497314453125,-0.1118927001953125
1772537140085017900,3.192017822265625,-0.3963165283203125,0.0377197265625,-0.108856201171875
1772537140095067100,3.202067138671875,-0.329864501953125,0.0389556884765625,-0.1064910888671875
1772537140105115000,3.212114990234375,-0.2834014892578125,0.0479278564453125,-0.086669921875
1772537140115163000,3.222162841796875,-0.2447967529296875,0.054443359375,-0.062744140625
1772537140125211000,3.2322109375,-0.181121826171875,0.0470428466796875,-0.043487548828125
1772537140135260000,3.242260009765625,-0.0871734619140625,0.0383148193359375,-0.0321197509765625
1772537140145308000,3.252307861328125,-0.0026397705078125,0.0288238525390625,-0.032684326171875
1772537140155357000,3.26235693359375,0.0540924072265625,0.0146331787109375,-0.0287322998046875
1772537140165405000,3.272405029296875,0.09344482421875,0.011871337890625,-0.0311126708984375
1772537140175453000,3.282452880859375,0.134124755859375,0.0074005126953125,-0.0402374267578125
1772537140185501000,3.2925009765625,0.18072509765625,0.001251220703125,-0.0477447509765625
1772537140195550000,3.302550048828125,0.2285614013671875,-0.00152587890625,-0.054046630859375
1772537140205598000,3.312597900390625,0.2418365478515625,0.0048980712890625,-0.068756103515625
1772537140215646000,3.32264599609375,0.2175445556640625,0.01654052734375,-0.06268310546875
1772537140225695000,3.332695068359375,0.15142822265625,0.0251312255859375,-0.047271728515625
1772537140235742700,3.34274267578125,0.0843048095703125,0.009368896484375,-0.036468505859375
1772537140245791000,3.352791015625,0.0111236572265625,-0.0461883544921875,-0.035736083984375
1772537140255839700,3.36283984375,-0.1077728271484375,-0.1245574951171875,-0.050323486328125
1772537140265888000,3.372887939453125,-0.2918548583984375,-0.2006988525390625,-0.0517425537109375
1772537140275936000,3.38293603515625,-0.4978179931640625,-0.2658843994140625,-0.0397491455078125
1772537140285985000,3.392985107421875,-0.697021484375,-0.2899169921875,-0.0122528076171875
1772537140296033000,3.403032958984375,-0.866729736328125,-0.295623779296875,-0.000823974609375
1772537140306080800,3.413080810546875,-1.017822265625,-0.3586578369140625,-0.00390625
1772537140316130000,3.423130126953125,-1.28326416015625,-0.3599395751953125,-0.034332275390625
1772537140326177800,3.433177734375,-1.5864410400390625,-0.2561798095703125,-0.0411376953125
1772537140336226000,3.44322607421875,-1.8128509521484375,-0.14959716796875,-0.0456695556640625
1772537140346274800,3.45327490234375,-1.9571075439453125,-0.1381988525390625,-0.1255950927734375
1772537140356323000,3.463322998046875,-2.0334320068359375,-0.1901092529296875,-0.205291748046875
1772537140366370800,3.473370849609375,-2.058837890625,-0.214447021484375,-0.2449951171875
1772537140376420000,3.483420166015625,-2.0739288330078125,-0.28033447265625,-0.3088531494140625
1772537140386467800,3.4934677734375,-2.091033935546875,-0.3451690673828125,-0.318450927734375
1772537140396515800,3.503515869140625,-2.1238250732421875,-0.3673095703125,-0.258575439453125
1772537140406564900,3.51356494140625,-2.149322509765625,-0.3956298828125,-0.152099609375
1772537140416612900,3.52361279296875,-2.17083740234375,-0.4210968017578125,-0.0303802490234375
1772537140426661000,3.5336611328125,-2.148590087890625,-0.4676513671875,0.0464324951171875
1772537140436710000,3.5437099609375,-2.059173583984375,-0.5100555419921875,0.09906005859375
1772537140446758100,3.553758056640625,-1.9608154296875,-0.5308074951171875,0.1242828369140625
1772537140456806000,3.563805908203125,-1.8610687255859375,-0.5474090576171875,0.109710693359375
1772537140466855000,3.57385498046875,-1.7523193359375,-0.5538787841796875,0.0571746826171875
1772537140476903000,3.58390283203125,-1.6414031982421875,-0.5204925537109375,-0.003082275390625
1772537140486951000,3.593950927734375,-1.563751220703125,-0.4491729736328125,-0.0630340576171875
1772537140497000000,3.604,-1.5334625244140625,-0.3494110107421875,-0.114166259765625
1772537140507048000,3.6140478515625,-1.5009002685546875,-0.236541748046875,-0.1522369384765625
1772537140517096000,3.624095947265625,-1.43743896484375,-0.1180877685546875,-0.1814422607421875
1772537140527145000,3.63414501953125,-1.350555419921875,-0.0097503662109375,-0.206024169921875
1772537140537192700,3.644192626953125,-1.2634735107421875,0.065948486328125,-0.2200927734375
1772537140547241000,3.654240966796875,-1.1704864501953125,0.102447509765625,-0.221405029296875
1772537140557289700,3.664289794921875,-1.0559539794921875,0.0979766845703125,-0.2010650634765625
1772537140567338000,3.674337890625,-0.93280029296875,0.0759124755859375,-0.1817169189453125
1772537140577386000,3.684385986328125,-0.8227996826171875,0.0402679443359375,-0.1693267822265625
1772537140587433700,3.694433837890625,-0.724029541015625,0.0157318115234375,-0.157623291015625
1772537140597483000,3.70448291015625,-0.621734619140625,0.0127410888671875,-0.1467437744140625
1772537140607530800,3.71453076171875,-0.518890380859375,0.031463623046875,-0.1277923583984375
1772537140617579000,3.7245791015625,-0.425201416015625,0.0514984130859375,-0.09375
1772537140627627800,3.734627685546875,-0.3495635986328125,0.0699920654296875,-0.0436553955078125
1772537140637676000,3.744676025390625,-0.274169921875,0.07611083984375,0.000518798828125
1772537140647724000,3.75472412109375,-0.178955078125,0.0596160888671875,0.03143310546875
1772537140657773000,3.76477294921875,-0.0521240234375,0.02301025390625,0.0489654541015625
1772537140667821000,3.774821044921875,0.0639801025390625,-0.0160064697265625,0.0469818115234375
1772537140677868800,3.784868896484375,0.1520233154296875,-0.0387420654296875,0.03094482421875
1772537140687917800,3.794917724609375,0.2034454345703125,-0.046234130859375,0.0126190185546875
1772537140697965800,3.8049658203125,0.216033935546875,-0.022186279296875,0.0045318603515625
1772537140708014000,3.81501416015625,0.210113525390625,0.005035400390625,-0.010467529296875
1772537140718062800,3.825062744140625,0.2032318115234375,0.0251007080078125,-0.03240966796875
1772537140728111000,3.835111083984375,0.1994476318359375,0.038177490234375,-0.0450592041015625
1772537140738158800,3.845158935546875,0.163543701171875,0.031402587890625,-0.0597076416015625
1772537140748207900,3.855207763671875,0.1027069091796875,-0.017059326171875,-0.089569091796875
1772537140758255900,3.865255859375,0.013671875,-0.09698486328125,-0.1493072509765625
1772537140768303900,3.875303955078125,-0.13299560546875,-0.179168701171875,-0.1821441650390625
1772537140778353000,3.885352783203125,-0.3506927490234375,-0.2466888427734375,-0.146759033203125
1772537140788401000,3.89540087890625,-0.63275146484375,-0.3013153076171875,-0.1185150146484375
1772537140798449200,3.90544921875,-0.9001922607421875,-0.2956390380859375,-0.106903076171875
1772537140808498000,3.915497802734375,-1.0762786865234375,-0.241668701171875,-0.051971435546875
1772537140818546000,3.9255458984375,-1.2583160400390625,-0.1864166259765625,-0.0523681640625
1772537140828594000,3.935593994140625,-1.401123046875,-0.14697265625,-0.088134765625
1772537140838643000,3.945642822265625,-1.466094970703125,-0.139434814453125,-0.174530029296875
1772537140848691000,3.95569091796875,-1.48284912109375,-0.2245330810546875,-0.3151702880859375
1772537140858739000,3.965739013671875,-1.52923583984375,-0.3408966064453125,-0.3253326416015625
1772537140868788000,3.9757880859375,-1.75433349609375,-0.417449951171875,-0.2216339111328125
1772537140878836000,3.9858359375,-2.02685546875,-0.4762420654296875,-0.105987548828125
1772537140888883700,3.9958837890625,-2.180938720703125,-0.538909912109375,-0.03302001953125
1772537140898933000,4.00593310546875,-2.2100982666015625,-0.577850341796875,-0.0079803466796875
1772537140908980700,4.015980712890625,-2.1002655029296875,-0.5843658447265625,0.000946044921875
1772537140919029000,4.026029052734375,-1.959716796875,-0.57244873046875,-0.0155487060546875
1772537140929077800,4.036077880859375,-1.8938446044921875,-0.5734710693359375,-0.057373046875
1772537140939126000,4.0461259765625,-1.8784637451171875,-0.5450897216796875,-0.061553955078125
1772537140949174000,4.056174072265625,-1.8412628173828125,-0.485595703125,-0.0902099609375
1772537140959223000,4.06622314453125,-1.7543792724609375,-0.4485015869140625,-0.1724853515625
1772537140969271000,4.07627099609375,-1.6326904296875,-0.4149627685546875,-0.2316741943359375
1772537140979318800,4.08631884765625,-1.5224609375,-0.35699462890625,-0.2717437744140625
1772537140989368000,4.0963681640625,-1.466033935546875,-0.31732177734375,-0.3029632568359375
1772537140999415800,4.106415771484375,-1.4619598388671875,-0.283660888671875,-0.282684326171875
1772537141009464000,4.116464111328125,-1.4738922119140625,-0.241729736328125,-0.2229461669921875
1772537141019512000,4.126511962890625,-1.4844207763671875,-0.2325592041015625,-0.171844482421875
1772537141029561000,4.13656103515625,-1.509521484375,-0.2471466064453125,-0.1290740966796875
1772537141039608800,4.14660888671875,-1.490631103515625,-0.2228851318359375,-0.0783843994140625
1772537141049656800,4.15665673828125,-1.396942138671875,-0.1888275146484375,-0.0627288818359375
1772537141059705900,4.166705810546875,-1.275543212890625,-0.1564788818359375,-0.0876922607421875
1772537141069754400,4.17675439453125,-1.114410400390625,-0.1056365966796875,-0.1347808837890625
1772537141079802400,4.18680224609375,-0.9158172607421875,-0.05078125,-0.2003936767578125
1772537141089851400,4.196851318359375,-0.7716827392578125,0.0146942138671875,-0.251800537109375
1772537141099899400,4.2068994140625,-0.6831817626953125,0.0889892578125,-0.24993896484375
1772537141109947100,4.216947021484375,-0.662261962890625,0.1428070068359375,-0.2215423583984375
1772537141119996400,4.226996337890625,-0.6239013671875,0.184112548828125,-0.1714324951171875
1772537141130044200,4.237044189453125,-0.5232391357421875,0.198333740234375,-0.1179046630859375
1772537141140092400,4.247092529296875,-0.3667755126953125,0.1653594970703125,-0.0819091796875
1772537141150141200,4.25714111328125,-0.2074737548828125,0.1163177490234375,-0.0514068603515625
1772537141160189400,4.267189453125,-0.076873779296875,0.0640869140625,-0.017303466796875
1772537141170237200,4.2772373046875,0.0319671630859375,0.0137481689453125,0.01116943359375
1772537141180286500,4.287286376953125,0.1171417236328125,-0.0191192626953125,0.034088134765625
1772537141190334200,4.297334228515625,0.2095184326171875,-0.0297393798828125,0.045806884765625
1772537141200382200,4.30738232421875,0.29107666015625,-0.0324554443359375,0.0517578125
1772537141210431200,4.31743115234375,0.32635498046875,-0.044647216796875,0.050872802734375
1772537141220479200,4.327479248046875,0.2946624755859375,-0.0517578125,0.0354461669921875
1772537141230527500,4.337527587890625,0.2569580078125,-0.054443359375,0.0120849609375
1772537141240576300,4.347576171875,0.2033843994140625,-0.0503997802734375,0.003143310546875
1772537141250624500,4.35762451171875,0.0606689453125,-0.0499420166015625,-0.0005340576171875
1772537141260672300,4.36767236328125,-0.100250244140625,-0.07159423828125,-0.043212890625
1772537141270721300,4.37772119140625,-0.2569122314453125,-0.0999755859375,-0.071136474609375
1772537141280769300,4.387769287109375,-0.4762420654296875,-0.1292266845703125,-0.0858306884765625
1772537141290817300,4.3978173828125,-0.68511962890625,-0.1689605712890625,-0.0677032470703125
1772537141300866300,4.4078662109375,-0.836029052734375,-0.228607177734375,-0.0604248046875
1772537141310914300,4.417914306640625,-0.95367431640625,-0.2779083251953125,-0.0643310546875
1772537141320962300,4.42796240234375,-1.11505126953125,-0.2964630126953125,-0.0718994140625
1772537141331011300,4.43801123046875,-1.3038482666015625,-0.238128662109375,-0.071685791015625
1772537141341059300,4.448059326171875,-1.480712890625,-0.095703125,-0.04541015625
1772537141351107300,4.458107421875,-1.6597747802734375,0.033935546875,-0.0428009033203125
1772537141361156400,4.46815625,-1.8404388427734375,0.0052337646484375,-0.10498046875
1772537141371204400,4.478204345703125,-1.9582366943359375,-0.0861663818359375,-0.1308441162109375
1772537141381252400,4.48825244140625,-2.056976318359375,-0.1759185791015625,-0.1260986328125
1772537141391301400,4.49830126953125,-2.132659912109375,-0.3239288330078125,-0.1346282958984375
1772537141401349400,4.508349365234375,-2.181182861328125,-0.426300048828125,-0.1022491455078125
1772537141411397000,4.518397216796875,-2.215484619140625,-0.426361083984375,0.0021820068359375
1772537141421445400,4.5284453125,-2.270477294921875,-0.4102783203125,0.0954132080078125
1772537141431494100,4.538494140625,-2.29254150390625,-0.39105224609375,0.145599365234375
1772537141441542400,4.54854248046875,-2.2470245361328125,-0.3900299072265625,0.1437225341796875
1772537141451590400,4.55859033203125,-2.1647796630859375,-0.393524169921875,0.09552001953125
1772537141461639400,4.568639404296875,-2.056243896484375,-0.375091552734375,0.005889892578125
1772537141471687400,4.5786875,-1.916534423828125,-0.3219451904296875,-0.0894622802734375
1772537141481735200,4.588735107421875,-1.7758941650390625,-0.238861083984375,-0.1768341064453125
1772537141491784400,4.598784423828125,-1.64691162109375,-0.132293701171875,-0.240509033203125
1772537141501832200,4.608832275390625,-1.5721588134765625,-0.03076171875,-0.30267333984375
1772537141511880400,4.61888037109375,-1.51544189453125,0.0711212158203125,-0.34130859375
1772537141521929200,4.62892919921875,-1.446319580078125,0.1655731201171875,-0.3521881103515625
1772537141531977500,4.6389775390625,-1.3469390869140625,0.2551116943359375,-0.3466339111328125
1772537141542025200,4.649025146484375,-1.206573486328125,0.2955322265625,-0.3097686767578125
1772537141552074200,4.65907421875,-1.041839599609375,0.2647857666015625,-0.25439453125
1772537141562122200,4.669122314453125,-0.8946380615234375,0.1917266845703125,-0.1863250732421875
1772537141572170200,4.679170166015625,-0.7752532958984375,0.102264404296875,-0.1154327392578125
1772537141582219300,4.68921923828125,-0.6564178466796875,0.0193023681640625,-0.0550079345703125
1772537141592267300,4.699267333984375,-0.5215301513671875,-0.02880859375,-0.005218505859375
1772537141602315300,4.709315185546875,-0.3852386474609375,-0.042388916015625,0.0290374755859375
1772537141612364300,4.7193642578125,-0.230072021484375,-0.0388031005859375,0.037384033203125
1772537141622412300,4.729412353515625,-0.0911102294921875,-0.026458740234375,0.044769287109375
1772537141632460300,4.739460205078125,0.00909423828125,-0.009002685546875,0.05096435546875
1772537141642509300,4.74950927734375,0.0785675048828125,0.0005645751953125,0.0570831298828125
1772537141652557300,4.759557373046875,0.133087158203125,-0.0034637451171875,0.0552978515625
1772537141662605300,4.769605224609375,0.1724395751953125,-0.0045623779296875,0.0462646484375
1772537141672654300,4.779654296875,0.187530517578125,-0.0116119384765625,0.024871826171875
1772537141682702300,4.789702392578125,0.1833343505859375,-0.0000457763671875,0.00555419921875
1772537141692750300,4.799750244140625,0.2131805419921875,0.0286865234375,-0.0346527099609375
1772537141702799400,4.80979931640625,0.2654876708984375,0.0379638671875,-0.0565948486328125
1772537141712847400,4.819847412109375,0.2475433349609375,0.0522918701171875,-0.0680999755859375
1772537141722895400,4.829895263671875,0.1615142822265625,0.0579833984375,-0.0650482177734375
1772537141732944100,4.839944091796875,0.0759429931640625,0.04205322265625,-0.0376129150390625
1772537141742992400,4.849992431640625,-0.0421905517578125,0.0145263671875,-0.031402587890625
1772537141753040400,4.860040283203125,-0.17120361328125,-0.0701446533203125,-0.0694732666015625
1772537141763089400,4.87008935546875,-0.3084564208984375,-0.1616363525390625,-0.1079254150390625
1772537141773137400,4.880137451171875,-0.4969482421875,-0.1834716796875,-0.14013671875
1772537141783185200,4.89018505859375,-0.72320556640625,-0.1797027587890625,-0.1526641845703125
1772537141793234400,4.900234375,-0.9806060791015625,-0.17999267578125,-0.142120361328125
1772537141803282200,4.9102822265625,-1.239227294921875,-0.1162872314453125,-0.074615478515625
1772537141813330400,4.920330322265625,-1.454437255859375,0.0069580078125,-0.009033203125
1772537141823379200,4.930379150390625,-1.5666046142578125,0.0792236328125,-0.002899169921875
1772537141833427200,4.94042724609375,-1.5874786376953125,0.145965576171875,-0.0088043212890625
1772537141843475500,4.950475341796875,-1.6611480712890625,0.14935302734375,-0.1039581298828125
1772537141853523200,4.960523193359375,-1.8003387451171875,0.03106689453125,-0.2174224853515625
1772537141863572500,4.970572509765625,-1.91729736328125,-0.0375823974609375,-0.25628662109375
1772537141873620200,4.9806201171875,-1.99456787109375,-0.0704345703125,-0.2711944580078125
1772537141883668200,4.990668212890625,-2.00506591796875,-0.1353759765625,-0.28839111328125
1772537141893717200,5.00071728515625,-2.014495849609375,-0.1556396484375,-0.2227325439453125
1772537141903765200,5.01076513671875,-2.0483245849609375,-0.1402740478515625,-0.1038818359375
1772537141913813200,5.020813232421875,-2.131103515625,-0.16143798828125,-0.0142974853515625
1772537141923862300,5.0308623046875,-2.20269775390625,-0.18560791015625,0.05718994140625
1772537141933910300,5.04091015625,-2.193206787109375,-0.1963348388671875,0.1005706787109375
1772537141943958300,5.050958251953125,-2.1316375732421875,-0.2218780517578125,0.0862274169921875
1772537141954007300,5.06100732421875,-2.0114288330078125,-0.238800048828125,0.0507354736328125
1772537141964055300,5.07105517578125,-1.862335205078125,-0.24334716796875,-0.00396728515625
1772537141974103300,5.081103271484375,-1.7459869384765625,-0.2144012451171875,-0.0622711181640625
1772537141984152300,5.09115234375,-1.6613006591796875,-0.155059814453125,-0.0689239501953125
1772537141994200300,5.101200439453125,-1.5774993896484375,-0.092437744140625,-0.052093505859375
1772537142004248300,5.111248291015625,-1.4795684814453125,-0.0523834228515625,-0.05169677734375
1772537142014297300,5.12129736328125,-1.368865966796875,-0.016448974609375,-0.0533599853515625
1772537142024345300,5.131345458984375,-1.2610931396484375,0.0211639404296875,-0.0623779296875
1772537142034393300,5.141393310546875,-1.1397857666015625,0.042633056640625,-0.0943450927734375
1772537142044442400,5.1514423828125,-0.9931793212890625,0.0472259521484375,-0.1398773193359375
1772537142054490400,5.161490478515625,-0.84246826171875,0.0588836669921875,-0.184906005859375
1772537142064538400,5.171538330078125,-0.717803955078125,0.0779876708984375,-0.20477294921875
1772537142074586600,5.181586669921875,-0.616943359375,0.09375,-0.205108642578125
1772537142084634600,5.191634521484375,-0.5489044189453125,0.0926666259765625,-0.19598388671875
1772537142094682600,5.2016826171875,-0.4934539794921875,0.0772857666015625,-0.1785125732421875
1772537142104731600,5.211731689453125,-0.4562835693359375,0.0677337646484375,-0.1628875732421875
1772537142114779600,5.221779541015625,-0.422271728515625,0.0563812255859375,-0.142547607421875
1772537142124827600,5.23182763671875,-0.368621826171875,0.0460968017578125,-0.1231231689453125
1772537142134876400,5.24187646484375,-0.3119964599609375,0.0274505615234375,-0.1095428466796875
1772537142144924700,5.251924560546875,-0.2625579833984375,0.0146636962890625,-0.11004638671875
1772537142154972700,5.26197265625,-0.210601806640625,0.017181396484375,-0.11688232421875
1772537142165020700,5.272020751953125,-0.1521148681640625,0.022369384765625,-0.0994110107421875
1772537142175069700,5.282069580078125,-0.1067962646484375,0.0220489501953125,-0.0916290283203125
1772537142185117400,5.292117431640625,-0.0832977294921875,0.017242431640625,-0.089080810546875
1772537142195165700,5.302165771484375,-0.0798797607421875,0.0175018310546875,-0.0637969970703125
1772537142205214500,5.31221435546875,-0.0739593505859375,0.018707275390625,-0.03472900390625
1772537142215262700,5.3222626953125,-0.055389404296875,-0.000701904296875,-0.0201416015625
1772537142225310500,5.332310546875,-0.0419464111328125,-0.0135650634765625,-0.011016845703125
1772537142235359700,5.34235986328125,-0.0443878173828125,-0.0143585205078125,0.0041046142578125
1772537142245407500,5.352407470703125,-0.0804901123046875,-0.0297393798828125,0.0134735107421875
1772537142255455500,5.36245556640625,-0.1451416015625,-0.04095458984375,0.021484375
1772537142265504500,5.37250439453125,-0.232818603515625,-0.03955078125,0.0293121337890625
1772537142275552500,5.382552490234375,-0.3065643310546875,-0.0428314208984375,0.024810791015625
1772537142285600800,5.392600830078125,-0.3785247802734375,-0.0362548828125,0.0293731689453125
1772537142295649500,5.4026494140625,-0.4855499267578125,-0.021636962890625,0.0336151123046875
1772537142305697800,5.41269775390625,-0.639434814453125,0.002044677734375,0.0246734619140625
1772537142315745500,5.42274560546875,-0.8099365234375,-0.006317138671875,-0.017822265625
1772537142325794800,5.432794921875,-0.9897308349609375,-0.104400634765625,-0.1307373046875
1772537142335842600,5.442842529296875,-1.1875457763671875,-0.2208709716796875,-0.2580108642578125
1772537142345890600,5.452890625,-1.4032745361328125,-0.2690582275390625,-0.32000732421875
1772537142355939600,5.462939697265625,-1.6383209228515625,-0.269439697265625,-0.31719970703125
1772537142365987600,5.472987548828125,-1.8758392333984375,-0.2524566650390625,-0.2762298583984375
1772537142376035600,5.48303564453125,-2.03363037109375,-0.1676483154296875,-0.1788482666015625
1772537142386084600,5.493084716796875,-2.15777587890625,-0.057342529296875,-0.139556884765625
1772537142396132600,5.503132568359375,-2.2842559814453125,-0.0279083251953125,-0.187713623046875
1772537142406180600,5.5131806640625,-2.401519775390625,-0.046905517578125,-0.2376708984375
1772537142416229400,5.5232294921875,-2.487396240234375,-0.09149169921875,-0.2675628662109375
1772537142426277600,5.533277587890625,-2.5408477783203125,-0.089080810546875,-0.2503509521484375
1772537142436325600,5.54332568359375,-2.5909881591796875,-0.03338623046875,-0.2009429931640625
1772537142446374700,5.553374755859375,-2.5953521728515625,0.0170440673828125,-0.1596527099609375
1772537142456422700,5.563422607421875,-2.5095367431640625,0.0612640380859375,-0.1328582763671875
1772537142466470400,5.573470458984375,-2.373260498046875,0.08172607421875,-0.1276397705078125
1772537142476518700,5.5835185546875,-2.22314453125,0.0748138427734375,-0.175537109375
1772537142486567400,5.5935673828125,-2.0573272705078125,0.08258056640625,-0.21875
1772537142496615700,5.60361572265625,-1.867034912109375,0.11810302734375,-0.251861572265625
1772537142506663700,5.61366357421875,-1.661163330078125,0.1388092041015625,-0.278411865234375
1772537142516712700,5.623712646484375,-1.46148681640625,0.1426239013671875,-0.287750244140625
1772537142526760700,5.6337607421875,-1.3106842041015625,0.1553192138671875,-0.308746337890625
1772537142536808400,5.643808349609375,-1.1725006103515625,0.17144775390625,-0.314788818359375
1772537142546857500,5.653857421875,-0.9840087890625,0.16229248046875,-0.327392578125
1772537142556905500,5.663905517578125,-0.76715087890625,0.1346893310546875,-0.3484344482421875
1772537142566953700,5.67395361328125,-0.5159149169921875,0.096466064453125,-0.3604736328125
1772537142577002500,5.68400244140625,-0.2843170166015625,0.0377349853515625,-0.3600311279296875
1772537142587050800,5.69405078125,-0.1229400634765625,-0.0165557861328125,-0.3231658935546875
1772537142597098500,5.704098388671875,-0.015838623046875,-0.0440673828125,-0.2549591064453125
1772537142607147800,5.714147705078125,0.0540618896484375,-0.0333251953125,-0.19775390625
1772537142617195500,5.724195556640625,0.128143310546875,-0.001708984375,-0.144439697265625
1772537142627243500,5.734243408203125,0.1925811767578125,0.008087158203125,-0.0787811279296875
1772537142637292500,5.74429248046875,0.227752685546875,-0.0041046142578125,-0.0471343994140625
1772537142647340500,5.754340576171875,0.25482177734375,-0.027099609375,-0.023651123046875
1772537142657388800,5.764388916015625,0.303070068359375,-0.039581298828125,0.0069732666015625
1772537142667437600,5.7744375,0.31304931640625,-0.0450286865234375,0.0178680419921875
1772537142677485800,5.78448583984375,0.31005859375,-0.060821533203125,0.0242919921875
1772537142687533600,5.794533447265625,0.2793121337890625,-0.0615081787109375,0.0086212158203125
1772537142697582600,5.80458251953125,0.2217254638671875,-0.035552978515625,-0.01641845703125
1772537142707630600,5.814630615234375,0.1409149169921875,-0.015411376953125,-0.028533935546875
1772537142717678600,5.8246787109375,0.0585174560546875,0.0105438232421875,-0.0208282470703125
1772537142727727600,5.8347275390625,-0.03265380859375,0.036865234375,0.0105743408203125
1772537142737775600,5.844775634765625,-0.116485595703125,0.0276336669921875,0.0619659423828125
1772537142747823400,5.8548232421875,-0.191802978515625,-0.0196685791015625,0.088470458984375
1772537142757872600,5.86487255859375,-0.2723236083984375,-0.1126708984375,0.0530853271484375
1772537142767920400,5.87492041015625,-0.3736419677734375,-0.202911376953125,-0.0352783203125
1772537142777968600,5.88496875,-0.5316314697265625,-0.20867919921875,-0.1214447021484375
1772537142788016600,5.8950166015625,-0.74322509765625,-0.1463470458984375,-0.1672515869140625
1772537142798065700,5.905065673828125,-0.9821624755859375,-0.110137939453125,-0.191162109375
1772537142808113700,5.91511376953125,-1.1955108642578125,-0.084747314453125,-0.211883544921875
1772537142818162700,5.92516259765625,-1.370941162109375,-0.01507568359375,-0.227081298828125
1772537142828210700,5.935210693359375,-1.50347900390625,0.0301666259765625,-0.272705078125
1772537142838258400,5.945258544921875,-1.5627899169921875,0.0184783935546875,-0.34637451171875
1772537142848307700,5.9553076171875,-1.6418609619140625,0.001983642578125,-0.3953857421875
1772537142858355500,5.96535546875,-1.7852935791015625,0.0388641357421875,-0.4287109375
1772537142868403700,5.97540380859375,-2.00433349609375,0.150177001953125,-0.4158172607421875
1772537142878451700,5.98545166015625,-2.1513519287109375,0.1906585693359375,-0.3946075439453125
1772537142888500700,5.995500732421875,-2.1899566650390625,0.1721038818359375,-0.390899658203125
1772537142898548500,6.005548583984375,-2.155731201171875,0.1700286865234375,-0.3261871337890625
1772537142908597800,6.01559765625,-2.1168365478515625,0.1053009033203125,-0.2282867431640625
1772537142918645500,6.0256455078125,-2.1461944580078125,-0.0379486083984375,-0.1351165771484375
1772537142928693500,6.035693603515625,-2.1934356689453125,-0.1751251220703125,-0.0345916748046875
1772537142938741800,6.04574169921875,-2.18548583984375,-0.26116943359375,0.076416015625
1772537142948790500,6.05579052734375,-2.0956268310546875,-0.3164215087890625,0.14703369140625
1772537142958838800,6.0658388671875,-1.8975830078125,-0.34002685546875,0.16644287109375
1772537142968886500,6.075886474609375,-1.6885986328125,-0.3727264404296875,0.1124114990234375
1772537142978935600,6.085935546875,-1.5533294677734375,-0.42132568359375,0.0045928955078125
1772537142988983600,6.095983642578125,-1.483673095703125,-0.4422607421875,-0.1360626220703125
1772537142999031600,6.106031494140625,-1.4777069091796875,-0.452484130859375,-0.3101043701171875
1772537143009080600,6.11608056640625,-1.4678802490234375,-0.36572265625,-0.444305419921875
1772537143019128600,6.126128662109375,-1.438232421875,-0.124267578125,-0.4974517822265625
1772537143029176600,6.136176513671875,-1.406280517578125,0.158111572265625,-0.53118896484375
1772537143039225600,6.1462255859375,-1.3605194091796875,0.41204833984375,-0.543487548828125
1772537143049273600,6.156273681640625,-1.2634735107421875,0.575347900390625,-0.542510986328125
1772537143059321600,6.166321533203125,-1.1654815673828125,0.6384735107421875,-0.52435302734375
1772537143069370600,6.17637060546875,-1.0680694580078125,0.618621826171875,-0.495849609375
1772537143079418600,6.186418701171875,-0.9353485107421875,0.52862548828125,-0.451934814453125
1772537143089466600,6.196466552734375,-0.7828826904296875,0.41552734375,-0.3773651123046875
1772537143099515600,6.206515625,-0.643157958984375,0.2906646728515625,-0.275909423828125
1772537143109563600,6.216563720703125,-0.48992919921875,0.129608154296875,-0.1647186279296875
1772537143119611400,6.226611328125,-0.354461669921875,-0.0475311279296875,-0.054901123046875
1772537143129660700,6.23666064453125,-0.2463226318359375,-0.1603851318359375,0.0634002685546875
1772537143139708400,6.24670849609375,-0.13360595703125,-0.23956298828125,0.1507110595703125
1772537143149756700,6.256756591796875,0.003570556640625,-0.2825775146484375,0.188018798828125
1772537143159805400,6.266805419921875,0.1173858642578125,-0.274688720703125,0.204864501953125
1772537143169853700,6.276853759765625,0.1976318359375,-0.2427825927734375,0.2027130126953125
1772537143179901700,6.286901611328125,0.2263946533203125,-0.1926727294921875,0.18682861328125
1772537143189949400,6.296949462890625,0.209442138671875,-0.13055419921875,0.1652679443359375
1772537143199998700,6.306998779296875,0.17718505859375,-0.07958984375,0.1502227783203125
1772537143210046500,6.31704638671875,0.152740478515625,-0.0515289306640625,0.1345367431640625
1772537143220094700,6.3270947265625,0.1235809326171875,-0.031463623046875,0.0980224609375
1772537143230143500,6.3371435546875,0.0864715576171875,-0.0136871337890625,0.0278167724609375
1772537143240191700,6.347191650390625,0.0340423583984375,0.0044097900390625,-0.0565185546875
1772537143250239500,6.357239501953125,-0.04754638671875,0.03424072265625,-0.1049041748046875
1772537143260288500,6.36728857421875,-0.1587677001953125,0.0503387451171875,-0.1365203857421875
1772537143270336500,6.37733642578125,-0.3545379638671875,0.0256805419921875,-0.1851806640625
1772537143280384500,6.387384521484375,-0.5987701416015625,0.0078887939453125,-0.1929168701171875
1772537143290433500,6.39743359375,-0.8270263671875,-0.01226806640625,-0.153656005859375
1772537143300481500,6.4074814453125,-1.07354736328125,-0.0411224365234375,-0.10528564453125
1772537143310529800,6.41752978515625,-1.29168701171875,-0.086212158203125,-0.1013946533203125
1772537143320578600,6.42757861328125,-1.4293365478515625,-0.1410980224609375,-0.1300811767578125
1772537143330626600,6.43762646484375,-1.4927215576171875,-0.142852783203125,-0.203521728515625
1772537143340674600,6.447674560546875,-1.481597900390625,-0.0531005859375,-0.2723846435546875
1772537143350723600,6.4577236328125,-1.5104217529296875,0.0346832275390625,-0.32196044921875
1772537143360771600,6.467771484375,-1.6483154296875,0.0428924560546875,-0.34942626953125
1772537143370819600,6.477819580078125,-1.8716888427734375,-0.0047760009765625,-0.34112548828125
1772537143380868600,6.48786865234375,-2.0655364990234375,-0.0463714599609375,-0.3116302490234375
1772537143390916600,6.49791650390625,-2.160430908203125,-0.070953369140625,-0.2940826416015625
1772537143400964600,6.507964599609375,-2.2002716064453125,-0.1078338623046875,-0.2555694580078125
1772537143411013600,6.518013671875,-2.2215728759765625,-0.1500701904296875,-0.193634033203125
1772537143421061600,6.5280615234375,-2.233489990234375,-0.189727783203125,-0.13848876953125
1772537143431109600,6.538109619140625,-2.19464111328125,-0.214599609375,-0.100067138671875
1772537143441158700,6.54815869140625,-2.1356964111328125,-0.241241455078125,-0.08624267578125
1772537143451206700,6.55820654296875,-2.08966064453125,-0.271881103515625,-0.1162567138671875
1772537143461254700,6.568254638671875,-2.0157623291015625,-0.267913818359375,-0.1421966552734375
1772537143471303700,6.5783037109375,-1.92254638671875,-0.239044189453125,-0.1910400390625
1772537143481351700,6.5883515625,-1.8291473388671875,-0.1972198486328125,-0.256988525390625
1772537143491399400,6.5983994140625,-1.7144012451171875,-0.142181396484375,-0.3121490478515625
1772537143501447700,6.60844775390625,-1.5569000244140625,-0.08233642578125,-0.3398590087890625
1772537143511496400,6.618496337890625,-1.3908233642578125,-0.0235443115234375,-0.3307952880859375
1772537143521544700,6.628544677734375,-1.2611236572265625,0.0318756103515625,-0.289398193359375
1772537143531592700,6.6385927734375,-1.1889801025390625,0.062225341796875,-0.2595977783203125
1772537143541641500,6.648641357421875,-1.1044464111328125,0.0835113525390625,-0.2668304443359375
1772537143551689700,6.658689697265625,-0.955474853515625,0.121917724609375,-0.259735107421875
1772537143561737500,6.668737548828125,-0.7700653076171875,0.1552734375,-0.26300048828125
1772537143571786800,6.678786865234375,-0.5445404052734375,0.1465911865234375,-0.260162353515625
1772537143581834500,6.68883447265625,-0.359771728515625,0.092620849609375,-0.226043701171875
1772537143591882800,6.6988828125,-0.275299072265625,0.0423583984375,-0.13629150390625
1772537143601931500,6.708931640625,-0.2578277587890625,0.0103607177734375,-0.0256195068359375
1772537143611979500,6.7189794921875,-0.2091217041015625,-0.029266357421875,0.0591278076171875
1772537143622027500,6.729027587890625,-0.13623046875,-0.0684356689453125,0.154052734375
1772537143632076500,6.73907666015625,-0.0542144775390625,-0.1047210693359375,0.22735595703125
1772537143642124500,6.74912451171875,0.033416748046875,-0.1486968994140625,0.2763214111328125
1772537143652172500,6.759172607421875,0.1082611083984375,-0.186492919921875,0.3017578125
1772537143662221600,6.7692216796875,0.163360595703125,-0.1938323974609375,0.2891082763671875
1772537143672269600,6.77926953125,0.1859283447265625,-0.1658477783203125,0.2349090576171875
1772537143682317600,6.789317626953125,0.167816162109375,-0.0913543701171875,0.166229248046875
1772537143692366600,6.79936669921875,0.1359100341796875,-0.0173797607421875,0.100860595703125
1772537143702414600,6.80941455078125,0.095123291015625,0.037322998046875,0.0449981689453125
1772537143712462600,6.819462646484375,0.0341033935546875,0.0908355712890625,0.014862060546875
1772537143722511600,6.82951171875,-0.0393218994140625,0.1269378662109375,-0.016510009765625
1772537143732559600,6.8395595703125,-0.10931396484375,0.1025848388671875,-0.0599822998046875
1772537143742607600,6.849607666015625,-0.21728515625,0.09490966796875,-0.117156982421875
1772537143752656600,6.85965673828125,-0.3519439697265625,0.093597412109375,-0.1830596923828125
1772537143762704600,6.86970458984375,-0.4964141845703125,0.0326690673828125,-0.2567901611328125
1772537143772752600,6.879752685546875,-0.6546783447265625,0.001495361328125,-0.29638671875
1772537143782801700,6.8898017578125,-0.8197174072265625,-0.006927490234375,-0.302215576171875
1772537143792849700,6.899849609375,-0.989532470703125,-0.0584869384765625,-0.302734375
1772537143802897700,6.909897705078125,-1.158203125,-0.087890625,-0.2631072998046875
1772537143812945700,6.919945556640625,-1.3063812255859375,-0.1047210693359375,-0.217437744140625
1772537143822994700,6.92999462890625,-1.4148712158203125,-0.11163330078125,-0.18133544921875
1772537143833042700,6.940042724609375,-1.495574951171875,-0.023040771484375,-0.17181396484375
1772537143843090400,6.95009033203125,-1.593475341796875,0.1038055419921875,-0.220428466796875
1772537143853139700,6.9601396484375,-1.669830322265625,0.14306640625,-0.302703857421875
1772537143863187500,6.9701875,-1.7073974609375,0.1243133544921875,-0.36236572265625
1772537143873235700,6.980235595703125,-1.798858642578125,0.0713653564453125,-0.3855743408203125
1772537143883284500,6.990284423828125,-1.923980712890625,-0.0464630126953125,-0.3682403564453125
1772537143893332500,7.00033251953125,-1.993316650390625,-0.1685943603515625,-0.2706146240234375
1772537143903380700,7.010380615234375,-2.0469207763671875,-0.254241943359375,-0.1242828369140625
1772537143913429500,7.020429443359375,-2.1239166259765625,-0.3236236572265625,0.0506744384765625
1772537143923477800,7.030477783203125,-2.204925537109375,-0.3936004638671875,0.1642608642578125
1772537143933525500,7.040525390625,-2.2310638427734375,-0.452880859375,0.211212158203125
1772537143943574800,7.05057470703125,-2.1585845947265625,-0.495269775390625,0.17059326171875
1772537143953622500,7.06062255859375,-2.02154541015625,-0.475067138671875,0.070281982421875
1772537143963670500,7.07067041015625,-1.8826141357421875,-0.4116668701171875,-0.053375244140625
1772537143973719600,7.080719482421875,-1.7643890380859375,-0.35394287109375,-0.1844482421875
1772537143983767600,7.090767578125,-1.681488037109375,-0.2657623291015625,-0.263824462890625
1772537143993815600,7.100815673828125,-1.6488189697265625,-0.16302490234375,-0.30914306640625
1772537144003864600,7.110864501953125,-1.6099700927734375,-0.07110595703125,-0.3368072509765625
1772537144013912600,7.12091259765625,-1.5630035400390625,0.042816162109375,-0.35003662109375
1772537144023960600,7.130960693359375,-1.4852142333984375,0.1658172607421875,-0.382781982421875
1772537144034008600,7.141008544921875,-1.3357086181640625,0.2767181396484375,-0.4366912841796875
1772537144044057600,7.1510576171875,-1.11627197265625,0.365875244140625,-0.4686126708984375
1772537144054105600,7.161105712890625,-0.9077301025390625,0.42974853515625,-0.4739990234375
1772537144064153600,7.171153564453125,-0.7769927978515625,0.4228363037109375,-0.4670867919921875
1772537144074202400,7.181202392578125,-0.6917724609375,0.3513031005859375,-0.4141693115234375
1772537144084250000,7.19125,-0.6483001708984375,0.2434234619140625,-0.3388214111328125
1772537144094298000,7.201298095703125,-0.593109130859375,0.1343231201171875,-0.265533447265625
1772537144104347100,7.21134716796875,-0.4739227294921875,0.035614013671875,-0.1878204345703125
1772537144114395100,7.22139501953125,-0.3498382568359375,-0.045654296875,-0.0912322998046875
1772537144124443400,7.231443359375,-0.2442626953125,-0.1048126220703125,0.0087432861328125
1772537144134492200,7.2414921875,-0.1314849853515625,-0.161041259765625,0.11724853515625
1772537144144540400,7.25154052734375,-0.027191162109375,-0.2111663818359375,0.2020416259765625
1772537144154588200,7.261588134765625,0.0513458251953125,-0.2534332275390625,0.2530975341796875
1772537144164637400,7.271637451171875,0.1223297119140625,-0.2624969482421875,0.26483154296875
1772537144174685200,7.281685302734375,0.1654510498046875,-0.21868896484375,0.2561798095703125
1772537144184733200,7.291733154296875,0.1636962890625,-0.1644134521484375,0.216644287109375
1772537144194782200,7.3017822265625,0.13720703125,-0.110076904296875,0.171295166015625
1772537144204830200,7.311830322265625,0.109222412109375,-0.0290985107421875,0.1326904296875
1772537144214878200,7.321878173828125,0.0865631103515625,0.03472900390625,0.0948333740234375
1772537144224927200,7.33192724609375,0.0673828125,0.0711517333984375,0.0564422607421875
1772537144234975000,7.34197509765625,0.0373382568359375,0.0908050537109375,0.024627685546875
1772537144245023200,7.352023193359375,-0.05633544921875,0.091461181640625,-0.0204620361328125
1772537144255072000,7.362072021484375,-0.1964111328125,0.0453948974609375,-0.0848541259765625
1772537144265120300,7.372120361328125,-0.35302734375,-0.017913818359375,-0.1435089111328125
1772537144275168300,7.382168212890625,-0.53466796875,-0.06982421875,-0.202667236328125
1772537144285217300,7.39221728515625,-0.723114013671875,-0.1184844970703125,-0.2379913330078125
1772537144295265300,7.402265380859375,-0.89544677734375,-0.1409759521484375,-0.2470550537109375
1772537144305313000,7.41231298828125,-1.03875732421875,-0.15582275390625,-0.26568603515625
1772537144315362300,7.4223623046875,-1.160064697265625,-0.1808929443359375,-0.28094482421875
1772537144325410000,7.43241015625,-1.2670135498046875,-0.1992645263671875,-0.320709228515625
1772537144335458300,7.442458251953125,-1.365814208984375,-0.1792144775390625,-0.3731536865234375
1772537144345507000,7.452507080078125,-1.4697265625,-0.081207275390625,-0.434112548828125
1772537144355555300,7.462555419921875,-1.6042327880859375,0.0018463134765625,-0.488861083984375
1772537144365603300,7.472603271484375,-1.7855987548828125,0.09246826171875,-0.4888458251953125
1772537144375651000,7.482651123046875,-1.9603729248046875,0.1932830810546875,-0.4215240478515625
1772537144385700400,7.492700439453125,-2.10137939453125,0.238006591796875,-0.3529052734375
1772537144395748000,7.502748046875,-2.2094573974609375,0.2248077392578125,-0.2942657470703125
1772537144405796400,7.51279638671875,-2.29339599609375,0.1927032470703125,-0.16796875
1772537144415845000,7.52284521484375,-2.3226776123046875,0.1056365966796875,-0.033782958984375
1772537144425893400,7.532893310546875,-2.28326416015625,-0.0125732421875,0.054412841796875
1772537144435941000,7.542941162109375,-2.1871490478515625,-0.12994384765625,0.073272705078125
1772537144445990400,7.552990478515625,-2.0194854736328125,-0.2446136474609375,0.03155517578125
1772537144456038100,7.5630380859375,-1.869049072265625,-0.344024658203125,-0.0453033447265625
1772537144466086100,7.573086181640625,-1.7364044189453125,-0.390594482421875,-0.127197265625
1772537144476135200,7.58313525390625,-1.5960235595703125,-0.3738250732421875,-0.201416015625
1772537144486183200,7.59318310546875,-1.493072509765625,-0.3382720947265625,-0.2662200927734375
1772537144496231400,7.6032314453125,-1.44366455078125,-0.2608795166015625,-0.30938720703125
1772537144506280200,7.6132802734375,-1.41839599609375,-0.1246795654296875,-0.3176422119140625
1772537144516328400,7.623328369140625,-1.3767852783203125,0.045440673828125,-0.2989959716796875
1772537144526376200,7.633376220703125,-1.325347900390625,0.2079010009765625,-0.3114013671875
1772537144536425200,7.64342529296875,-1.256988525390625,0.3297882080078125,-0.3592376708984375
1772537144546473200,7.65347314453125,-1.1299591064453125,0.3968505859375,-0.40618896484375
1772537144556521200,7.663521240234375,-0.9873046875,0.40325927734375,-0.432647705078125
1772537144566569200,7.6735693359375,-0.881011962890625,0.3850860595703125,-0.418426513671875
1772537144576618200,7.6836181640625,-0.8166961669921875,0.3632965087890625,-0.3745880126953125
1772537144586666000,7.693666015625,-0.7727203369140625,0.3280792236328125,-0.322479248046875
1772537144596714200,7.70371435546875,-0.7232818603515625,0.289459228515625,-0.2637481689453125
1772537144606763000,7.713762939453125,-0.65972900390625,0.246307373046875,-0.2022247314453125
1772537144616811300,7.723811279296875,-0.5586700439453125,0.1992645263671875,-0.114990234375
1772537144626859300,7.733859375,-0.458648681640625,0.1498565673828125,-0.02203369140625
1772537144636908300,7.743908203125,-0.3758544921875,0.0865325927734375,0.0508880615234375
1772537144646956300,7.753956298828125,-0.2592620849609375,-0.008056640625,0.1017913818359375
1772537144657004000,7.764004150390625,-0.127685546875,-0.121734619140625,0.1304168701171875
1772537144667053300,7.77405322265625,-0.0087432861328125,-0.210113525390625,0.14404296875
1772537144677101000,7.78410107421875,0.09759521484375,-0.2562255859375,0.1490936279296875
1772537144687149300,7.7941494140625,0.1620025634765625,-0.26458740234375,0.12744140625
1772537144697198000,7.804197998046875,0.20867919921875,-0.2317047119140625,0.0890960693359375
1772537144707246300,7.814246337890625,0.2169952392578125,-0.1761322021484375,0.0492706298828125
1772537144717294300,7.82429443359375,0.17755126953125,-0.097747802734375,0.0216217041015625
1772537144727343400,7.83434326171875,0.10699462890625,-0.0249176025390625,0.0271759033203125
1772537144737391400,7.844391357421875,0.01123046875,0.031005859375,0.047454833984375
1772537144747439000,7.854439208984375,-0.0616455078125,0.0515289306640625,0.067138671875
1772537144757488000,7.864488037109375,-0.1415252685546875,0.01495361328125,0.055572509765625
1772537144767536000,7.8745361328125,-0.2419586181640625,-0.030303955078125,0.03045654296875
1772537144777584400,7.88458447265625,-0.4115142822265625,-0.0223388671875,0.0379638671875
1772537144787633200,7.894633056640625,-0.594146728515625,-0.0788421630859375,0.09619140625
1772537144797681400,7.904681396484375,-0.8202667236328125,-0.3184356689453125,-0.023956298828125
1772537144807729200,7.914729248046875,-1.088897705078125,-0.3623046875,-0.02099609375
1772537144817778200,7.924778076171875,-1.2699432373046875,-0.277740478515625,-0.0361175537109375
1772537144827826200,7.934826171875,-1.349517822265625,-0.2444915771484375,-0.1341552734375
1772537144837874200,7.944874267578125,-1.3961334228515625,-0.19036865234375,-0.2545013427734375
1772537144847922400,7.95492236328125,-1.45831298828125,-0.02838134765625,-0.3074798583984375
1772537144857971200,7.96497119140625,-1.542938232421875,0.1093902587890625,-0.3433837890625
1772537144868019200,7.975019287109375,-1.6569061279296875,0.168914794921875,-0.3871307373046875
1772537144878067200,7.985067138671875,-1.779388427734375,0.259552001953125,-0.4542388916015625
1772537144888116200,7.9951162109375,-1.869964599609375,0.3329620361328125,-0.4996185302734375
1772537144898164200,8.005164306640625,-1.963134765625,0.305816650390625,-0.4803009033203125
1772537144908212200,8.015212158203125,-2.0313720703125,0.26190185546875,-0.367034912109375
1772537144918261200,8.02526123046875,-2.0707550048828125,0.214263916015625,-0.2162017822265625
1772537144928309200,8.035309326171875,-2.1068115234375,0.10272216796875,-0.1068878173828125
1772537144938357000,8.04535693359375,-2.07403564453125,-0.02880859375,-0.0663909912109375
1772537144948406300,8.05540625,-1.9690093994140625,-0.145355224609375,-0.0532989501953125
1772537144958454000,8.0654541015625,-1.844757080078125,-0.2572784423828125,-0.08233642578125
1772537144968502300,8.075502197265624,-1.7215423583984375,-0.32391357421875,-0.117095947265625
1772537144978551000,8.085551025390625,-1.6103515625,-0.317474365234375,-0.132720947265625
1772537144988599300,8.095599365234374,-1.532745361328125,-0.271820068359375,-0.16217041015625
1772537144998647300,8.105647216796875,-1.4821014404296875,-0.2143402099609375,-0.170623779296875
1772537145008696300,8.1156962890625,-1.44183349609375,-0.128387451171875,-0.179107666015625
1772537145018744300,8.125744384765625,-1.4068756103515625,-0.0478668212890625,-0.1918487548828125
1772537145028792000,8.1357919921875,-1.43792724609375,0.033843994140625,-0.1863250732421875
1772537145038841300,8.14584130859375,-1.461212158203125,0.15484619140625,-0.199249267578125
1772537145048889000,8.15588916015625,-1.4345703125,0.2592926025390625,-0.2407684326171875
1772537145058937300,8.165937255859374,-1.364349365234375,0.3263702392578125,-0.284088134765625
1772537145068986000,8.175986083984375,-1.3149871826171875,0.373291015625,-0.3139190673828125
1772537145079035600,8.18603564453125,-1.2404937744140625,0.4093780517578125,-0.329376220703125
1772537145089083400,8.19608349609375,-1.1073150634765625,0.42108154296875,-0.3309326171875
1772537145099132400,8.20613232421875,-0.9534759521484375,0.40301513671875,-0.3289794921875
1772537145109180400,8.216180419921875,-0.815460205078125,0.356048583984375,-0.303466796875
1772537145119228400,8.226228515625,-0.697540283203125,0.3014373779296875,-0.247711181640625
1772537145129276400,8.2362763671875,-0.56341552734375,0.2223968505859375,-0.180877685546875
1772537145139325400,8.246325439453125,-0.4039154052734375,0.126495361328125,-0.12066650390625
1772537145149373400,8.25637353515625,-0.2030181884765625,0.0244293212890625,-0.07330322265625
1772537145159421400,8.26642138671875,0.0218963623046875,-0.1083526611328125,-0.031463623046875
1772537145169470500,8.276470458984376,0.1989593505859375,-0.21270751953125,0.015045166015625
1772537145179518500,8.2865185546875,0.3145599365234375,-0.235321044921875,0.053558349609375
1772537145189566500,8.29656640625,0.3778533935546875,-0.2173614501953125,0.047882080078125
1772537145199615500,8.306615478515624,0.3966064453125,-0.1551513671875,0.032257080078125
1772537145209663500,8.31666357421875,0.3664093017578125,-0.07684326171875,0.0150146484375
1772537145219711500,8.32671142578125,0.3043365478515625,-0.0258636474609375,0.008331298828125
1772537145229760500,8.336760498046875,0.23187255859375,0.0257568359375,0.033416748046875
1772537145239808500,8.34680859375,0.1748199462890625,0.064849853515625,0.0537261962890625
1772537145249856500,8.3568564453125,0.1029052734375,0.03466796875,0.0750885009765625
1772537145259905500,8.366905517578125,-0.0797119140625,-0.0207672119140625,0.0976104736328125
1772537145269953500,8.37695361328125,-0.30120849609375,-0.0671234130859375,0.0723419189453125
1772537145280001300,8.387001220703125,-0.508331298828125,-0.1085968017578125,0.02301025390625
1772537145290050600,8.397050537109376,-0.695648193359375,-0.10687255859375,-0.0242156982421875
1772537145300098300,8.407098388671875,-0.8343048095703125,-0.0953521728515625,-0.0786590576171875
1772537145310146600,8.417146484375,-0.9513397216796875,-0.1369476318359375,-0.144073486328125
1772537145320195300,8.4271953125,-1.054656982421875,-0.1448822021484375,-0.2164154052734375
1772537145330243300,8.437243408203125,-1.1145477294921875,-0.11956787109375,-0.2916107177734375
1772537145340291600,8.44729150390625,-1.154266357421875,-0.074951171875,-0.3675384521484375
1772537145350340400,8.45734033203125,-1.220458984375,0.003662109375,-0.4141387939453125
1772537145360388600,8.467388671875,-1.2908172607421875,0.112884521484375,-0.421234130859375
1772537145370436400,8.477436279296874,-1.405731201171875,0.1345672607421875,-0.415496826171875
1772537145380484600,8.487484619140625,-1.5782318115234375,0.149017333984375,-0.331451416015625
1772537145390533400,8.497533447265624,-1.752838134765625,0.217742919921875,-0.236480712890625
1772537145400581400,8.507581298828125,-1.8540496826171875,0.1844329833984375,-0.2145538330078125
1772537145410629600,8.517629638671876,-1.871368408203125,0.1303253173828125,-0.2003173828125
1772537145420678400,8.527678466796875,-1.8565826416015625,0.0853118896484375,-0.166839599609375
1772537145430726700,8.5377265625,-1.9124908447265625,-0.021881103515625,-0.159393310546875
1772537145440774400,8.5477744140625,-1.9438018798828125,-0.0870361328125,-0.1527099609375
1772537145450823400,8.557823486328125,-1.877838134765625,-0.1204376220703125,-0.1595458984375
1772537145460871400,8.567871337890624,-1.79730224609375,-0.1725311279296875,-0.1695556640625
1772537145470919400,8.57791943359375,-1.72320556640625,-0.1937713623046875,-0.1715240478515625
1772537145480968400,8.587968505859376,-1.6751861572265625,-0.17999267578125,-0.168731689453125
1772537145491016400,8.598016357421875,-1.6496124267578125,-0.16009521484375,-0.1605224609375
1772537145501064400,8.608064453125,-1.643157958984375,-0.1296844482421875,-0.15032958984375
1772537145511113500,8.618113525390624,-1.6395111083984375,-0.0925140380859375,-0.1529388427734375
1772537145521161500,8.628161376953125,-1.6481170654296875,-0.072235107421875,-0.1884918212890625
1772537145531209500,8.63820947265625,-1.650299072265625,-0.040374755859375,-0.2365570068359375
1772537145541258500,8.648258544921875,-1.61627197265625,0.0406036376953125,-0.293975830078125
1772537145551306500,8.658306396484376,-1.57000732421875,0.12933349609375,-0.3662872314453125
1772537145561354500,8.6683544921875,-1.4869232177734375,0.249176025390625,-0.427703857421875
1772537145571403500,8.678403564453125,-1.40435791015625,0.3608245849609375,-0.4685211181640625
1772537145581451500,8.688451416015624,-1.311767578125,0.4503631591796875,-0.4751434326171875
1772537145591499500,8.69849951171875,-1.2334747314453125,0.4903717041015625,-0.45196533203125
1772537145601547500,8.708547607421876,-1.215484619140625,0.4414520263671875,-0.4147491455078125
1772537145611596500,8.718596435546875,-1.170318603515625,0.35418701171875,-0.3629150390625
1772537145621644500,8.72864453125,-1.0256805419921875,0.2857818603515625,-0.2926025390625
1772537145631692300,8.7386923828125,-0.8336334228515625,0.1990814208984375,-0.236602783203125
1772537145641741600,8.748741455078125,-0.69329833984375,0.0963287353515625,-0.1796417236328125
1772537145651789300,8.758789306640624,-0.5704498291015625,-0.029327392578125,-0.11492919921875
1772537145661837600,8.768837646484375,-0.4294586181640625,-0.1145477294921875,-0.0458526611328125
1772537145671886300,8.77888623046875,-0.2683563232421875,-0.1483001708984375,0.02142333984375
1772537145681934300,8.788934326171875,-0.157135009765625,-0.1555023193359375,0.07073974609375
1772537145691982600,8.798982666015625,-0.1398162841796875,-0.1552886962890625,0.1205902099609375
1772537145702031400,8.80903125,-0.081756591796875,-0.146026611328125,0.14508056640625
1772537145712079600,8.81907958984375,0.005950927734375,-0.13275146484375,0.136993408203125
1772537145722127400,8.82912744140625,0.0901947021484375,-0.1376800537109375,0.1033172607421875
1772537145732176600,8.8391767578125,0.1317138671875,-0.134735107421875,0.0647430419921875
1772537145742224400,8.849224365234376,0.181488037109375,-0.0816497802734375,0.0332489013671875
1772537145752272400,8.8592724609375,0.1584320068359375,-0.052581787109375,0.0117340087890625
