time,seconds_elapsed,z,y,x
1772537136983853000,0.09085302734375,0.34873390197753906,0.3258213996887207,0.752487301826477
1772537136993901300,0.1009013671875,0.16898052394390106,0.26163238286972046,0.5907520055770874
1772537137003949000,0.110948974609375,0.20192435383796692,0.5371028780937195,0.3358500003814697
1772537137013998300,0.120998291015625,0.3742794096469879,0.4520677328109741,0.17058691382408142
1772537137024046000,0.131046142578125,0.5229871273040771,0.20498071610927582,0.09158451110124588
1772537137034094000,0.141093994140625,0.6298936605453491,0.10405812412500381,0.11377796530723572
1772537137044143000,0.15114306640625,0.6750525832176208,0.1498602330684662,0.19033318758010864
1772537137054191000,0.161191162109375,0.6654459834098816,0.3291753828525543,0.29521000385284424
1772537137064239400,0.1712392578125,0.6193525195121765,0.4559016227722168,0.4081389605998993
1772537137074287900,0.181287841796875,0.5295547246932983,0.4382404386997223,0.5066772103309631
1772537137084336000,0.191336181640625,0.37801679968833923,0.41724860668182373,0.5383022427558899
1772537137094383900,0.2013837890625,0.21416695415973663,0.5281363129615784,0.5114878416061401
1772537137104433000,0.211432861328125,0.08955845236778259,0.7169362902641296,0.43953776359558105
1772537137114481000,0.22148095703125,-0.05563616380095482,0.2625272870063782,0.346735417842865
1772537137124529000,0.23152880859375,-0.22385099530220032,0.2155030518770218,0.28522786498069763
1772537137134578000,0.241577880859375,-0.3871510326862335,0.010059855878353119,0.29735592007637024
1772537137144626000,0.2516259765625,-0.47869959473609924,-0.06529481709003448,0.33172667026519775
1772537137154674000,0.261673828125,-0.4576379656791687,-0.07865775376558304,0.4548241198062897
1772537137164723000,0.271722900390625,-0.38835716247558594,-0.11129319667816162,0.7058278918266296
1772537137174771000,0.28177099609375,-0.36028286814689636,-0.20333334803581238,0.960501492023468
1772537137184819000,0.29181884765625,-0.33415111899375916,-0.2138323187828064,1.173160433769226
1772537137194868000,0.301867919921875,-0.2666279077529907,-0.03927723690867424,1.3006787300109863
1772537137204916000,0.311916015625,-0.16048122942447662,0.2675434350967407,1.3362863063812256
1772537137214964000,0.3219638671875,-0.047181740403175354,0.5473395586013794,1.3023957014083862
1772537137225013000,0.332012939453125,0.040783535689115524,0.6712548136711121,1.1936366558074951
1772537137235061000,0.34206103515625,0.14746789634227753,0.7492873072624207,0.9651253819465637
1772537137245108700,0.352108642578125,0.2556249797344208,0.7040210366249084,0.6637956500053406
1772537137255158000,0.362157958984375,0.27870240807533264,0.4908788502216339,0.3443797826766968
1772537137265205800,0.372205810546875,0.1911936104297638,0.3315182030200958,-0.001441530417650938
1772537137275254000,0.38225390625,0.0428406298160553,0.1884714514017105,-0.39904409646987915
1772537137285302800,0.392302734375,-0.08244138956069946,0.05144143104553223,-0.8269320726394653
1772537137295351000,0.40235107421875,-0.15625862777233124,-0.08047080785036087,-1.2676842212677002
1772537137305399000,0.41239892578125,-0.11451490968465805,-0.09650063514709473,-1.679100513458252
1772537137315447800,0.42244775390625,-0.006047417409718037,-0.017337435856461525,-1.990073800086975
1772537137325496000,0.43249609375,0.09088072925806046,0.12164334952831268,-2.1505658626556396
1772537137335543800,0.442543701171875,0.1404300034046173,0.24008749425411224,-2.1777522563934326
1772537137345593000,0.452593017578125,0.1262366771697998,0.36922308802604675,-2.093944787979126
1772537137355640800,0.462640869140625,0.06282370537519455,0.4364498555660248,-1.9182628393173218
1772537137365689000,0.472689208984375,-0.016047673299908638,0.4390488564968109,-1.6919904947280884
1772537137375737900,0.48273779296875,-0.052150554955005646,0.43138331174850464,-1.4639252424240112
1772537137385785900,0.492785888671875,-0.0652698203921318,0.42620986700057983,-1.269371509552002
1772537137395833900,0.502833740234375,-0.07833932340145111,0.4224402904510498,-1.1429710388183594
1772537137405883000,0.5128828125,-0.08379347622394562,0.44638609886169434,-1.105217456817627
1772537137415931000,0.522930908203125,-0.05477054789662361,0.44541114568710327,-1.1609752178192139
1772537137425979000,0.532978759765625,-0.0036365240812301636,0.3818931579589844,-1.2778699398040771
1772537137436028000,0.54302783203125,0.059393007308244705,0.24972684681415558,-1.4411534070968628
1772537137446076000,0.553075927734375,0.147007554769516,0.03797810152173042,-1.5848808288574219
1772537137456124000,0.5631240234375,0.2584003508090973,-0.17288967967033386,-1.628817081451416
1772537137466173000,0.5731728515625,0.3492652475833893,-0.2194840908050537,-1.5399583578109741
1772537137476221000,0.583220947265625,0.390130877494812,-0.20348943769931793,-1.2818315029144287
1772537137486269000,0.59326904296875,0.3752078711986542,-0.22606371343135834,-0.8742921948432922
1772537137496318000,0.60331787109375,0.31681448221206665,-0.17682072520256042,-0.37879931926727295
1772537137506366000,0.613365966796875,0.24101375043392181,-0.02767038159072399,0.10764596611261368
1772537137516414000,0.6234140625,0.14575402438640594,0.151107057929039,0.5167823433876038
1772537137526463000,0.633462890625,0.02061101421713829,0.3146619200706482,0.7516934275627136
1772537137536511000,0.643510986328125,-0.09208449721336365,0.3705597519874573,0.7772794365882874
1772537137546559000,0.65355908203125,-0.18250440061092377,0.24586759507656097,0.6763991713523865
1772537137556608000,0.66360791015625,-0.2565905749797821,-0.05270388722419739,0.5703017711639404
1772537137566656000,0.673656005859375,-0.33164989948272705,-0.3937666714191437,0.58766770362854
1772537137576704000,0.6837041015625,-0.37752869725227356,-0.5980648398399353,0.7428746819496155
1772537137586752800,0.693752685546875,-0.35345080494880676,-0.6399182677268982,0.9893321394920349
1772537137596801000,0.703801025390625,-0.298900306224823,-0.5702894330024719,1.3162399530410767
1772537137606849000,0.71384912109375,-0.2493772655725479,-0.450658917427063,1.6878875494003296
1772537137616897800,0.723897705078125,-0.22490347921848297,-0.32714852690696716,2.069463014602661
1772537137626946000,0.733946044921875,-0.18724983930587769,-0.1967390924692154,2.4101803302764893
1772537137636993800,0.743993896484375,-0.08710318803787231,-0.0674058347940445,2.65401291847229
1772537137647043000,0.75404296875,0.08903002738952637,0.09066582471132278,2.7562243938446045
1772537137657090800,0.7640908203125,0.2692306637763977,0.21339213848114014,2.731910467147827
1772537137667138800,0.774138916015625,0.40510913729667664,0.2553776800632477,2.578521966934204
1772537137677187800,0.784187744140625,0.46012210845947266,0.2043328881263733,2.3216073513031006
1772537137687235800,0.79423583984375,0.4327075481414795,0.08650825917720795,2.0156259536743164
1772537137697284000,0.8042841796875,0.3261948823928833,-0.017753196880221367,1.706749677658081
1772537137707332900,0.814332763671875,0.16141314804553986,-0.0918993279337883,1.4248543977737427
1772537137717381000,0.824381103515625,0.02305273711681366,-0.039679333567619324,1.1435520648956299
1772537137727428900,0.834428955078125,-0.07633030414581299,0.26543956995010376,0.8109235167503357
1772537137737476900,0.844476806640625,-0.1423497498035431,0.6846274137496948,0.4472031891345978
1772537137747526000,0.85452587890625,-0.1466882973909378,1.0754234790802002,-0.00616509560495615
1772537137757574000,0.864573974609375,-0.06363562494516373,1.3064197301864624,-0.6351600885391235
1772537137767623000,0.874622802734375,0.03994403034448624,1.2263590097427368,-1.3920639753341675
1772537137777671000,0.8846708984375,0.10739384591579437,0.9853209257125854,-2.15924334526062
1772537137787719000,0.894718994140625,0.05246854946017265,0.5875447988510132,-2.7621383666992188
1772537137797767000,0.904766845703125,-0.019648853689432144,0.1402292102575302,-3.1256837844848633
1772537137807816000,0.91481591796875,0.027452878654003143,-0.43452274799346924,-3.1467623710632324
1772537137817864000,0.924864013671875,0.25281742215156555,-0.8424787521362305,-2.870704412460327
1772537137827912700,0.93491259765625,0.49848607182502747,-0.8449317812919617,-2.4317092895507812
1772537137837961000,0.9449609375,0.45124948024749756,-0.4429147243499756,-1.9319031238555908
1772537137848009000,0.955009033203125,0.09130781888961792,0.13935239613056183,-1.5655914545059204
1772537137858057000,0.965056884765625,-0.23836767673492432,0.46622806787490845,-1.398125410079956
1772537137868106000,0.97510595703125,-0.32990238070487976,0.4498315155506134,-1.3392856121063232
1772537137878154000,0.985154052734375,-0.2811693549156189,0.3405771255493164,-1.1573437452316284
1772537137888202000,0.995201904296875,-0.30276066064834595,0.3362167477607727,-0.8502786159515381
1772537137898250800,1.005250732421875,-0.39312943816185,0.3424246907234192,-0.5931350588798523
1772537137908299000,1.015299072265625,-0.43165579438209534,0.2555515766143799,-0.5122170448303223
1772537137918347000,1.025346923828125,-0.42208290100097656,0.043836601078510284,-0.5262307524681091
1772537137928396000,1.03539599609375,-0.352561891078949,-0.271422803401947,-0.5066493153572083
1772537137938443800,1.04544384765625,-0.22533105313777924,-0.4277602434158325,-0.39769598841667175
1772537137948491800,1.05549169921875,-0.02333613485097885,-0.39104270935058594,-0.2144007533788681
1772537137958540800,1.065540771484375,0.19268538057804108,-0.2556995451450348,0.017817076295614243
1772537137968588800,1.0755888671875,0.3303236961364746,-0.17090529203414917,0.22689466178417206
1772537137978637000,1.085636962890625,0.4142879843711853,-0.1649177521467209,0.3544999361038208
1772537137988685800,1.095685791015625,0.4683842360973358,-0.17842184007167816,0.42931610345840454
1772537137998734000,1.105734130859375,0.40260353684425354,-0.07091259956359863,0.551159143447876
1772537138008781800,1.11578173828125,0.22581490874290466,0.018011946231126785,0.716589093208313
1772537138018831000,1.1258310546875,0.014406048692762852,-0.03877422586083412,0.8833101987838745
1772537138028878800,1.13587890625,-0.27317699790000916,-0.21333378553390503,1.040674090385437
1772537138038926800,1.1459267578125,-0.5833562016487122,-0.32301077246665955,1.2173203229904175
1772537138048976000,1.155975830078125,-0.7995071411132812,-0.31687429547309875,1.3952991962432861
1772537138059024000,1.16602392578125,-0.8857795596122742,-0.26116132736206055,1.5395915508270264
1772537138069072100,1.176072021484375,-0.8663417100906372,-0.30738794803619385,1.6522507667541504
1772537138079124500,1.18612451171875,-0.8098912835121155,-0.3785887658596039,1.72016441822052
1772537138089172500,1.19617236328125,-0.7485512495040894,-0.4556015133857727,1.762988805770874
1772537138099220500,1.206220458984375,-0.6884812116622925,-0.5235522985458374,1.8153572082519531
1772537138109269500,1.21626953125,-0.6040448546409607,-0.5333511829376221,1.8729890584945679
1772537138119317500,1.2263173828125,-0.4713080823421478,-0.5280884504318237,1.9035966396331787
1772537138129365500,1.236365478515625,-0.3229266107082367,-0.4781624376773834,1.8866684436798096
1772537138139414500,1.24641455078125,-0.20886610448360443,-0.3736765384674072,1.7902201414108276
1772537138149462500,1.256462646484375,-0.18159587681293488,-0.25697416067123413,1.6524099111557007
1772537138159510500,1.266510498046875,-0.22379599511623383,-0.16300621628761292,1.4841707944869995
1772537138169559600,1.2765595703125,-0.2920975387096405,-0.07831823080778122,1.3258283138275146
1772537138179607600,1.286607666015625,-0.38038694858551025,-0.0770561695098877,1.182401180267334
1772537138189655600,1.296655517578125,-0.47435739636421204,-0.15796753764152527,0.9969749450683594
1772537138199704600,1.30670458984375,-0.5766220092773438,-0.1651286482810974,0.7500518560409546
1772537138209752600,1.316752685546875,-0.6642522215843201,-0.02825094759464264,0.4290109872817993
1772537138219800600,1.326800537109375,-0.6938809156417847,0.17422054708003998,0.09153296053409576
1772537138229849600,1.336849609375,-0.7331535220146179,0.25540992617607117,-0.24318856000900269
1772537138239897600,1.346897705078125,-0.7605233192443848,0.2520676553249359,-0.6938454508781433
1772537138249945600,1.356945556640625,-0.7368345260620117,0.2696668803691864,-1.29660165309906
1772537138259994600,1.36699462890625,-0.6386548280715942,0.35251015424728394,-1.989022135734558
1772537138270042600,1.377042724609375,-0.4279298186302185,0.5089301466941833,-2.613337993621826
1772537138280090600,1.387090576171875,-0.15739433467388153,0.532021701335907,-2.9307608604431152
1772537138290139400,1.397139404296875,0.0898418128490448,0.21697132289409637,-2.819575071334839
1772537138300187600,1.407187744140625,0.27274957299232483,-0.3917023837566376,-2.327516794204712
1772537138310235400,1.4172353515625,0.3204342722892761,-0.8093957901000977,-1.7076416015625
1772537138320284700,1.42728466796875,0.17981179058551788,-0.7298812866210938,-1.2303684949874878
1772537138330332400,1.43733251953125,-0.07004810869693756,-0.39702582359313965,-0.9678628444671631
1772537138340380700,1.447380615234375,-0.263590008020401,-0.06330294162034988,-0.8404622077941895
1772537138350429400,1.457429443359375,-0.32049375772476196,0.00020226649940013885,-0.6723363399505615
1772537138360477400,1.4674775390625,-0.340115487575531,-0.07344096899032593,-0.3969619572162628
1772537138370525700,1.477525634765625,-0.4223152995109558,-0.078302301466465,-0.24267491698265076
1772537138380574500,1.487574462890625,-0.49126869440078735,-0.12321740388870239,-0.3202883005142212
1772537138390622700,1.497622802734375,-0.4727461636066437,-0.2646685242652893,-0.5296266078948975
1772537138400670500,1.50767041015625,-0.4143482446670532,-0.43051576614379883,-0.7426000833511353
1772537138410719700,1.5177197265625,-0.3465830385684967,-0.5544196367263794,-0.8784481883049011
1772537138420767500,1.527767578125,-0.20928004384040833,-0.6401567459106445,-0.8755233287811279
1772537138430815500,1.5378154296875,0.046169035136699677,-0.774029016494751,-0.7177492380142212
1772537138440864500,1.547864501953125,0.2629038989543915,-0.8443562388420105,-0.49478116631507874
1772537138450912500,1.55791259765625,0.4106302261352539,-0.7882330417633057,-0.33589377999305725
1772537138460960500,1.56796044921875,0.5088322758674622,-0.5994169116020203,-0.27443554997444153
1772537138471008500,1.578008544921875,0.5192058086395264,-0.3300696015357971,-0.35186508297920227
1772537138481057500,1.5880576171875,0.4708084762096405,-0.06829828023910522,-0.5525670647621155
1772537138491105500,1.59810546875,0.36689671874046326,0.02789430320262909,-0.6807857751846313
1772537138501153500,1.608153564453125,0.16592898964881897,-0.010773486457765102,-0.5969159603118896
1772537138511202600,1.61820263671875,-0.02829906903207302,-0.13369008898735046,-0.2971590757369995
1772537138521250600,1.62825048828125,-0.20955772697925568,-0.268075555562973,0.14643201231956482
1772537138531298600,1.638298583984375,-0.38864412903785706,-0.38170889019966125,0.6530134677886963
1772537138541347600,1.64834765625,-0.517569363117218,-0.42811208963394165,1.1710957288742065
1772537138551395600,1.6583955078125,-0.5954135656356812,-0.38328176736831665,1.626967191696167
1772537138561443600,1.668443603515625,-0.6377416849136353,-0.23512698709964752,1.9829517602920532
1772537138571492400,1.678492431640625,-0.6182234287261963,-0.025409989058971405,2.2180094718933105
1772537138581540600,1.68854052734375,-0.5363215804100037,0.09602765738964081,2.3593788146972656
1772537138591588600,1.698588623046875,-0.44442811608314514,0.07045332342386246,2.4503355026245117
1772537138601637600,1.7086376953125,-0.3878020644187927,-0.02162463404238224,2.4577033519744873
1772537138611685600,1.718685546875,-0.372463583946228,-0.09237150102853775,2.3885231018066406
1772537138621733600,1.728733642578125,-0.38318291306495667,-0.07754761725664139,2.252669334411621
1772537138631782700,1.73878271484375,-0.36383265256881714,-0.0784861147403717,2.034431219100952
1772537138641830400,1.748830322265625,-0.3158780634403229,-0.12648753821849823,1.7821964025497437
1772537138651878700,1.758878662109375,-0.2684490382671356,-0.16537128388881683,1.5115680694580078
1772537138661927400,1.768927490234375,-0.25242090225219727,-0.1345142275094986,1.231709599494934
1772537138671975700,1.7789755859375,-0.2499457597732544,-0.04537476971745491,0.9325463175773621
1772537138682023400,1.7890234375,-0.23599380254745483,0.05739312246441841,0.5943158268928528
1772537138692072700,1.79907275390625,-0.2044510543346405,0.19621598720550537,0.256656289100647
1772537138702120400,1.809120361328125,-0.17499472200870514,0.377662718296051,-0.005701701622456312
1772537138712168400,1.81916845703125,-0.19340436160564423,0.5089250802993774,-0.17138122022151947
1772537138722217500,1.829217529296875,-0.2265642285346985,0.6455616354942322,-0.3348948657512665
1772537138732265500,1.839265380859375,-0.1838867962360382,0.8748224973678589,-0.571815550327301
1772537138742313700,1.849313720703125,-0.03694748133420944,1.1276214122772217,-0.8834804892539978
1772537138752362500,1.859362548828125,0.17434266209602356,1.1911849975585938,-1.257079005241394
1772537138762410800,1.86941064453125,0.3914165794849396,1.1087877750396729,-1.6661900281906128
1772537138772458500,1.87945849609375,0.548038899898529,0.9337230324745178,-2.0107839107513428
1772537138782507800,1.8895078125,0.6889820694923401,0.7308569550514221,-2.2465877532958984
1772537138792555500,1.899555419921875,0.8019943833351135,0.3933201730251312,-2.255000114440918
1772537138802603500,1.909603515625,0.9107504487037659,-0.06933851540088654,-2.0296051502227783
1772537138812652500,1.919652587890625,1.007132649421692,-0.4771560728549957,-1.7113555669784546
1772537138822700500,1.929700439453125,0.9553486108779907,-0.6383841037750244,-1.2965935468673706
1772537138832748500,1.93974853515625,0.6719315052032471,-0.37455564737319946,-0.9059221744537354
1772537138842797600,1.949797607421875,0.29059576988220215,-0.08039600402116776,-0.6976228356361389
1772537138852845600,1.959845458984375,0.003394083585590124,-0.11041728407144547,-0.673930287361145
1772537138862893600,1.9698935546875,-0.09333285689353943,-0.27747783064842224,-0.6693040728569031
1772537138872942300,1.9799423828125,-0.13566726446151733,-0.3670404851436615,-0.5570899248123169
1772537138882990600,1.989990478515625,-0.2636290192604065,-0.35919189453125,-0.3599179983139038
1772537138893038600,2.00003857421875,-0.45844244956970215,-0.28034690022468567,-0.19005893170833588
1772537138903087600,2.010087646484375,-0.5568690896034241,-0.18988633155822754,-0.1383812129497528
1772537138913135600,2.020135498046875,-0.5927583575248718,-0.14396971464157104,-0.16202661395072937
1772537138923183400,2.030183349609375,-0.5782738327980042,-0.16810375452041626,-0.20946019887924194
1772537138933232600,2.040232666015625,-0.49889326095581055,-0.25030460953712463,-0.2677306830883026
1772537138943280400,2.0502802734375,-0.3193127512931824,-0.31454360485076904,-0.33678165078163147
1772537138953328600,2.06032861328125,-0.09523727744817734,-0.37133336067199707,-0.3733881413936615
1772537138963377400,2.07037744140625,0.07345937937498093,-0.39873579144477844,-0.39553993940353394
1772537138973425700,2.08042578125,0.1325264275074005,-0.4094108045101166,-0.43606340885162354
1772537138983473700,2.0904736328125,0.059339553117752075,-0.4260008633136749,-0.4956251382827759
1772537138993522700,2.100522705078125,-0.12695254385471344,-0.3966248631477356,-0.5823938846588135
1772537139003570400,2.1105703125,-0.3297364115715027,-0.3822305202484131,-0.6868590712547302
1772537139013618400,2.120618408203125,-0.4881380498409271,-0.47899994254112244,-0.773102879524231
1772537139023667500,2.13066748046875,-0.5636624097824097,-0.7164122462272644,-0.8079495429992676
1772537139033715500,2.140715576171875,-0.5830206274986267,-0.9526810050010681,-0.7439753413200378
1772537139043763700,2.150763671875,-0.5550168752670288,-1.0076223611831665,-0.5806916356086731
1772537139053812500,2.1608125,-0.5405367612838745,-0.8958004713058472,-0.29653289914131165
1772537139063860700,2.17086083984375,-0.5438644289970398,-0.7275060415267944,0.05832924321293831
1772537139073904600,2.180904541015625,-0.525097131729126,-0.567349910736084,0.4365524351596832
1772537139083954000,2.190953857421875,-0.4715331792831421,-0.46198204159736633,0.8183534741401672
1772537139094001700,2.201001708984375,-0.41341179609298706,-0.3607691526412964,1.1923249959945679
1772537139104049700,2.211049560546875,-0.3822999596595764,-0.22778873145580292,1.5574164390563965
1772537139114098000,2.221097900390625,-0.39117228984832764,-0.06026098132133484,1.8766077756881714
1772537139124146700,2.231146728515625,-0.4008755087852478,0.08267486840486526,2.1069176197052
1772537139134195000,2.24119482421875,-0.38489121198654175,0.16536149382591248,2.2375223636627197
1772537139144242700,2.25124267578125,-0.3618677854537964,0.17159496247768402,2.251783609390259
1772537139154292000,2.2612919921875,-0.3275289833545685,0.14832213521003723,2.156329393386841
1772537139164339700,2.271339599609375,-0.28650936484336853,0.18449796736240387,1.9610331058502197
1772537139174387700,2.2813876953125,-0.23924760520458221,0.24556906521320343,1.6862069368362427
1772537139184436700,2.291436767578125,-0.2018004208803177,0.32206207513809204,1.3939684629440308
1772537139194484700,2.301484619140625,-0.2109382599592209,0.40170761942863464,1.1435034275054932
1772537139204532700,2.31153271484375,-0.2352735549211502,0.4966600239276886,0.887772798538208
1772537139214581800,2.321581787109375,-0.2444063425064087,0.6429679989814758,0.6371527910232544
1772537139224629800,2.331629638671875,-0.2745879888534546,0.6768122911453247,0.48610639572143555
1772537139234677800,2.341677734375,-0.2804219126701355,0.6326400637626648,0.32256564497947693
1772537139244726800,2.351726806640625,-0.2006325125694275,0.7269304990768433,-0.02924419939517975
1772537139254774800,2.36177490234375,-0.05277380347251892,1.0300706624984741,-0.5293280482292175
1772537139264822800,2.37182275390625,0.10535146296024323,1.3724075555801392,-1.0357775688171387
1772537139274871800,2.381871826171875,0.250676691532135,1.5820318460464478,-1.4938952922821045
1772537139284919800,2.391919921875,0.3643587827682495,1.5500670671463013,-1.8549895286560059
1772537139294967800,2.4019677734375,0.40941840410232544,1.3003696203231812,-1.9720988273620605
1772537139305016800,2.412016845703125,0.44840648770332336,0.9370265007019043,-1.8735942840576172
1772537139315064800,2.42206494140625,0.5218596458435059,0.5301242470741272,-1.691683292388916
1772537139325112800,2.43211279296875,0.5865793228149414,0.22420497238636017,-1.5074094533920288
1772537139335161600,2.44216162109375,0.5486559271812439,0.05684872716665268,-1.3496581315994263
1772537139345209900,2.4522099609375,0.36531537771224976,-0.09396035224199295,-1.2554715871810913
1772537139355257900,2.4622578125,0.06990665197372437,-0.23536434769630432,-1.2612553834915161
1772537139365307000,2.472306884765625,-0.07664205133914948,-0.3317793011665344,-1.3120675086975098
1772537139375355000,2.48235498046875,-0.0025720838457345963,-0.4308861792087555,-1.257814884185791
1772537139385403000,2.49240283203125,0.06439072638750076,-0.5684307217597961,-1.0756906270980835
1772537139395452000,2.502451904296875,0.010374627076089382,-0.7176662683486938,-0.7932925224304199
1772537139405499600,2.512499755859375,-0.10676277428865433,-0.7892084121704102,-0.4364989995956421
1772537139415548000,2.5225478515625,-0.20706167817115784,-0.6428285837173462,-0.12316663563251495
1772537139425596700,2.5325966796875,-0.24997925758361816,-0.36353033781051636,0.16526196897029877
1772537139435645000,2.54264501953125,-0.23484745621681213,-0.08781513571739197,0.41779619455337524
1772537139445692700,2.552692626953125,-0.16157910227775574,0.11935561895370483,0.5790255665779114
1772537139455742000,2.562741943359375,-0.04183858633041382,0.2458254098892212,0.5939406156539917
1772537139465789700,2.572789794921875,0.09712154418230057,0.2549232542514801,0.5105552673339844
1772537139475837700,2.582837646484375,0.18343485891819,0.13953618705272675,0.3303685188293457
1772537139485886700,2.59288671875,0.1975630223751068,-0.01682102680206299,0.0917966216802597
1772537139495934700,2.602934814453125,0.18798735737800598,-0.19051052629947662,-0.15086770057678223
1772537139505983000,2.61298291015625,0.2126358300447464,-0.3851049542427063,-0.3217875063419342
1772537139516031700,2.62303173828125,0.22589170932769775,-0.5296696424484253,-0.3834252953529358
1772537139526080000,2.633080078125,0.20607955753803253,-0.5261280536651611,-0.3739093840122223
1772537139536127700,2.643127685546875,0.1861058473587036,-0.4754156172275543,-0.2989051938056946
1772537139546177000,2.653177001953125,0.160380557179451,-0.42794927954673767,-0.17278216779232025
1772537139556224800,2.663224853515625,0.12164781242609024,-0.39068126678466797,-0.03288523852825165
1772537139566272800,2.673272705078125,0.08287765830755234,-0.3971281945705414,0.10411480069160461
1772537139576321800,2.68332177734375,0.04170465096831322,-0.46256738901138306,0.2616724669933319
1772537139586369800,2.693369873046875,0.010185006074607372,-0.545904278755188,0.44398829340934753
1772537139596417800,2.703417724609375,-0.004070362076163292,-0.609420657157898,0.6142300963401794
1772537139606466800,2.713466796875,0.00943386647850275,-0.6157813668251038,0.8137477040290833
1772537139616514600,2.7235146484375,0.018159713596105576,-0.5103244781494141,1.0558222532272339
1772537139626562800,2.733562744140625,-0.015729740262031555,-0.3304536044597626,1.3354898691177368
1772537139636611600,2.743611572265625,-0.07853985577821732,-0.18659231066703796,1.6180648803710938
1772537139646659800,2.753659912109375,-0.12484124302864075,-0.06133329123258591,1.8513303995132446
1772537139656707800,2.763707763671875,-0.12276318669319153,0.07848186790943146,2.01826548576355
1772537139666756900,2.7737568359375,-0.06691370904445648,0.22137819230556488,2.1329619884490967
1772537139676804900,2.783804931640625,0.01197897456586361,0.3661082088947296,2.19063663482666
1772537139686852600,2.7938525390625,0.08299863338470459,0.5233395099639893,2.1789679527282715
1772537139696900900,2.80390087890625,0.13472813367843628,0.6515496969223022,2.100708246231079
1772537139706949600,2.81394970703125,0.1645316183567047,0.7672329545021057,1.989945650100708
1772537139716998000,2.823997802734375,0.19454890489578247,0.8640377521514893,1.8308321237564087
1772537139727046000,2.8340458984375,0.2095065414905548,0.8849436044692993,1.6197543144226074
1772537139737095000,2.844094970703125,0.21332179009914398,0.8256906270980835,1.3591480255126953
1772537139747143000,2.854142822265625,0.21401235461235046,0.756191074848175,1.033543348312378
1772537139757190700,2.864190673828125,0.195120170712471,0.6953284740447998,0.6351078152656555
1772537139767240000,2.874239990234375,0.2047928422689438,0.6337676048278809,0.10760030150413513
1772537139777287700,2.88428759765625,0.2316683977842331,0.5576699376106262,-0.5614539384841919
1772537139787336000,2.8943359375,0.25624802708625793,0.4795757532119751,-1.273837685585022
1772537139797384700,2.904384765625,0.2746608555316925,0.400644451379776,-1.927609920501709
1772537139807433000,2.914432861328125,0.33320727944374084,0.3759647011756897,-2.436218738555908
1772537139817480700,2.924480712890625,0.45920833945274353,0.27886638045310974,-2.6420953273773193
1772537139827530000,2.934530029296875,0.5395770072937012,0.13549217581748962,-2.5512075424194336
1772537139837577700,2.94457763671875,0.5238467454910278,0.0846945121884346,-2.24949312210083
1772537139847625700,2.954625732421875,0.42907729744911194,0.2369227558374405,-1.843685269355774
1772537139857674800,2.9646748046875,0.16597960889339447,0.48467105627059937,-1.428099513053894
1772537139867722800,2.97472265625,-0.16444805264472961,0.5488210916519165,-1.2216330766677856
1772537139877771000,2.98477099609375,-0.3594151437282562,0.4004306197166443,-1.2462081909179688
1772537139887819800,2.99481982421875,-0.3177073895931244,0.21143071353435516,-1.344627857208252
1772537139897868000,3.004867919921875,-0.11207884550094604,0.10126028209924698,-1.432344675064087
1772537139907915800,3.014915771484375,0.013931810855865479,-0.02414957620203495,-1.4659724235534668
1772537139917964800,3.02496484375,-0.038567882031202316,-0.25447332859039307,-1.4196357727050781
1772537139928012800,3.0350126953125,-0.19525916874408722,-0.4939028024673462,-1.2276257276535034
1772537139938060800,3.045060791015625,-0.319582998752594,-0.5673559904098511,-0.8465145230293274
1772537139948109800,3.05510986328125,-0.32262465357780457,-0.4679068922996521,-0.34702354669570923
1772537139958157800,3.06515771484375,-0.20236852765083313,-0.32597026228904724,0.18641401827335358
1772537139968205600,3.07520556640625,-0.04002710431814194,-0.21454033255577087,0.6408987641334534
1772537139978254800,3.0852548828125,0.10221605747938156,-0.1545659452676773,0.9249904155731201
1772537139988302600,3.095302490234375,0.1816817969083786,-0.14238092303276062,1.0559253692626953
1772537139998350800,3.105350830078125,0.20474903285503387,-0.1934656798839569,1.050576090812683
1772537140008399600,3.115399658203125,0.20416612923145294,-0.3087557852268219,0.9118163585662842
1772537140018448000,3.12544775390625,0.175357386469841,-0.45488715171813965,0.6713448762893677
1772537140028496000,3.135495849609375,0.08527996391057968,-0.5955291986465454,0.3748103976249695
1772537140038545000,3.145544921875,-0.07207290828227997,-0.7095963954925537,0.07728630304336548
1772537140048593000,3.155593017578125,-0.22424954175949097,-0.8179250955581665,-0.1752040833234787
1772537140058640600,3.165640625,-0.30060848593711853,-0.8747417330741882,-0.3642248511314392
1772537140068690000,3.17568994140625,-0.32054403424263,-0.8352837562561035,-0.4271659553050995
1772537140078738000,3.185738037109375,-0.2808022201061249,-0.7159675359725952,-0.3433578610420227
1772537140088786000,3.195785888671875,-0.2090199738740921,-0.585117757320404,-0.17003177106380463
1772537140098835000,3.2058349609375,-0.1454537808895111,-0.5402331352233887,0.08418186753988266
1772537140108883000,3.215883056640625,-0.09761668741703033,-0.5334365963935852,0.34611159563064575
1772537140118931000,3.225930908203125,-0.07301920652389526,-0.5178011655807495,0.5994881987571716
1772537140128979000,3.23597900390625,-0.040333092212677,-0.44028398394584656,0.8672792315483093
1772537140139027700,3.24602783203125,0.005337457172572613,-0.2710808217525482,1.121566653251648
1772537140149076000,3.256075927734375,0.030751200392842293,-0.11585702747106552,1.3750855922698975
1772537140159124700,3.266124755859375,0.057170554995536804,-0.03469160199165344,1.592035174369812
1772537140169173000,3.276173095703125,0.08910052478313446,0.03481557220220566,1.7202157974243164
1772537140179221000,3.286220947265625,0.13514631986618042,0.14269916713237762,1.7657476663589478
1772537140189268700,3.296268798828125,0.19344542920589447,0.32664695382118225,1.7344328165054321
1772537140199318000,3.306318115234375,0.25926172733306885,0.5804600119590759,1.6371827125549316
1772537140209365800,3.31636572265625,0.2896117568016052,0.8448336124420166,1.518409013748169
1772537140219414000,3.3264140625,0.27563685178756714,1.0096133947372437,1.4233254194259644
1772537140229462800,3.336462890625,0.1979958564043045,1.0580381155014038,1.3833136558532715
1772537140239511000,3.346510986328125,0.07029329240322113,1.0069453716278076,1.3106812238693237
1772537140249559000,3.35655908203125,-0.046682532876729965,0.9276801943778992,1.0384502410888672
1772537140259608000,3.366608154296875,-0.07071755826473236,0.8139126300811768,0.46325933933258057
1772537140269656000,3.376656005859375,0.021105758845806122,0.691003143787384,-0.3327774107456207
1772537140279703800,3.386703857421875,0.16155847907066345,0.5658702254295349,-1.127173900604248
1772537140289753000,3.396753173828125,0.2519187927246094,0.5288881659507751,-1.6662219762802124
1772537140299800800,3.40680078125,0.2897023856639862,0.6475480198860168,-1.7969845533370972
1772537140309849000,3.41684912109375,0.37993887066841125,0.6334369778633118,-1.6920034885406494
1772537140319897900,3.42689794921875,0.5322698354721069,0.4203662574291229,-1.5668983459472656
1772537140329946000,3.436946044921875,0.6012616753578186,0.11125835031270981,-1.4722586870193481
1772537140339993900,3.446993896484375,0.5545035004615784,-0.13993951678276062,-1.3392982482910156
1772537140350043000,3.45704296875,0.29735904932022095,-0.25808945298194885,-1.0827937126159668
1772537140360091000,3.4670908203125,-0.026935406029224396,-0.27908608317375183,-0.6965053677558899
1772537140370139000,3.477138916015625,-0.15685352683067322,-0.17056111991405487,-0.29581329226493835
1772537140380188000,3.48718798828125,-0.11761131882667542,0.04041209816932678,-0.002014671452343464
1772537140390236000,3.49723583984375,-0.08994613587856293,0.21276961266994476,0.14113199710845947
1772537140400284000,3.507283935546875,-0.1690814346075058,0.2496189922094345,0.16995911300182343
1772537140410333000,3.5173330078125,-0.30361953377723694,0.14993606507778168,0.09222229570150375
1772537140420381000,3.527380859375,-0.36945420503616333,-0.03025606833398342,-0.013262849301099777
1772537140430429000,3.537428955078125,-0.3325439691543579,-0.15259802341461182,-0.026380322873592377
1772537140440478000,3.54747802734375,-0.22015191614627838,-0.2276427149772644,0.07414655387401581
1772537140450526000,3.55752587890625,-0.06994552165269852,-0.3001209795475006,0.2313789427280426
1772537140460574000,3.567573974609375,0.1000581681728363,-0.31129851937294006,0.33065706491470337
1772537140470623000,3.577623046875,0.28138968348503113,-0.22811852395534515,0.2938110828399658
1772537140480671000,3.5876708984375,0.4568435251712799,-0.08956091105937958,0.10696583241224289
1772537140490718700,3.59771875,0.5902286767959595,-0.01924656145274639,-0.1719486266374588
1772537140500768000,3.60776806640625,0.6339263319969177,-0.06149441376328468,-0.44232019782066345
1772537140510815700,3.617815673828125,0.5837377905845642,-0.15601837635040283,-0.6245880126953125
1772537140520864000,3.627864013671875,0.46595653891563416,-0.2502860128879547,-0.7156702280044556
1772537140530912800,3.637912841796875,0.2938297688961029,-0.31655800342559814,-0.7293145656585693
1772537140540961000,3.6479609375,0.120195671916008,-0.3898785710334778,-0.6706233024597168
1772537140551009000,3.658009033203125,-0.05797847360372543,-0.4467214047908783,-0.5595421195030212
1772537140561058000,3.66805810546875,-0.16050885617733002,-0.42808833718299866,-0.434358149766922
1772537140571106000,3.67810595703125,-0.15430201590061188,-0.3804175853729248,-0.2880926728248596
1772537140581153800,3.68815380859375,-0.0678238570690155,-0.32761669158935547,-0.1278126984834671
1772537140591202000,3.6982021484375,0.06291107833385468,-0.27892354130744934,0.07378005981445312
1772537140601250800,3.708250732421875,0.17781023681163788,-0.2391558736562729,0.341168612241745
1772537140611299000,3.718299072265625,0.2286394238471985,-0.20679748058319092,0.6572718024253845
1772537140621347000,3.72834716796875,0.2446410357952118,-0.20743584632873535,0.9829292297363281
1772537140631395800,3.738395751953125,0.25282129645347595,-0.23625721037387848,1.2713570594787598
1772537140641443800,3.74844384765625,0.2633679509162903,-0.2525288462638855,1.5487583875656128
1772537140651491800,3.758491943359375,0.27066484093666077,-0.20597034692764282,1.8341671228408813
1772537140661540900,3.768540771484375,0.31847816705703735,-0.08548920601606369,2.0734212398529053
1772537140671588900,3.7785888671875,0.4281834363937378,0.1133556142449379,2.2198591232299805
1772537140681636900,3.788636962890625,0.5629791021347046,0.3186696171760559,2.284099817276001
1772537140691686000,3.798685791015625,0.641876757144928,0.4233456552028656,2.2710795402526855
1772537140701734000,3.80873388671875,0.6606667041778564,0.40541166067123413,2.163693428039551
1772537140711782000,3.818781982421875,0.6313369274139404,0.3543681502342224,1.9354865550994873
1772537140721831000,3.828830810546875,0.545589804649353,0.329705148935318,1.6141525506973267
1772537140731879000,3.83887890625,0.4213949739933014,0.33708852529525757,1.214737892150879
1772537140741927000,3.848927001953125,0.2755141854286194,0.347621351480484,0.7747008204460144
1772537140751976000,3.858975830078125,0.20510897040367126,0.40532684326171875,0.2832053005695343
1772537140762024000,3.86902392578125,0.14204637706279755,0.5350611209869385,-0.28638067841529846
1772537140772072000,3.879072021484375,0.010433144867420197,0.5893456339836121,-0.9178260564804077
1772537140782121000,3.889120849609375,-0.06339927017688751,0.5126838684082031,-1.630075454711914
1772537140792169000,3.8991689453125,-0.0057889679446816444,0.40956971049308777,-2.2774269580841064
1772537140802217000,3.909217041015625,0.045812442898750305,0.2829068601131439,-2.5172269344329834
1772537140812266000,3.919265869140625,0.055751096457242966,0.06326811760663986,-2.3583853244781494
1772537140822314000,3.92931396484375,0.03610122948884964,-0.2773461937904358,-1.8952875137329102
1772537140832362000,3.939362060546875,0.07410787045955658,-0.29289671778678894,-1.2978241443634033
1772537140842411000,3.949410888671875,0.11959625780582428,0.058737218379974365,-0.6246987581253052
1772537140852459000,3.959458984375,0.008723855949938297,0.6754230856895447,-0.01703547313809395
1772537140862506800,3.9695068359375,-0.17872433364391327,1.0831623077392578,0.31216663122177124
1772537140872556000,3.97955615234375,-0.3097672462463379,0.9500809907913208,0.3309691548347473
1772537140882603800,3.989603759765625,-0.3131161630153656,0.4351159632205963,0.13661403954029083
1772537140892652000,3.999652099609375,-0.227203831076622,-0.13567757606506348,-0.1844327300786972
1772537140902700800,4.00970068359375,-0.19588080048561096,-0.5679743885993958,-0.4365009367465973
1772537140912748800,4.019748779296875,-0.20603370666503906,-0.7053176760673523,-0.6371784806251526
1772537140922797000,4.029797119140625,-0.1842826008796692,-0.6524350047111511,-0.8172691464424133
1772537140932845800,4.039845703125,-0.22411590814590454,-0.6857966184616089,-0.9428173899650574
1772537140942894000,4.04989404296875,-0.2767713963985443,-0.7453145384788513,-1.011487603187561
1772537140952941800,4.05994189453125,-0.2755655348300934,-0.7287723422050476,-0.9808980226516724
1772537140962991000,4.0699912109375,-0.28421467542648315,-0.5902088284492493,-0.8523285984992981
1772537140973038800,4.080038818359375,-0.27992871403694153,-0.2723636031150818,-0.7328011989593506
1772537140983086800,4.0900869140625,-0.27164068818092346,0.08505740016698837,-0.6580129861831665
1772537140993135900,4.100135986328125,-0.32203423976898193,0.3642634153366089,-0.6643537282943726
1772537141003183900,4.110183837890625,-0.4290751814842224,0.528864860534668,-0.735092043876648
1772537141013231900,4.12023193359375,-0.5192965269088745,0.5222241878509521,-0.8266938924789429
1772537141023279900,4.13027978515625,-0.5794517397880554,0.31762024760246277,-0.9631327390670776
1772537141033329000,4.140328857421875,-0.6196807622909546,-0.06369562447071075,-1.1146026849746704
1772537141043377000,4.150376953125,-0.5994958281517029,-0.4178888499736786,-1.2309443950653076
1772537141053425000,4.1604248046875,-0.4981536567211151,-0.6398119926452637,-1.242681860923767
1772537141063474000,4.170473876953125,-0.35653766989707947,-0.7483839988708496,-1.0605589151382446
1772537141073522400,4.1805224609375,-0.208333820104599,-0.5951346755027771,-0.7070657014846802
1772537141083570200,4.190570068359375,-0.08894750475883484,-0.26142755150794983,-0.2737605571746826
1772537141093619500,4.200619384765625,-0.04455938935279846,0.0575525164604187,0.1643936187028885
1772537141103667200,4.210667236328125,-0.0828351378440857,0.19701561331748962,0.5095427632331848
1772537141113715500,4.220715576171875,-0.19612082839012146,0.15858158469200134,0.788264274597168
1772537141123764200,4.23076416015625,-0.35442790389060974,0.03616166114807129,1.0563281774520874
1772537141133812200,4.240812255859375,-0.47909608483314514,-0.04768836498260498,1.3062115907669067
1772537141143860200,4.250860107421875,-0.5344107151031494,-0.03684903308749199,1.513759732246399
1772537141153909200,4.2609091796875,-0.5218714475631714,-0.0009218822233378887,1.6709505319595337
1772537141163957200,4.270957275390625,-0.44437718391418457,0.013848807662725449,1.767454981803894
1772537141174005200,4.281005126953125,-0.31790223717689514,-0.025648226961493492,1.7917840480804443
1772537141184054300,4.29105419921875,-0.1981755793094635,-0.03669315204024315,1.7663466930389404
1772537141194102300,4.301102294921875,-0.14893217384815216,0.04495721310377121,1.688779592514038
1772537141204150300,4.311150390625,-0.14780138432979584,0.18600007891654968,1.5381989479064941
1772537141214199300,4.32119921875,-0.12000049650669098,0.30747413635253906,1.3014247417449951
1772537141224247300,4.331247314453125,-0.06509464234113693,0.4049375653266907,1.0164744853973389
1772537141234295300,4.34129541015625,-0.031395141035318375,0.5927298665046692,0.6819549202919006
1772537141244344300,4.35134423828125,-0.05138855800032616,0.7003748416900635,0.3234071433544159
1772537141254392300,4.361392333984375,-0.10008906573057175,0.6302789449691772,0.005754951387643814
1772537141264440300,4.3714404296875,-0.20834708213806152,0.47420042753219604,-0.3169666528701782
1772537141274489300,4.3814892578125,-0.33783242106437683,0.3075242042541504,-0.7671924829483032
1772537141284537300,4.391537353515625,-0.4315573275089264,0.12380284070968628,-1.3053412437438965
1772537141294585300,4.40158544921875,-0.45495009422302246,-0.011713113635778427,-1.7790147066116333
1772537141304634400,4.41163427734375,-0.37438735365867615,0.027115240693092346,-2.113757371902466
1772537141314682400,4.421682373046875,-0.20615127682685852,0.1835000365972519,-2.2653443813323975
1772537141324730400,4.43173046875,0.018416844308376312,0.34885168075561523,-2.1594507694244385
1772537141334779100,4.441779052734375,0.2260785549879074,0.35195741057395935,-1.753860354423523
1772537141344827400,4.451827392578125,0.33899766206741333,0.23508486151695251,-1.179222822189331
1772537141354875400,4.46187548828125,0.24377836287021637,0.14011168479919434,-0.679142951965332
1772537141364924200,4.471924072265625,-0.06655873358249664,0.17703162133693695,-0.3720199763774872
1772537141374972400,4.481972412109375,-0.32820871472358704,0.2243366837501526,-0.30935385823249817
1772537141385020200,4.492020263671875,-0.35518306493759155,0.19579824805259705,-0.3650999367237091
1772537141395069400,4.5020693359375,-0.23795004189014435,0.09563417732715607,-0.4428848624229431
1772537141405117200,4.5121171875,-0.16948603093624115,-0.025189710780978203,-0.5514624118804932
1772537141415165200,4.522165283203125,-0.15918944776058197,-0.20428915321826935,-0.7173851728439331
1772537141425213400,4.53221337890625,-0.1689605861902237,-0.44349244236946106,-0.9036197662353516
1772537141435262200,4.54226220703125,-0.15246835350990295,-0.6160299181938171,-1.0546412467956543
1772537141445310500,4.552310546875,-0.08140882104635239,-0.7299636602401733,-1.0925670862197876
1772537141455358200,4.562358154296875,0.0625084638595581,-0.7873804569244385,-0.9964145421981812
1772537141465407500,4.572407470703125,0.22376926243305206,-0.7548523545265198,-0.7786505222320557
1772537141475455200,4.582455322265625,0.35562601685523987,-0.6079207062721252,-0.5175484418869019
1772537141485503200,4.592503173828125,0.4321173131465912,-0.40496042370796204,-0.28527897596359253
1772537141495552300,4.60255224609375,0.47304627299308777,-0.21074295043945312,-0.18974146246910095
1772537141505600300,4.612600341796875,0.45477670431137085,-0.10016185790300369,-0.1909598559141159
1772537141515648300,4.622648193359375,0.3135562539100647,-0.16238512098789215,-0.23468825221061707
1772537141525697300,4.632697265625,0.08915937691926956,-0.2686535120010376,-0.31556499004364014
1772537141535745300,4.642745361328125,-0.2054370939731598,-0.32836249470710754,-0.3774968683719635
1772537141545793300,4.652793212890625,-0.5086501836776733,-0.37175923585891724,-0.330951452255249
1772537141555842300,4.66284228515625,-0.7177075147628784,-0.41621360182762146,-0.19203366339206696
1772537141565890300,4.672890380859375,-0.782002866268158,-0.4799249470233917,-0.016807783395051956
1772537141575938300,4.682938232421875,-0.6989903450012207,-0.5820692777633667,0.15968121588230133
1772537141585987300,4.6929873046875,-0.5278524160385132,-0.6551874279975891,0.3302875757217407
1772537141596035300,4.703035400390625,-0.3285404443740845,-0.69058758020401,0.4864247143268585
1772537141606083300,4.713083251953125,-0.1288936734199524,-0.6390088200569153,0.6713187098503113
1772537141616132400,4.72313232421875,0.02498217672109604,-0.5100663304328918,0.8613287806510925
1772537141626180400,4.733180419921875,0.12796421349048615,-0.3374822735786438,1.020504355430603
1772537141636228400,4.743228271484375,0.18075822293758392,-0.18617196381092072,1.1794880628585815
1772537141646277000,4.753277099609375,0.20343635976314545,-0.0735442191362381,1.3282489776611328
1772537141656325400,4.763325439453125,0.19715654850006104,-0.010144384577870369,1.4340900182724
1772537141666373400,4.773373291015625,0.18230409920215607,0.020495815202593803,1.464870572090149
1772537141676422400,4.78342236328125,0.1778307557106018,-0.03850226104259491,1.402417778968811
1772537141686470100,4.79347021484375,0.20134113729000092,-0.08675394207239151,1.2571970224380493
1772537141696518100,4.80351806640625,0.17102327942848206,0.049053456634283066,1.0403814315795898
1772537141706567200,4.813567138671875,0.12481982260942459,0.3311123251914978,0.7258763909339905
1772537141716615200,4.823615234375,0.0468980148434639,0.505365252494812,0.43841907382011414
1772537141726663400,4.833663330078125,-0.05972031131386757,0.507838249206543,0.25733157992362976
1772537141736712200,4.843712158203125,-0.13732115924358368,0.4706398844718933,0.07318554073572159
1772537141746760400,4.853760498046875,-0.18017834424972534,0.4305286705493927,-0.14208683371543884
1772537141756808200,4.86380810546875,-0.16898588836193085,0.4642818570137024,-0.4359480142593384
1772537141766857500,4.873857421875,-0.05718424916267395,0.6492852568626404,-0.8518429398536682
1772537141776905200,4.8839052734375,0.09092923998832703,0.8771284222602844,-1.237130880355835
1772537141786953200,4.893953125,0.22651183605194092,0.919380784034729,-1.4419548511505127
1772537141797002200,4.904002197265625,0.30668723583221436,0.6922420859336853,-1.4572731256484985
1772537141807050200,4.91405029296875,0.3428391218185425,0.23347824811935425,-1.3532949686050415
1772537141817098500,4.924098388671875,0.3378358483314514,-0.14267143607139587,-1.2095084190368652
1772537141827147300,4.934147216796875,0.31162261962890625,-0.17003914713859558,-1.045165777206421
1772537141837195500,4.944195556640625,0.32588040828704834,-0.035996489226818085,-0.8612829446792603
1772537141847243300,4.9542431640625,0.1713571548461914,0.009865007363259792,-0.6346729397773743
1772537141857291300,4.964291259765625,-0.13193471729755402,0.041994888335466385,-0.47478100657463074
1772537141867340300,4.97434033203125,-0.3219541907310486,0.03987767547369003,-0.41905197501182556
1772537141877388300,4.98438818359375,-0.33046483993530273,0.10823675245046616,-0.4168415665626526
1772537141887436300,4.994436279296875,-0.3196218013763428,0.22122429311275482,-0.4064512550830841
1772537141897485300,5.0044853515625,-0.3603861927986145,0.2713667154312134,-0.39500507712364197
1772537141907533300,5.014533203125,-0.40527990460395813,0.25369665026664734,-0.4624653458595276
1772537141917581300,5.024581298828125,-0.4276670813560486,0.12487763166427612,-0.5685076713562012
1772537141927630000,5.034630126953125,-0.41481760144233704,-0.06330771744251251,-0.5958518981933594
1772537141937678300,5.04467822265625,-0.33474859595298767,-0.1876431405544281,-0.510184645652771
1772537141947726300,5.054726318359375,-0.23246139287948608,-0.17961370944976807,-0.27069905400276184
1772537141957775400,5.064775390625,-0.0981169044971466,-0.04892360419034958,0.06578122079372406
1772537141967823400,5.0748232421875,0.08330215513706207,0.16923855245113373,0.3373091220855713
1772537141977871400,5.084871337890625,0.2090277075767517,0.32508864998817444,0.4746238589286804
1772537141987920400,5.09492041015625,0.23368804156780243,0.33981913328170776,0.4951555132865906
1772537141997968100,5.104968017578125,0.19565045833587646,0.23168805241584778,0.39816099405288696
1772537142008016400,5.115016357421875,0.13586968183517456,0.03649964928627014,0.21716219186782837
1772537142018065200,5.125065185546875,0.05099028721451759,-0.23099353909492493,-0.020847676321864128
1772537142028113400,5.135113525390625,-0.03858380392193794,-0.48554885387420654,-0.2633575201034546
1772537142038161200,5.1451611328125,-0.1080327033996582,-0.6394015550613403,-0.44094613194465637
1772537142048210400,5.15521044921875,-0.15146087110042572,-0.6667841672897339,-0.4876076281070709
1772537142058258200,5.165258056640625,-0.18748483061790466,-0.5978958606719971,-0.4099371135234833
1772537142068306200,5.17530615234375,-0.2121717929840088,-0.46401000022888184,-0.2348412275314331
1772537142078354700,5.185354736328125,-0.22803987562656403,-0.31552818417549133,-0.01046192366629839
1772537142088402400,5.19540234375,-0.2407865673303604,-0.18633346259593964,0.23319122195243835
1772537142098450700,5.20545068359375,-0.2208426147699356,-0.0858365148305893,0.43619826436042786
1772537142108499500,5.21549951171875,-0.19535456597805023,-0.03758642449975014,0.6048874258995056
1772537142118547700,5.225547607421875,-0.18920281529426575,-0.03302290290594101,0.766051709651947
1772537142128595700,5.235595703125,-0.20226295292377472,-0.016909446567296982,0.9037003517150879
1772537142138644700,5.245644775390625,-0.17547254264354706,-0.01888401247560978,0.9967977404594421
1772537142148692500,5.2556923828125,-0.10441780835390091,-0.039987701922655106,1.058839201927185
1772537142158740500,5.265740478515625,-0.07026364654302597,-0.03527194261550903,1.0962038040161133
1772537142168788700,5.275788818359375,-0.056566208600997925,0.0027670525014400482,1.0844610929489136
1772537142178837500,5.28583740234375,-0.04113485664129257,0.0536605603992939,1.025094985961914
1772537142188885800,5.2958857421875,-0.04622894898056984,0.05258197709918022,0.9336201548576355
1772537142198933500,5.30593359375,-0.08045394718647003,-0.013465307652950287,0.8082898855209351
1772537142208982800,5.315982666015625,-0.10656037926673889,-0.06873335689306259,0.6723344326019287
1772537142219030500,5.326030517578125,-0.09972049295902252,-0.08623506128787994,0.513400137424469
1772537142229078500,5.33607861328125,-0.08513766527175903,-0.06679245084524155,0.32467523217201233
1772537142239127600,5.34612744140625,-0.04923107102513313,-0.040066298097372055,0.09751717001199722
1772537142249175600,5.356175537109375,-0.008305246010422707,-0.04648999124765396,-0.16788046061992645
1772537142259223800,5.366223876953125,0.04782459884881973,-0.08187781274318695,-0.4575013816356659
1772537142269272600,5.3762724609375,0.12025098502635956,-0.09419860690832138,-0.6920260190963745
1772537142279320600,5.386320556640625,0.17835770547389984,-0.08017785847187042,-0.8448808193206787
1772537142289368600,5.39636865234375,0.23497909307479858,-0.007993183098733425,-0.9430617094039917
1772537142299417600,5.40641748046875,0.28931477665901184,0.07688096165657043,-0.952895998954773
1772537142309465600,5.416465576171875,0.32264503836631775,0.11087647825479507,-0.8335927724838257
1772537142319513600,5.426513671875,0.34443607926368713,0.04431476444005966,-0.6458699703216553
1772537142329562600,5.436562744140625,0.42490917444229126,0.08867720514535904,-0.6375786662101746
1772537142339610600,5.446610595703125,0.5933879017829895,0.30722475051879883,-0.8749232888221741
1772537142349658400,5.456658447265625,0.8003785610198975,0.4331987202167511,-1.1545634269714355
1772537142359707600,5.466707763671875,0.9209774136543274,0.2999565303325653,-1.281546711921692
1772537142369755400,5.47675537109375,0.8478163480758667,0.04345376044511795,-1.089701771736145
1772537142379803600,5.4868037109375,0.6435332298278809,-0.23317329585552216,-0.6986904144287109
1772537142389852400,5.496852294921875,0.4912751317024231,-0.3862830698490143,-0.40650781989097595
1772537142399900700,5.506900634765625,0.41431722044944763,-0.476753294467926,-0.30906248092651367
1772537142409948700,5.51694873046875,0.3750753402709961,-0.5686438083648682,-0.33810028433799744
1772537142419997700,5.526997802734375,0.3784969747066498,-0.5994446277618408,-0.4466496706008911
1772537142430045700,5.537045654296875,0.4223015010356903,-0.7059020400047302,-0.5866762399673462
1772537142440093400,5.547093505859375,0.49734485149383545,-0.8042756915092468,-0.6982360482215881
1772537142450142700,5.557142822265625,0.5402343273162842,-0.7950824499130249,-0.6744406223297119
1772537142460190500,5.5671904296875,0.5381101965904236,-0.662372350692749,-0.44793903827667236
1772537142470238700,5.57723876953125,0.5767709016799927,-0.45045486092567444,-0.040552712976932526
1772537142480287500,5.58728759765625,0.652209460735321,-0.18102657794952393,0.4516463279724121
1772537142490335700,5.597335693359375,0.7420202493667603,0.08929505944252014,0.9155112504959106
1772537142500383500,5.607383544921875,0.7907843589782715,0.35403507947921753,1.3080055713653564
1772537142510432500,5.6174326171875,0.7493191361427307,0.5609569549560547,1.5899603366851807
1772537142520480500,5.62748046875,0.6675071120262146,0.6040655374526978,1.6766284704208374
1772537142530528500,5.637528564453125,0.5126180052757263,0.4348873794078827,1.6215392351150513
1772537142540576800,5.64757666015625,0.2577250301837921,0.08867403864860535,1.5198349952697754
1772537142550625500,5.65762548828125,-0.02698865905404091,-0.2426958680152893,1.3804271221160889
1772537142560673500,5.667673583984375,-0.25347158312797546,-0.3993978500366211,1.2183319330215454
1772537142570721500,5.677721435546875,-0.36973801255226135,-0.40036365389823914,1.0712348222732544
1772537142580770600,5.6877705078125,-0.4272761344909668,-0.3329524099826813,0.9507523775100708
1772537142590818600,5.697818603515625,-0.49157869815826416,-0.30266106128692627,0.8450679779052734
1772537142600866600,5.707866455078125,-0.4940043091773987,-0.32687079906463623,0.7244259715080261
1772537142610915600,5.71791552734375,-0.4673507511615753,-0.34420084953308105,0.6261808276176453
1772537142620963600,5.727963623046875,-0.4807717502117157,-0.3492739200592041,0.5945349931716919
1772537142631011600,5.738011474609375,-0.5041186809539795,-0.3663284480571747,0.618257999420166
1772537142641060600,5.748060546875,-0.5090721249580383,-0.40912437438964844,0.6818649172782898
1772537142651108600,5.758108642578125,-0.4736062288284302,-0.3849045932292938,0.7207956910133362
1772537142661156600,5.768156494140625,-0.35469022393226624,-0.3151795566082001,0.6559857726097107
1772537142671205600,5.77820556640625,-0.2002193033695221,-0.17382173240184784,0.5084373354911804
1772537142681253600,5.788253662109375,-0.05975620821118355,0.002290180418640375,0.3425122797489166
1772537142691301600,5.798301513671875,0.025532741099596024,0.149546816945076,0.21786899864673615
1772537142701350700,5.8083505859375,0.04342252388596535,0.2303689569234848,0.11197930574417114
1772537142711398700,5.818398681640625,0.018025226891040802,0.24699145555496216,-0.00030205328948795795
1772537142721446400,5.8284462890625,-0.03595784679055214,0.209229975938797,-0.13753074407577515
1772537142731495700,5.83849560546875,-0.1219862625002861,0.15631240606307983,-0.24989236891269684
1772537142741543400,5.84854345703125,-0.21135368943214417,0.07236849516630173,-0.2954912781715393
1772537142751591700,5.858591796875,-0.21127666532993317,0.09878905862569809,-0.31871485710144043
1772537142761640400,5.868640380859375,-0.08266569674015045,0.2515575587749481,-0.3710624873638153
1772537142771688700,5.878688720703125,0.13171401619911194,0.4329749047756195,-0.48214441537857056
1772537142781736700,5.88873681640625,0.3415985405445099,0.5157382488250732,-0.6840213537216187
1772537142791785500,5.898785400390625,0.43802139163017273,0.47655564546585083,-0.957900881767273
1772537142801833700,5.908833740234375,0.4214397668838501,0.24994035065174103,-1.2451958656311035
1772537142811881500,5.918881591796875,0.3719828128814697,-0.04090942442417145,-1.5129168033599854
1772537142821930800,5.9289306640625,0.31966662406921387,-0.3410785496234894,-1.6946114301681519
1772537142831978500,5.938978515625,0.2988143265247345,-0.4729361832141876,-1.711098074913025
1772537142842026800,5.94902685546875,0.24436894059181213,-0.37394237518310547,-1.607861042022705
1772537142852075500,5.959075439453125,0.11278827488422394,-0.14795610308647156,-1.4906617403030396
1772537142862123500,5.96912353515625,-0.06975258141756058,-0.005100724287331104,-1.4777169227600098
1772537142872171500,5.979171630859375,-0.23293644189834595,-0.02218490093946457,-1.4130806922912598
1772537142882219500,5.989219482421875,-0.3086363971233368,-0.07862000167369843,-1.1990690231323242
1772537142892268500,5.9992685546875,-0.4037908613681793,-0.0014714282006025314,-0.8241915702819824
1772537142902316500,6.009316650390625,-0.5564743280410767,0.17267367243766785,-0.3563297390937805
1772537142912365600,6.019365478515625,-0.6676250696182251,0.32941189408302307,0.016225475817918777
1772537142922413600,6.02941357421875,-0.6763427257537842,0.4062923789024353,0.19709309935569763
1772537142932461600,6.039461669921875,-0.6069008111953735,0.3167060315608978,0.25671276450157166
1772537142942509600,6.049509521484375,-0.45552167296409607,0.13441744446754456,0.2814130485057831
1772537142952558600,6.05955859375,-0.211539626121521,0.010390049777925014,0.33543872833251953
1772537142962606600,6.069606689453125,0.12009207159280777,-0.014963801018893719,0.38985490798950195
1772537142972654600,6.079654541015625,0.45008939504623413,-0.0040645478293299675,0.3465457856655121
1772537142982703600,6.08970361328125,0.7318305373191833,-0.0028086211532354355,0.1468774378299713
1772537142992751600,6.099751708984375,0.9966827034950256,-0.04710337892174721,-0.24875937402248383
1772537143002799600,6.109799560546875,1.195177674293518,-0.016121916472911835,-0.7713724970817566
1772537143012848600,6.1198486328125,1.2623119354248047,0.09954662621021271,-1.2912098169326782
1772537143022896600,6.129896728515625,1.1950490474700928,0.20257394015789032,-1.6236326694488525
1772537143032944600,6.139944580078125,0.9964376091957092,0.21439971029758453,-1.6314780712127686
1772537143042993700,6.14999365234375,0.6652611494064331,0.13767756521701813,-1.2802785634994507
1772537143053041700,6.160041748046875,0.26424849033355713,0.0507890060544014,-0.7270960807800293
1772537143063089700,6.170089599609375,-0.10284637659788132,-0.07974313944578171,-0.13991326093673706
1772537143073138400,6.180138427734375,-0.40978899598121643,-0.19479994475841522,0.3642958402633667
1772537143083186700,6.190186767578125,-0.7038221955299377,-0.2307591438293457,0.7092246413230896
1772537143093234400,6.200234375,-0.9884065389633179,-0.19847017526626587,0.9277945160865784
1772537143103283700,6.21028369140625,-1.239283561706543,-0.13688498735427856,1.087909460067749
1772537143113331500,6.22033154296875,-1.3669956922531128,-0.08448196947574615,1.2218915224075317
1772537143123379700,6.230379638671875,-1.3721762895584106,-0.07409433275461197,1.3363536596298218
1772537143133428500,6.240428466796875,-1.263655662536621,-0.13969172537326813,1.437564492225647
1772537143143476500,6.2504765625,-1.0327904224395752,-0.16112953424453735,1.5236486196517944
1772537143153524700,6.260524658203125,-0.7456831932067871,-0.06109853833913803,1.5824029445648193
1772537143163573500,6.270573486328125,-0.46550190448760986,0.09587216377258301,1.6173250675201416
1772537143173621800,6.280621826171875,-0.2391585111618042,0.2566162943840027,1.593334436416626
1772537143183669500,6.29066943359375,-0.09184529632329941,0.3643941283226013,1.4801154136657715
1772537143193717500,6.300717529296875,-0.024983439594507217,0.37843137979507446,1.3321959972381592
1772537143203766500,6.3107666015625,-0.03326040133833885,0.30536097288131714,1.1806302070617676
1772537143213814500,6.320814453125,-0.06747748702764511,0.196952223777771,1.0287381410598755
1772537143223862500,6.330862548828125,-0.08625377714633942,0.10515815019607544,0.8599258065223694
1772537143233911600,6.34091162109375,-0.1045432984828949,0.11996133625507355,0.668143093585968
1772537143243959600,6.35095947265625,-0.1633482426404953,0.20543178915977478,0.45442885160446167
1772537143254007600,6.361007568359375,-0.23880624771118164,0.3200065493583679,0.1548624038696289
1772537143264056600,6.371056640625,-0.245632141828537,0.5732107162475586,-0.32611605525016785
1772537143274104600,6.3811044921875,-0.22732344269752502,0.7585086822509766,-0.8382909297943115
1772537143284152600,6.391152587890625,-0.2652921676635742,0.6773093938827515,-1.1956802606582642
1772537143294201600,6.40120166015625,-0.2941669821739197,0.4078713059425354,-1.408496379852295
1772537143304249600,6.41124951171875,-0.23666232824325562,-0.07697071880102158,-1.4436345100402832
1772537143314297600,6.421297607421875,-0.15412086248397827,-0.632323145866394,-1.33330237865448
1772537143324346600,6.4313466796875,-0.02869955077767372,-0.9087306261062622,-1.1869730949401855
1772537143334394600,6.44139453125,0.13103792071342468,-0.8266775608062744,-0.9781972765922546
1772537143344442600,6.451442626953125,0.2667732536792755,-0.42900964617729187,-0.7880992889404297
1772537143354491600,6.46149169921875,0.26782920956611633,0.07865436375141144,-0.6878179907798767
1772537143364539600,6.47153955078125,0.14237000048160553,0.30669403076171875,-0.668343722820282
1772537143374587600,6.481587646484375,-0.023278608918190002,0.19394482672214508,-0.6888442039489746
1772537143384636700,6.49163671875,-0.14961205422878265,0.019834155216813087,-0.7193517088890076
1772537143394684700,6.5016845703125,-0.2594517171382904,-0.07829267531633377,-0.7001659870147705
1772537143404732700,6.511732666015625,-0.34465524554252625,-0.08040373027324677,-0.6368716955184937
1772537143414781700,6.52178173828125,-0.38137489557266235,0.016409629955887794,-0.5451915860176086
1772537143424829400,6.531829345703125,-0.3627735376358032,0.19931447505950928,-0.36893588304519653
1772537143434877700,6.541877685546875,-0.28993821144104004,0.39720648527145386,-0.09577277302742004
1772537143444926500,6.551926513671875,-0.10878712683916092,0.5126090049743652,0.19263851642608643
1772537143454974700,6.561974609375,0.11187281459569931,0.5582662224769592,0.44643908739089966
1772537143465022500,6.5720224609375,0.2903982698917389,0.5851969718933105,0.6204463839530945
1772537143475071700,6.58207177734375,0.40814700722694397,0.5984454154968262,0.6821038722991943
1772537143485119500,6.592119384765625,0.4613552689552307,0.6091536283493042,0.6343839764595032
1772537143495167500,6.60216748046875,0.451402485370636,0.6733512878417969,0.508051335811615
1772537143505215700,6.6122158203125,0.37971916794776917,0.7724088430404663,0.35125449299812317
1772537143515264500,6.622264404296875,0.2524168789386749,0.8125376105308533,0.1621554046869278
1772537143525312800,6.632312744140625,0.12067949771881104,0.6570049524307251,-0.03252514824271202
1772537143535360500,6.642360595703125,0.016285181045532227,0.3061870336532593,-0.15181957185268402
1772537143545409800,6.652409912109375,-0.1360916942358017,-0.10861913114786148,-0.12734675407409668
1772537143555457500,6.66245751953125,-0.30791351199150085,-0.40886443853378296,0.008520001545548439
1772537143565505500,6.672505615234375,-0.44823309779167175,-0.4534672200679779,0.2215949296951294
1772537143575554600,6.682554443359375,-0.5471506118774414,-0.2792876958847046,0.41668587923049927
1772537143585602600,6.6926025390625,-0.6370202302932739,-0.03439958766102791,0.5240238308906555
1772537143595650600,6.702650634765625,-0.6917580366134644,0.02408103086054325,0.5797917246818542
1772537143605699600,6.712699462890625,-0.6657039523124695,-0.06896178424358368,0.679236888885498
1772537143615747600,6.72274755859375,-0.6125672459602356,-0.15318399667739868,0.8126487731933594
1772537143625795600,6.732795654296875,-0.5273536443710327,-0.19403305649757385,0.9630862474441528
1772537143635844600,6.7428447265625,-0.4014449417591095,-0.17453952133655548,1.0950976610183716
1772537143645892600,6.752892578125,-0.21732331812381744,-0.12728771567344666,1.1767371892929077
1772537143655940600,6.762940673828125,0.021077005192637444,-0.07433474808931351,1.2073427438735962
1772537143665989600,6.77298974609375,0.2655833065509796,-0.015117703005671501,1.1519153118133545
1772537143676037600,6.78303759765625,0.47621244192123413,0.07594909518957138,1.014185905456543
1772537143686085600,6.793085693359375,0.5921894907951355,0.14066730439662933,0.854912519454956
1772537143696134700,6.803134765625,0.5920882821083069,0.16417209804058075,0.676263153553009
1772537143706182400,6.813182373046875,0.5091685652732849,0.1843028962612152,0.47935375571250916
1772537143716230700,6.823230712890625,0.39785268902778625,0.20280972123146057,0.28974679112434387
1772537143726279400,6.833279541015625,0.2949635684490204,0.18063011765480042,0.17935319244861603
1772537143736327700,6.84332763671875,0.25089386105537415,0.16951969265937805,0.06656084954738617
1772537143746375700,6.853375732421875,0.22421200573444366,0.1795881986618042,-0.04613804444670677
1772537143756424700,6.8634248046875,0.1437525898218155,0.11823669075965881,-0.11272106319665909
1772537143766472700,6.87347265625,0.008929785341024399,-0.00907931849360466,-0.22730079293251038
1772537143776520400,6.8835205078125,-0.12182103097438812,-0.1280840039253235,-0.5200276970863342
1772537143786569500,6.893569580078125,-0.20406997203826904,-0.24787026643753052,-0.9284053444862366
1772537143796617500,6.903617431640625,-0.25268012285232544,-0.37898966670036316,-1.3555254936218262
1772537143806665700,6.913665771484375,-0.22256754338741302,-0.4912014603614807,-1.6495906114578247
1772537143816713500,6.92371337890625,-0.10786918550729752,-0.5798887014389038,-1.6711214780807495
1772537143826762800,6.9337626953125,0.05888935923576355,-0.6056208610534668,-1.4455509185791016
1772537143836810500,6.943810546875,0.22901208698749542,-0.5564748644828796,-1.1207565069198608
1772537143846858500,6.9538583984375,0.25948530435562134,-0.46022599935531616,-0.7307284474372864
1772537143856907500,6.963907470703125,0.07265312224626541,-0.2729671597480774,-0.3421308994293213
1772537143866955500,6.97395556640625,-0.22534483671188354,0.012791990302503109,-0.1517212688922882
1772537143877003800,6.984003662109375,-0.5117723345756531,0.21792037785053253,-0.14824824035167694
1772537143887052500,6.994052490234375,-0.698988139629364,0.39051553606987,-0.23321114480495453
1772537143897100800,7.004100830078125,-0.7715832591056824,0.5483123660087585,-0.31555527448654175
1772537143907148500,7.0141484375,-0.7698018550872803,0.5967557430267334,-0.3883788585662842
1772537143917197800,7.02419775390625,-0.6631020307540894,0.47874951362609863,-0.46218863129615784
1772537143927245600,7.03424560546875,-0.4486352503299713,0.2096761167049408,-0.45234012603759766
1772537143937293600,7.04429345703125,-0.13295826315879822,-0.10563628375530243,-0.28145572543144226
1772537143947342600,7.054342529296875,0.1959816962480545,-0.31488919258117676,-0.009866056963801384
1772537143957390600,7.064390625,0.4187178313732147,-0.401394248008728,0.2601052522659302
1772537143967438600,7.0744384765625,0.5580490827560425,-0.3584105670452118,0.4351241886615753
1772537143977487600,7.084487548828125,0.6066440939903259,-0.2372383177280426,0.4447224736213684
1772537143987535400,7.094535400390625,0.6055415868759155,-0.16560578346252441,0.2696957588195801
1772537143997583600,7.10458349609375,0.5811454653739929,-0.2245577722787857,-0.004425298422574997
1772537144007632400,7.11463232421875,0.542443037033081,-0.42880797386169434,-0.3107134997844696
1772537144017680600,7.1246806640625,0.5039137601852417,-0.726512610912323,-0.5984694361686707
1772537144027728600,7.134728759765625,0.45123356580734253,-0.9559579491615295,-0.7752730250358582
1772537144037776600,7.144776611328125,0.2896558344364166,-0.9346872568130493,-0.7387064695358276
1772537144047825700,7.15482568359375,-0.02563391998410225,-0.7202414274215698,-0.4798867702484131
1772537144057873400,7.164873291015625,-0.3803430199623108,-0.481065034866333,-0.10202816873788834
1772537144067921700,7.174921630859375,-0.7082628607749939,-0.2709461450576782,0.26156359910964966
1772537144077970200,7.18497021484375,-0.9219205379486084,-0.18929576873779297,0.4977351129055023
1772537144088018200,7.19501806640625,-1.0164953470230103,-0.2690673768520355,0.6240848302841187
1772537144098066400,7.20506640625,-1.0273700952529907,-0.3679547905921936,0.7180149555206299
1772537144108115200,7.215115234375,-0.9871659278869629,-0.34883058071136475,0.7917009592056274
1772537144118163200,7.2251630859375,-0.9110199809074402,-0.2898724675178528,0.8815999031066895
1772537144128211200,7.235211181640625,-0.8104721903800964,-0.22216682136058807,1.035239577293396
1772537144138260200,7.24526025390625,-0.681617259979248,-0.15113793313503265,1.2271660566329956
1772537144148308200,7.25530810546875,-0.4996491074562073,-0.07497141510248184,1.3974260091781616
1772537144158356200,7.265356201171875,-0.26407942175865173,0.008537858724594116,1.5090010166168213
1772537144168405200,7.2754052734375,-0.016844702884554863,0.09830725938081741,1.5319617986679077
1772537144178453200,7.285453369140625,0.20087243616580963,0.17610830068588257,1.4624223709106445
1772537144188501000,7.2955009765625,0.34416788816452026,0.16384902596473694,1.354040265083313
1772537144198550300,7.30555029296875,0.407479465007782,0.07867579907178879,1.205338954925537
1772537144208598000,7.315597900390625,0.3994947075843811,0.04408090189099312,0.997403085231781
1772537144218646300,7.325646240234375,0.3363807201385498,0.09421996772289276,0.7616561055183411
1772537144228695000,7.335695068359375,0.256763219833374,0.23691657185554504,0.52519690990448
1772537144238743300,7.345743408203125,0.19045183062553406,0.4407794177532196,0.269745409488678
1772537144248791300,7.355791259765625,0.14717897772789001,0.5756127834320068,0.06270021945238113
1772537144258840300,7.36584033203125,0.11683625727891922,0.5667644143104553,-0.09859546273946762
1772537144268888300,7.375888427734375,0.12993358075618744,0.5252940058708191,-0.3509240448474884
1772537144278936000,7.38593603515625,0.11026453971862793,0.3885100781917572,-0.6924558281898499
1772537144288985300,7.3959853515625,0.025860577821731567,0.11613306403160095,-1.0746642351150513
1772537144299033000,7.406033203125,-0.07288011163473129,-0.23412801325321198,-1.4376929998397827
1772537144309081300,7.416081298828125,-0.1483452022075653,-0.6029976010322571,-1.7707513570785522
1772537144319130000,7.426130126953125,-0.14019566774368286,-0.7524675130844116,-2.0725982189178467
1772537144329178400,7.436178466796875,0.037874191999435425,-0.6145718097686768,-2.259392023086548
1772537144339226400,7.446226318359375,0.3227972686290741,-0.333234965801239,-2.274419069290161
1772537144349275100,7.456275146484375,0.5037506818771362,-0.0411260686814785,-2.162193536758423
1772537144359323100,7.4663232421875,0.4203362464904785,0.257013738155365,-2.0871999263763428
1772537144369371100,7.47637109375,0.1339123398065567,0.4825015366077423,-2.00588059425354
1772537144379419400,7.48641943359375,-0.20112557709217072,0.540921151638031,-1.826004981994629
1772537144389468200,7.49646826171875,-0.42423155903816223,0.5232282280921936,-1.5600574016571045
1772537144399516200,7.50651611328125,-0.5610706806182861,0.48737701773643494,-1.2415460348129272
1772537144409564200,7.516564208984375,-0.6710296869277954,0.37320515513420105,-0.837197482585907
1772537144419613200,7.52661328125,-0.7499088048934937,0.26290953159332275,-0.38732409477233887
1772537144429661200,7.5366611328125,-0.7314975261688232,0.14941123127937317,0.10621456056833267
1772537144439709200,7.546709228515625,-0.5833339095115662,0.09222649782896042,0.5978788733482361
1772537144449758200,7.55675830078125,-0.2956213057041168,0.10353538393974304,0.9561518430709839
1772537144459806200,7.56680615234375,0.05156354233622551,0.0682825818657875,1.1526761054992676
1772537144469854200,7.576854248046875,0.354735404253006,0.05631886050105095,1.1797605752944946
1772537144479903200,7.5869033203125,0.5700839161872864,0.12623989582061768,0.9961729645729065
1772537144489951200,7.596951171875,0.7264015674591064,0.2070777416229248,0.6082445979118347
1772537144499999200,7.606999267578125,0.824984610080719,0.23141877353191376,0.11789537966251373
1772537144510048300,7.61704833984375,0.803986668586731,0.15558457374572754,-0.3402189612388611
1772537144520096300,7.62709619140625,0.6550608277320862,-0.008905846625566483,-0.6802724599838257
1772537144530144300,7.637144287109375,0.4283980131149292,-0.21088175475597382,-0.882620096206665
1772537144540193300,7.647193359375,0.1766510158777237,-0.3221171796321869,-0.9093672633171082
1772537144550241300,7.6572412109375,-0.06818541884422302,-0.25837939977645874,-0.8027322888374329
1772537144560289000,7.6672890625,-0.3140391409397125,-0.09307937324047089,-0.6457724571228027
1772537144570337300,7.677337158203125,-0.5364104509353638,0.06235375627875328,-0.4935253858566284
1772537144580386000,7.687385986328125,-0.726995050907135,0.14981995522975922,-0.3545041084289551
1772537144590434300,7.697434326171875,-0.8907203078269958,0.15616360306739807,-0.21027953922748566
1772537144600482300,7.707482421875,-0.9951695203781128,0.14695759117603302,-0.06205438822507858
1772537144610531300,7.71753125,-1.0733076333999634,0.1669832468032837,0.1210232600569725
1772537144620579300,7.727579345703125,-1.1230114698410034,0.16131524741649628,0.37871021032333374
1772537144630627000,7.737626953125,-1.1279278993606567,0.08260053396224976,0.7488369345664978
1772537144640676400,7.74767626953125,-1.1146941184997559,-0.025124333798885345,1.213470697402954
1772537144650724000,7.75772412109375,-1.084226131439209,-0.06611111760139465,1.6562321186065674
1772537144660772400,7.7677724609375,-0.9851812720298767,-0.03315742686390877,1.983581781387329
1772537144670821000,7.777821044921875,-0.8073585629463196,0.07057160139083862,2.1390984058380127
1772537144680869000,7.787869140625,-0.5593066811561584,0.19466479122638702,2.130404472351074
1772537144690917400,7.79791748046875,-0.29257866740226746,0.29297107458114624,2.0214407444000244
1772537144700966100,7.807966064453125,-0.06979751586914062,0.38462644815444946,1.808705449104309
1772537144711014100,7.81801416015625,0.06860902160406113,0.47874850034713745,1.5113285779953003
1772537144721062100,7.828062255859375,0.13484449684619904,0.5410475730895996,1.2171802520751953
1772537144731111200,7.838111083984375,0.12841789424419403,0.495796799659729,0.9700278043746948
1772537144741159200,7.8481591796875,0.008380171842873096,0.43389907479286194,0.7575309872627258
1772537144751207200,7.858207275390625,-0.14017194509506226,0.4671541154384613,0.4906509816646576
1772537144761256200,7.868256103515625,-0.190867617726326,0.5959339737892151,0.1680966466665268
1772537144771304200,7.87830419921875,-0.08809491991996765,0.2863005995750427,-0.17356310784816742
1772537144781352200,7.888352294921875,-0.03636647015810013,0.03219960629940033,-0.7166416049003601
1772537144791401200,7.898401123046875,0.10311499983072281,0.22398905456066132,-1.3366920948028564
1772537144801449200,7.90844921875,0.17750507593154907,-0.10557952523231506,-1.867004632949829
1772537144811497200,7.918497314453125,0.21289269626140594,-0.8694877028465271,-2.2583746910095215
1772537144821546200,7.928546142578125,0.3922443687915802,-1.3194383382797241,-2.5765249729156494
1772537144831594200,7.93859423828125,0.7223606705665588,-1.4325541257858276,-2.739025592803955
1772537144841642200,7.948642333984375,1.0462117195129395,-1.2703255414962769,-2.679177761077881
1772537144851690200,7.958690185546875,1.1560522317886353,-0.9617233276367188,-2.333383560180664
1772537144861739300,7.9687392578125,0.9118574857711792,-0.6167382001876831,-1.7628141641616821
1772537144871787300,7.978787353515625,0.49115613102912903,-0.24789679050445557,-1.1708229780197144
1772537144881835300,7.988835205078125,0.15823571383953094,0.08489474654197693,-0.6458622217178345
1772537144891884300,7.99888427734375,-0.06160300225019455,0.2990148663520813,-0.25838446617126465
1772537144901932300,8.008932373046875,-0.2678200900554657,0.40848594903945923,-0.02722662314772606
1772537144911980000,8.01897998046875,-0.48600080609321594,0.39791032671928406,0.09862751513719559
1772537144922029300,8.029029296875,-0.6487777233123779,0.22143568098545074,0.12907543778419495
1772537144932077000,8.0390771484375,-0.6817314028739929,0.008080538362264633,0.10586075484752655
1772537144942125300,8.049125244140624,-0.6054592728614807,-0.16540096700191498,0.12455640733242035
1772537144952174000,8.059174072265625,-0.4280223250389099,-0.26371604204177856,0.1864977329969406
1772537144962222000,8.06922216796875,-0.18927262723445892,-0.24486298859119415,0.25365519523620605
1772537144972270300,8.079270263671875,0.05361134558916092,-0.1945604383945465,0.3209681808948517
1772537144982319000,8.089319091796876,0.26812177896499634,-0.16175855696201324,0.32341402769088745
1772537144992367400,8.099367431640625,0.3854714632034302,-0.15467660129070282,0.18448741734027863
1772537145002415000,8.1094150390625,0.44046440720558167,-0.1615709811449051,-0.1472865343093872
1772537145012464400,8.11946435546875,0.4545246958732605,-0.14042489230632782,-0.6344113349914551
1772537145022512000,8.12951220703125,0.39981165528297424,-0.24126122891902924,-1.2013845443725586
1772537145032560000,8.13956005859375,0.310078889131546,-0.44375959038734436,-1.6902300119400024
1772537145042609200,8.149609130859375,0.20935919880867004,-0.5949413776397705,-1.9239354133605957
1772537145052657200,8.1596572265625,0.08676572889089584,-0.5889710187911987,-1.8039785623550415
1772537145062705200,8.169705078125,-0.04419441521167755,-0.49016618728637695,-1.4126839637756348
1772537145072754200,8.179754150390625,-0.13653819262981415,-0.3933536410331726,-0.8289729356765747
1772537145082803500,8.189803466796874,-0.17678575217723846,-0.2734123170375824,-0.15925101935863495
1772537145092851500,8.1998515625,-0.21288423240184784,-0.08281898498535156,0.45974692702293396
1772537145102900500,8.209900390625,-0.3122864365577698,0.06233341991901398,0.9571942090988159
1772537145112948500,8.219948486328125,-0.47527486085891724,0.11254611611366272,1.2966285943984985
1772537145122996500,8.22999658203125,-0.6554478406906128,0.047873109579086304,1.5305598974227905
1772537145133044500,8.24004443359375,-0.7881496548652649,-0.10295581817626953,1.7380645275115967
1772537145143093500,8.250093505859375,-0.8249313831329346,-0.28662124276161194,1.9650622606277466
1772537145153141500,8.2601416015625,-0.7737606167793274,-0.3862823247909546,2.183117151260376
1772537145163189500,8.270189453125,-0.6279482841491699,-0.35792818665504456,2.2764029502868652
1772537145173238500,8.280238525390626,-0.4098740816116333,-0.299836128950119,2.2148475646972656
1772537145183286500,8.29028662109375,-0.17993248999118805,-0.23331677913665771,2.023080825805664
1772537145193334500,8.30033447265625,-0.015262965112924576,-0.13159102201461792,1.726244330406189
1772537145203383600,8.310383544921875,0.06342092901468277,-0.032920368015766144,1.338064432144165
1772537145213431300,8.320431396484375,0.05734112858772278,0.01823386177420616,0.916769802570343
1772537145223479600,8.3304794921875,-0.0246615968644619,0.09143111109733582,0.5151813626289368
1772537145233528300,8.3405283203125,-0.08861281722784042,0.261907160282135,0.23359674215316772
1772537145243576600,8.35057666015625,-0.1300225853919983,0.5567688941955566,0.0956878811120987
1772537145253624300,8.360624267578125,-0.14734990894794464,0.8277653455734253,-0.031884342432022095
1772537145263673600,8.370673583984376,-0.058607518672943115,0.9532759189605713,-0.17179031670093536
1772537145273721300,8.380721435546874,0.07167021930217743,0.9718899726867676,-0.3415972888469696
1772537145283769300,8.390769287109375,0.17914368212223053,0.9256037473678589,-0.5595808029174805
1772537145293818400,8.400818359375,0.247677743434906,0.7448146343231201,-0.7051263451576233
1772537145303866400,8.410866455078125,0.25900816917419434,0.4068368673324585,-0.7458628416061401
1772537145313914600,8.42091455078125,0.2756284773349762,-0.01757979393005371,-0.7959186434745789
1772537145323963400,8.43096337890625,0.3377879858016968,-0.37582769989967346,-0.9443408846855164
1772537145334011600,8.44101171875,0.4051418900489807,-0.5164228677749634,-1.2068912982940674
1772537145344059400,8.451059326171874,0.47763046622276306,-0.46587398648262024,-1.4509540796279907
1772537145354108700,8.461108642578125,0.512569785118103,-0.2792023718357086,-1.54733407497406
1772537145364156400,8.471156494140626,0.410722553730011,0.015755221247673035,-1.4875520467758179
1772537145374204400,8.481204345703125,0.1735203117132187,0.29147759079933167,-1.3677459955215454
1772537145384252700,8.491252685546876,-0.056697435677051544,0.3558981120586395,-1.2555334568023682
1772537145394301400,8.501301513671875,-0.15101566910743713,0.23133555054664612,-1.049155831336975
1772537145404349400,8.511349365234375,-0.10997715592384338,0.11914430558681488,-0.7584028244018555
1772537145414397400,8.5213974609375,-0.07623180001974106,0.10520447790622711,-0.4305121600627899
1772537145424446500,8.531446533203125,-0.0720495730638504,0.038552477955818176,-0.22718703746795654
1772537145434494500,8.541494384765626,-0.08915364742279053,-0.11536714434623718,-0.16701431572437286
1772537145444542500,8.55154248046875,-0.1152997612953186,-0.18928131461143494,-0.15848208963871002
1772537145454591500,8.561591552734376,-0.1286737471818924,-0.14532138407230377,-0.13613922894001007
1772537145464639500,8.571639404296874,-0.07306401431560516,-0.02259066328406334,-0.06765284389257431
1772537145474687500,8.5816875,0.057887591421604156,0.0996476262807846,0.04559427872300148
1772537145484736500,8.591736572265624,0.20142824947834015,0.19888631999492645,0.16459204256534576
1772537145494784300,8.6017841796875,0.30755311250686646,0.25252199172973633,0.20690959692001343
1772537145504832500,8.61183251953125,0.3957951068878174,0.2627280354499817,0.1455381065607071
1772537145514881300,8.62188134765625,0.4538884162902832,0.1567980945110321,0.007633495144546032
1772537145524929500,8.631929443359375,0.4951639473438263,-0.02493521012365818,-0.19206230342388153
1772537145534977500,8.6419775390625,0.5299181938171387,-0.22874146699905396,-0.4066932201385498
1772537145545026600,8.652026611328125,0.5489169359207153,-0.39105233550071716,-0.60677170753479
1772537145555074600,8.662074462890626,0.5059854984283447,-0.46022629737854004,-0.7033377885818481
1772537145565122300,8.672122314453125,0.40695613622665405,-0.47509658336639404,-0.6961988806724548
1772537145575171600,8.682171630859376,0.24472293257713318,-0.38581815361976624,-0.5959585905075073
1772537145585219300,8.69221923828125,0.04409848898649216,-0.30507591366767883,-0.4193025529384613
1772537145595267600,8.702267578125,-0.12025641649961472,-0.3559182286262512,-0.26109495759010315
1772537145605315300,8.7123154296875,-0.2676118016242981,-0.47290635108947754,-0.12594856321811676
1772537145615364600,8.722364501953125,-0.41443371772766113,-0.5422360301017761,0.10358057916164398
1772537145625412400,8.732412353515626,-0.4999270439147949,-0.4471319019794464,0.43548446893692017
1772537145635460400,8.74246044921875,-0.4903256297111511,-0.36880090832710266,0.8277025818824768
1772537145645509400,8.75250927734375,-0.35222500562667847,-0.39049848914146423,1.2104504108428955
1772537145655557400,8.762557373046874,-0.13380008935928345,-0.43264368176460266,1.5384002923965454
1772537145665605600,8.772605712890625,0.007984213531017303,-0.40336036682128906,1.7569578886032104
1772537145675654400,8.782654296875,0.06936432421207428,-0.20433096587657928,1.7515320777893066
1772537145685702700,8.79270263671875,0.06313279271125793,-0.16162265837192535,1.5745104551315308
1772537145695750400,8.80275048828125,0.07627765089273453,-0.2514939606189728,1.3799728155136108
1772537145705799700,8.812799560546875,0.1059335470199585,-0.3380512297153473,1.2170380353927612
1772537145715847400,8.822847412109375,0.10891155153512955,-0.30103498697280884,1.1028085947036743
1772537145725895400,8.8328955078125,0.10618260502815247,-0.193113312125206,1.0075304508209229
1772537145735944400,8.8429443359375,0.10279516130685806,-0.05981234088540077,0.9604713916778564
1772537145745992400,8.852992431640626,0.04961129650473595,0.09052497148513794,0.855972945690155
1772537145756040400,8.86304052734375,-0.04885723814368248,0.20926985144615173,0.7063673138618469
